roll_imu,pitch_imu,yaw_imu,alpha,beta,roll_des,pitch_des,yaw_des,throttle_des,roll_pid,pitch_pid,yaw_pid,radio_ch1,radio_ch2,radio_ch3,radio_ch4,radio_ch5,radio_ch6,radio_ch7,radio_ch8,radio_ch9,radio_ch10,radio_ch11,radio_ch12,radio_ch13,GyroX,GyroY,GyroZ,AccX,AccY,AccZ,s1_command,s2_command,s3_command,s4_command,kp_roll,ki_roll,kd_roll,kp_pitch,ki_pitch,kd_pitch,kp_yaw,ki_yaw,kd_yaw,failsafeTriggered,kp_alphaRoll,ki_alphaRoll,kd_alphaRoll,kp_betaPitch,ki_betaPitch,kd_betaPitch
0.0000,0.0000,0.0000,8.7429,-2.5714,0.0000,0.0000,0.0000,0.0000,0.0000,0.0000,0.0000,700,1053,1051,1051,1000,1000,1505,1000,1000,1505,1005,1000,1505,0.0000,0.0000,0.0000,0.0000,0.0000,0.0000,0.0000,0.0000,0.0000,0.0000,0.2204,0.0082,0.0438,0.2204,0.0082,0.0438,0.3000,0.0500,0.0002,0,-0.3000,-100.0000,-0.0010,-0.3000,-100.0000,-0.0010
109.0828,36.5438,47.5872,-0.0686,-0.0686,-20.4000,-20.6400,-110.0800,0.0000,-0.2881,-0.1264,-0.3416,846,1160,1156,1156,2000,1000,1000,1000,1500,1500,1500,1500,1500,1.4944,0.7425,-0.3838,-0.0020,0.0100,0.9464,-0.5033,0.7561,-0.1799,-0.0728,0.2204,0.0082,0.0438,0.2204,0.0082,0.0438,0.3000,0.0500,0.0002,0,-1.3500,-100.0000,-0.0185,-1.3500,-100.0000,-0.0185
109.0829,36.5466,47.5868,0.1371,0.0686,-13.4400,-13.5600,-72.3200,0.0000,-0.2726,-0.1109,-0.2290,951,1276,1274,1274,1000,1000,1505,1000,1000,1505,1005,1000,1505,1.0784,1.0720,-0.1760,0.0002,0.0083,0.9900,-0.3906,0.6124,-0.0673,-0.1545,0.2204,0.0082,0.0438,0.2204,0.0082,0.0438,0.3000,0.0500,0.0002,0,-1.3605,0.0000,-0.0010,-1.3605,0.0000,-0.0010
109.0811,36.5459,47.5914,-0.0686,-0.0686,-6.8400,-6.9000,-36.8000,0.0000,-0.2578,-0.0964,-0.1231,985,1386,1385,1385,1000,1000,1505,1000,1000,1505,1005,1000,1505,0.6727,1.5035,0.0629,0.0003,0.0046,0.9895,-0.2845,0.4774,0.0383,-0.2311,0.2204,0.0082,0.0438,0.2204,0.0082,0.0438,0.3000,0.0500,0.0002,0,-1.3605,0.0000,-0.0010,-1.3605,0.0000,-0.0010
109.0772,36.5417,47.5997,0.0686,-0.0000,-1.9800,-2.1000,-11.2000,0.0000,-0.2470,-0.0860,-0.0470,995,1467,1465,1465,1000,1000,1505,1000,1000,1505,1005,1000,1505,0.3068,1.9318,0.2812,-0.0029,0.0014,0.9961,-0.2079,0.3799,0.1140,-0.2860,0.2204,0.0082,0.0438,0.2204,0.0082,0.0438,0.3000,0.0500,0.0002,0,-1.3605,0.0000,-0.0010,-1.3605,0.0000,-0.0010
109.0727,36.5354,47.6103,0.0000,0.0686,-0.4800,-0.6000,-3.2000,0.0000,-0.2436,-0.0828,-0.0232,998,1501,1498,1498,1000,1000,1505,1000,1000,1505,1005,1000,1505,0.2421,2.0992,0.3680,-0.0040,0.0009,0.9957,-0.1840,0.3496,0.1376,-0.3032,0.2204,0.0082,0.0438,0.2204,0.0082,0.0438,0.3000,0.0500,0.0002,0,-1.3605,0.0000,-0.0010,-1.3605,0.0000,-0.0010
109.0704,36.5285,47.6228,0.0686,0.0686,0.1200,0.0000,0.0000,0.0000,-0.2424,-0.0815,-0.0135,996,1502,1500,1500,1000,1000,1505,1000,1000,1505,1005,1000,1505,0.5085,2.1984,0.3447,-0.0058,-0.0036,0.9967,-0.1745,0.3374,0.1474,-0.3103,0.2204,0.0082,0.0438,0.2204,0.0082,0.0438,0.3000,0.0500,0.0002,0,-1.3605,0.0000,-0.0010,-1.3605,0.0000,-0.0010
109.0723,36.5223,47.6353,0.0686,0.0686,0.1200,0.0000,0.0000,0.0000,-0.2426,-0.0814,-0.0134,996,1502,1500,1500,1000,1000,1505,1000,1000,1505,1005,1000,1505,1.0539,2.1252,0.2865,-0.0051,-0.0079,0.9893,-0.1746,0.3375,0.1478,-0.3107,0.2204,0.0082,0.0438,0.2204,0.0082,0.0438,0.3000,0.0500,0.0002,0,-1.3605,0.0000,-0.0010,-1.3605,0.0000,-0.0010
109.0811,36.5177,47.6484,0.0686,0.0686,0.1200,0.0000,0.0000,0.0000,-0.2429,-0.0814,-0.0124,996,1502,1500,1500,1000,1000,1505,1000,1000,1505,1005,1000,1505,1.6617,2.0324,-0.0224,-0.0082,-0.0062,0.9957,-0.1740,0.3367,0.1491,-0.3119,0.2204,0.0082,0.0438,0.2204,0.0082,0.0438,0.3000,0.0500,0.0002,0,-1.3605,0.0000,-0.0010,-1.3605,0.0000,-0.0010
109.0957,36.5157,47.6615,0.0686,0.0686,0.1200,0.0000,0.0000,0.0000,-0.2432,-0.0814,-0.0118,996,1502,1500,1500,1000,1000,1505,1000,1000,1505,1005,1000,1505,2.1474,2.0486,-0.2207,-0.0066,-0.0047,0.9890,-0.1736,0.3364,0.1500,-0.3127,0.2204,0.0082,0.0438,0.2204,0.0082,0.0438,0.3000,0.0500,0.0002,0,-1.3605,0.0000,-0.0010,-1.3605,0.0000,-0.0010
109.1164,36.5149,47.6773,0.0686,0.0686,0.1200,0.0000,0.0000,0.0000,-0.2434,-0.0815,-0.0113,996,1502,1500,1500,1000,1000,1505,1000,1000,1505,1005,1000,1505,2.5101,2.2321,-0.3816,-0.0048,-0.0021,0.9958,-0.1733,0.3362,0.1506,-0.3135,0.2204,0.0082,0.0438,0.2204,0.0082,0.0438,0.3000,0.0500,0.0002,0,-1.3605,0.0000,-0.0010,-1.3605,0.0000,-0.0010
109.1413,36.5155,47.6956,0.0686,0.0686,0.1200,0.0000,0.0000,0.0000,-0.2435,-0.0815,-0.0104,998,1504,1501,1501,1000,1000,1505,1000,1000,1505,1005,1000,1505,2.6835,2.3367,-0.6811,-0.0046,0.0019,0.9930,-0.1724,0.3354,0.1516,-0.3146,0.2204,0.0082,0.0438,0.2204,0.0082,0.0438,0.3000,0.0500,0.0002,0,-1.3605,0.0000,-0.0010,-1.3605,0.0000,-0.0010
109.1674,36.5179,47.7169,0.0686,0.0686,0.1200,0.0000,0.0000,0.0000,-0.2435,-0.0816,-0.0102,996,1502,1500,1500,1000,1000,1505,1000,1000,1505,1005,1000,1505,2.4275,2.4683,-0.7490,-0.0112,0.0078,0.9990,-0.1721,0.3353,0.1516,-0.3148,0.2204,0.0082,0.0438,0.2204,0.0082,0.0438,0.3000,0.0500,0.0002,0,-1.3605,0.0000,-0.0010,-1.3605,0.0000,-0.0010
109.1891,36.5205,47.7372,0.0686,0.0686,0.1200,0.0000,0.0000,0.0000,-0.2433,-0.0815,-0.0102,996,1502,1500,1500,1000,1000,1505,1000,1000,1505,1005,1000,1505,1.9714,2.2467,-0.7492,-0.0113,0.0099,0.9920,-0.1721,0.3350,0.1516,-0.3145,0.2204,0.0082,0.0438,0.2204,0.0082,0.0438,0.3000,0.0500,0.0002,0,-1.3605,0.0000,-0.0010,-1.3605,0.0000,-0.0010
109.2014,36.5248,47.7526,0.1371,0.0686,0.1200,0.0000,0.0000,0.0000,-0.2430,-0.0812,-0.0104,996,1502,1500,1500,1000,1000,1505,1000,1000,1505,1005,1000,1505,1.2378,1.6703,-0.7278,-0.0170,0.0107,1.0006,-0.1721,0.3346,0.1514,-0.3139,0.2204,0.0082,0.0438,0.2204,0.0082,0.0438,0.3000,0.0500,0.0002,0,-1.3605,0.0000,-0.0010,-1.3605,0.0000,-0.0010
109.1995,36.5291,47.7594,0.0686,-0.0000,0.1200,0.0000,0.0000,0.0000,-0.2426,-0.0810,-0.0112,996,1502,1500,1500,1000,1000,1505,1000,1000,1505,1005,1000,1505,0.2682,1.1267,-0.4489,-0.0163,0.0160,0.9900,-0.1728,0.3348,0.1504,-0.3124,0.2204,0.0082,0.0438,0.2204,0.0082,0.0438,0.3000,0.0500,0.0002,0,-1.3605,0.0000,-0.0010,-1.3605,0.0000,-0.0010
109.1833,36.5331,47.7578,0.0686,0.0686,0.1200,0.0000,0.0000,0.0000,-0.2422,-0.0807,-0.0121,996,1502,1500,1500,1000,1000,1505,1000,1000,1505,1005,1000,1505,-0.4861,0.4740,-0.1647,-0.0149,0.0150,0.9930,-0.1736,0.3350,0.1494,-0.3109,0.2204,0.0082,0.0438,0.2204,0.0082,0.0438,0.3000,0.0500,0.0002,0,-1.3605,0.0000,-0.0010,-1.3605,0.0000,-0.0010
109.1565,36.5355,47.7501,0.1371,-0.0000,0.1200,0.0000,0.0000,0.0000,-0.2419,-0.0807,-0.0129,998,1504,1501,1501,1000,1000,1505,1000,1000,1505,1005,1000,1505,-1.1047,0.3862,0.1181,-0.0080,0.0074,0.9904,-0.1741,0.3355,0.1483,-0.3097,0.2204,0.0082,0.0438,0.2204,0.0082,0.0438,0.3000,0.0500,0.0002,0,-1.3605,0.0000,-0.0010,-1.3605,0.0000,-0.0010
109.1246,36.5356,47.7411,0.0686,0.0686,0.1200,0.0000,0.0000,0.0000,-0.2417,-0.0807,-0.0136,996,1502,1500,1500,1000,1000,1505,1000,1000,1505,1005,1000,1505,-1.3332,0.3764,0.3480,-0.0059,0.0049,1.0007,-0.1746,0.3360,0.1475,-0.3088,0.2204,0.0082,0.0438,0.2204,0.0082,0.0438,0.3000,0.0500,0.0002,0,-1.3605,0.0000,-0.0010,-1.3605,0.0000,-0.0010
109.0920,36.5329,47.7332,0.0686,-0.0000,0.1200,0.0000,0.0000,0.0000,-0.2416,-0.0808,-0.0139,996,1502,1500,1500,1000,1000,1505,1000,1000,1505,1005,1000,1505,-1.3380,0.6413,0.4723,-0.0071,-0.0011,0.9930,-0.1748,0.3364,0.1469,-0.3085,0.2204,0.0082,0.0438,0.2204,0.0082,0.0438,0.3000,0.0500,0.0002,0,-1.3605,0.0000,-0.0010,-1.3605,0.0000,-0.0010
109.0626,36.5274,47.7279,0.0000,0.0686,0.1200,0.0000,0.0000,0.0000,-0.2417,-0.0809,-0.0145,996,1502,1500,1500,1000,1000,1505,1000,1000,1505,1005,1000,1505,-1.1037,0.9113,0.6791,-0.0083,-0.0013,0.9970,-0.1753,0.3371,0.1462,-0.3080,0.2204,0.0082,0.0438,0.2204,0.0082,0.0438,0.3000,0.0500,0.0002,0,-1.3605,0.0000,-0.0010,-1.3605,0.0000,-0.0010
109.0372,36.5207,47.7253,0.0686,0.0686,0.1200,0.0000,0.0000,0.0000,-0.2417,-0.0810,-0.0145,996,1502,1500,1500,1000,1000,1505,1000,1000,1505,1005,1000,1505,-0.8138,1.1003,0.6706,-0.0075,-0.0017,0.9964,-0.1753,0.3372,0.1463,-0.3082,0.2204,0.0082,0.0438,0.2204,0.0082,0.0438,0.3000,0.0500,0.0002,0,-1.3605,0.0000,-0.0010,-1.3605,0.0000,-0.0010
109.0167,36.5153,47.7241,0.0000,-0.0000,0.1200,0.0000,0.0000,0.0000,-0.2419,-0.0809,-0.0135,996,1502,1500,1500,1000,1000,1505,1000,1000,1505,1005,1000,1505,-0.3841,1.0223,0.3650,-0.0114,-0.0052,0.9927,-0.1745,0.3363,0.1474,-0.3093,0.2204,0.0082,0.0438,0.2204,0.0082,0.0438,0.3000,0.0500,0.0002,0,-1.3605,0.0000,-0.0010,-1.3605,0.0000,-0.0010
108.9996,36.5131,47.7221,0.1371,0.0686,0.1200,0.0000,0.0000,0.0000,-0.2420,-0.0809,-0.0131,998,1504,1501,1501,1000,1000,1505,1000,1000,1505,1005,1000,1505,-0.1111,0.8884,0.1942,-0.0131,-0.0031,0.9909,-0.1742,0.3359,0.1481,-0.3098,0.2204,0.0082,0.0438,0.2204,0.0082,0.0438,0.3000,0.0500,0.0002,0,-1.3605,0.0000,-0.0010,-1.3605,0.0000,-0.0010
108.9842,36.5134,47.7191,0.0000,-0.0686,0.1200,0.0000,0.0000,0.0000,-0.2420,-0.0808,-0.0122,996,1502,1500,1500,1000,1000,1505,1000,1000,1505,1005,1000,1505,0.0836,0.7286,-0.0765,-0.0132,0.0008,0.9900,-0.1735,0.3350,0.1490,-0.3106,0.2204,0.0082,0.0438,0.2204,0.0082,0.0438,0.3000,0.0500,0.0002,0,-1.3605,0.0000,-0.0010,-1.3605,0.0000,-0.0010
108.9697,36.5160,47.7159,0.0686,0.1371,0.1200,0.0000,0.0000,0.0000,-0.2420,-0.0808,-0.0119,996,1502,1500,1500,1000,1000,1505,1000,1000,1505,1005,1000,1505,0.0508,0.6233,-0.2029,-0.0100,0.0022,0.9982,-0.1731,0.3346,0.1494,-0.3109,0.2204,0.0082,0.0438,0.2204,0.0082,0.0438,0.3000,0.0500,0.0002,0,-1.3605,0.0000,-0.0010,-1.3605,0.0000,-0.0010
108.9540,36.5204,47.7128,0.0686,0.0686,0.1200,0.0000,0.0000,0.0000,-0.2419,-0.0808,-0.0118,996,1502,1500,1500,1000,1000,1505,1000,1000,1505,1005,1000,1505,-0.1022,0.6019,-0.2896,-0.0130,0.0051,0.9933,-0.1729,0.3344,0.1493,-0.3108,0.2204,0.0082,0.0438,0.2204,0.0082,0.0438,0.3000,0.0500,0.0002,0,-1.3605,0.0000,-0.0010,-1.3605,0.0000,-0.0010
108.9401,36.5334,47.7164,0.0000,-0.0000,0.1200,0.0000,0.0000,0.0000,-0.2419,-0.0807,-0.0057,996,1502,1500,1500,1000,1000,1505,1000,1000,1505,1005,1000,1505,0.0095,0.4608,-2.1904,-0.0046,-0.0009,1.0022,-0.1669,0.3283,0.1554,-0.3169,0.2204,0.0082,0.0438,0.2204,0.0082,0.0438,0.3000,0.0500,0.0002,0,-1.3605,0.0000,-0.0010,-1.3605,0.0000,-0.0010
108.9238,36.5536,47.7199,0.0686,-0.0000,0.1200,0.0000,0.0000,0.0000,-0.2414,-0.0809,-0.0109,996,1502,1500,1500,1000,1000,1505,1000,1000,1505,1005,1000,1505,-0.9903,0.7124,-0.7212,0.0063,0.0295,0.9843,-0.1714,0.3332,0.1496,-0.3114,0.2204,0.0082,0.0438,0.2204,0.0082,0.0438,0.3000,0.0500,0.0002,0,-1.3605,0.0000,-0.0010,-1.3605,0.0000,-0.0010
108.9000,36.5430,47.7177,0.1371,0.1371,0.1200,0.0000,0.0000,0.0000,-0.2415,-0.0810,-0.0186,998,1504,1501,1501,1000,1000,1505,1000,1000,1505,1005,1000,1505,-0.7871,1.0037,1.9884,0.0048,0.0168,1.0032,-0.1791,0.3410,0.1419,-0.3039,0.2204,0.0082,0.0438,0.2204,0.0082,0.0438,0.3000,0.0500,0.0002,0,-1.3605,0.0000,-0.0010,-1.3605,0.0000,-0.0010
108.8754,36.5290,47.7173,0.1371,-0.0000,0.1200,0.0000,0.0000,0.0000,-0.2412,-0.0812,-0.0134,996,1502,1500,1500,1000,1000,1505,1000,1000,1505,1005,1000,1505,-1.1981,1.5161,0.3366,-0.0293,0.0294,0.9878,-0.1735,0.3358,0.1466,-0.3090,0.2204,0.0082,0.0438,0.2204,0.0082,0.0438,0.3000,0.0500,0.0002,0,-1.3605,0.0000,-0.0010,-1.3605,0.0000,-0.0010
108.8455,36.5194,47.7169,0.1371,0.0686,0.1200,0.0000,0.0000,0.0000,-0.2410,-0.0810,-0.0185,996,1502,1500,1500,1000,1000,1505,1000,1000,1505,1005,1000,1505,-1.4744,1.1681,1.8303,-0.0049,-0.0031,0.9858,-0.1785,0.3405,0.1416,-0.3036,0.2204,0.0082,0.0438,0.2204,0.0082,0.0438,0.3000,0.0500,0.0002,0,-1.3605,0.0000,-0.0010,-1.3605,0.0000,-0.0010
108.8122,36.4979,47.7175,0.0686,0.0686,0.1200,0.0000,0.0000,0.0000,-0.2407,-0.0812,-0.0159,996,1502,1500,1500,1000,1000,1505,1000,1000,1505,1005,1000,1505,-2.0933,1.6723,1.2422,-0.0057,-0.0061,0.9901,-0.1754,0.3377,0.1437,-0.3060,0.2204,0.0082,0.0438,0.2204,0.0082,0.0438,0.3000,0.0500,0.0002,0,-1.3605,0.0000,-0.0010,-1.3605,0.0000,-0.0010
108.7844,36.4991,47.7256,0.0000,0.0686,0.1200,0.0000,0.0000,0.0000,-0.2408,-0.0811,-0.0073,996,1502,1500,1500,1000,1000,1505,1000,1000,1505,1005,1000,1505,-1.6770,1.5939,-1.6481,-0.0090,-0.0170,0.9931,-0.1669,0.3292,0.1524,-0.3147,0.2204,0.0082,0.0438,0.2204,0.0082,0.0438,0.3000,0.0500,0.0002,0,-1.3605,0.0000,-0.0010,-1.3605,0.0000,-0.0010
108.7575,36.5146,47.7402,0.0000,0.1371,0.1200,0.0000,0.0000,0.0000,-0.2405,-0.0812,-0.0094,996,1502,1500,1500,1000,1000,1505,1000,1000,1505,1005,1000,1505,-2.3178,1.5471,-1.1764,-0.0168,-0.0248,0.9917,-0.1687,0.3310,0.1499,-0.3123,0.2204,0.0082,0.0438,0.2204,0.0082,0.0438,0.3000,0.0500,0.0002,0,-1.3605,0.0000,-0.0010,-1.3605,0.0000,-0.0010
108.7223,36.5089,47.7440,0.0686,0.1371,0.1200,0.0000,0.0000,0.0000,-0.2405,-0.0812,-0.0173,998,1504,1501,1501,1000,1000,1505,1000,1000,1505,1005,1000,1505,-1.9992,1.7703,1.5588,-0.0198,-0.0013,0.9895,-0.1765,0.3390,0.1420,-0.3045,0.2204,0.0082,0.0438,0.2204,0.0082,0.0438,0.3000,0.0500,0.0002,0,-1.3605,0.0000,-0.0010,-1.3605,0.0000,-0.0010
108.6896,36.4957,47.7454,0.0686,0.0686,0.1200,0.0000,0.0000,0.0000,-0.2406,-0.0811,-0.0125,996,1502,1500,1500,1000,1000,1505,1000,1000,1505,1005,1000,1505,-1.6770,1.4454,0.1605,-0.0182,0.0158,0.9999,-0.1720,0.3342,0.1470,-0.3092,0.2204,0.0082,0.0438,0.2204,0.0082,0.0438,0.3000,0.0500,0.0002,0,-1.3605,0.0000,-0.0010,-1.3605,0.0000,-0.0010
108.6600,36.5044,47.7505,0.0686,0.0686,0.1200,0.0000,0.0000,0.0000,-0.2406,-0.0809,-0.0087,996,1502,1500,1500,1000,1000,1505,1000,1000,1505,1005,1000,1505,-1.6318,0.9346,-1.2456,-0.0228,-0.0001,0.9960,-0.1684,0.3302,0.1510,-0.3127,0.2204,0.0082,0.0438,0.2204,0.0082,0.0438,0.3000,0.0500,0.0002,0,-1.3605,0.0000,-0.0010,-1.3605,0.0000,-0.0010
108.6331,36.5106,47.7506,0.1371,0.0686,0.1200,0.0000,0.0000,0.0000,-0.2407,-0.0808,-0.0145,996,1502,1500,1500,1000,1000,1505,1000,1000,1505,1005,1000,1505,-1.1927,0.8263,0.5512,-0.0128,0.0135,0.9890,-0.1744,0.3360,0.1454,-0.3070,0.2204,0.0082,0.0438,0.2204,0.0082,0.0438,0.3000,0.0500,0.0002,0,-1.3605,0.0000,-0.0010,-1.3605,0.0000,-0.0010
108.6020,36.5007,47.7432,0.0000,0.1371,0.1200,0.0000,0.0000,0.0000,-0.2406,-0.0807,-0.0157,996,1502,1500,1500,1000,1000,1505,1000,1000,1505,1005,1000,1505,-1.1689,0.6119,1.1128,-0.0194,-0.0031,0.9916,-0.1756,0.3370,0.1442,-0.3057,0.2204,0.0082,0.0438,0.2204,0.0082,0.0438,0.3000,0.0500,0.0002,0,-1.3605,0.0000,-0.0010,-1.3605,0.0000,-0.0010
108.5745,36.4993,47.7336,-0.0686,0.0686,0.1200,0.0000,0.0000,0.0000,-0.2407,-0.0806,-0.0111,996,1502,1500,1500,1000,1000,1505,1000,1000,1505,1005,1000,1505,-0.9067,0.4414,-0.4077,-0.0199,-0.0046,0.9973,-0.1712,0.3324,0.1489,-0.3102,0.2204,0.0082,0.0438,0.2204,0.0082,0.0438,0.3000,0.0500,0.0002,0,-1.3605,0.0000,-0.0010,-1.3605,0.0000,-0.0010
108.5469,36.5078,47.7252,-0.0686,0.0686,0.1200,0.0000,0.0000,0.0000,-0.2407,-0.0804,-0.0123,998,1504,1501,1501,1000,1000,1505,1000,1000,1505,1005,1000,1505,-0.7427,-0.1207,-0.1621,-0.0173,-0.0208,0.9939,-0.1726,0.3334,0.1480,-0.3088,0.2204,0.0082,0.0438,0.2204,0.0082,0.0438,0.3000,0.0500,0.0002,0,-1.3605,0.0000,-0.0010,-1.3605,0.0000,-0.0010
108.5150,36.5015,47.7098,0.0686,0.1371,0.1200,0.0000,0.0000,0.0000,-0.2405,-0.0806,-0.0168,996,1502,1500,1500,1000,1000,1505,1000,1000,1505,1005,1000,1505,-1.0889,0.4499,1.4457,-0.0099,-0.0055,0.9928,-0.1766,0.3379,0.1431,-0.3043,0.2204,0.0082,0.0438,0.2204,0.0082,0.0438,0.3000,0.0500,0.0002,0,-1.3605,0.0000,-0.0010,-1.3605,0.0000,-0.0010
108.4818,36.4959,47.6950,-0.0686,-0.0000,0.1200,0.0000,0.0000,0.0000,-0.2405,-0.0804,-0.0128,996,1502,1500,1500,1000,1000,1505,1000,1000,1505,1005,1000,1505,-0.8263,-0.0334,0.1987,-0.0068,0.0052,0.9964,-0.1729,0.3338,0.1473,-0.3081,0.2204,0.0082,0.0438,0.2204,0.0082,0.0438,0.3000,0.0500,0.0002,0,-1.3605,0.0000,-0.0010,-1.3605,0.0000,-0.0010
108.4558,36.5061,47.6882,0.0686,0.2057,0.1200,0.0000,0.0000,0.0000,-0.2406,-0.0805,-0.0095,996,1502,1500,1500,1000,1000,1505,1000,1000,1505,1005,1000,1505,-0.5980,0.1536,-1.0189,-0.0101,-0.0066,0.9984,-0.1695,0.3306,0.1505,-0.3116,0.2204,0.0082,0.0438,0.2204,0.0082,0.0438,0.3000,0.0500,0.0002,0,-1.3605,0.0000,-0.0010,-1.3605,0.0000,-0.0010
108.4292,36.5130,47.6802,-0.0686,-0.0000,0.1200,0.0000,0.0000,0.0000,-0.2404,-0.0807,-0.0133,996,1502,1500,1500,1000,1000,1505,1000,1000,1505,1005,1000,1505,-0.8047,0.4372,0.2024,-0.0183,-0.0020,0.9903,-0.1730,0.3343,0.1465,-0.3078,0.2204,0.0082,0.0438,0.2204,0.0082,0.0438,0.3000,0.0500,0.0002,0,-1.3605,0.0000,-0.0010,-1.3605,0.0000,-0.0010
108.4023,36.5095,47.6700,-0.1371,0.0686,0.1200,0.0000,0.0000,0.0000,-0.2404,-0.0807,-0.0143,996,1502,1500,1500,1000,1000,1505,1000,1000,1505,1005,1000,1505,-0.6748,0.4352,0.6201,-0.0187,0.0009,0.9921,-0.1740,0.3353,0.1455,-0.3068,0.2204,0.0082,0.0438,0.2204,0.0082,0.0438,0.3000,0.0500,0.0002,0,-1.3605,0.0000,-0.0010,-1.3605,0.0000,-0.0010
108.3789,36.5140,47.6632,0.0000,0.1371,0.1200,0.0000,0.0000,0.0000,-0.2404,-0.0806,-0.0099,998,1504,1501,1501,1000,1000,1505,1000,1000,1505,1005,1000,1505,-0.5441,0.3910,-0.8386,-0.0085,-0.0030,0.9890,-0.1696,0.3309,0.1499,-0.3112,0.2204,0.0082,0.0438,0.2204,0.0082,0.0438,0.3000,0.0500,0.0002,0,-1.3605,0.0000,-0.0010,-1.3605,0.0000,-0.0010
108.3558,36.5224,47.6582,0.0000,0.1371,0.1200,0.0000,0.0000,0.0000,-0.2404,-0.0806,-0.0123,996,1502,1500,1500,1000,1000,1505,1000,1000,1505,1005,1000,1505,-0.5130,0.2989,-0.1333,-0.0165,-0.0150,0.9867,-0.1720,0.3333,0.1475,-0.3088,0.2204,0.0082,0.0438,0.2204,0.0082,0.0438,0.3000,0.0500,0.0002,0,-1.3605,0.0000,-0.0010,-1.3605,0.0000,-0.0010
108.3291,36.5205,47.6477,0.0000,0.1371,0.1200,0.0000,0.0000,0.0000,-0.2402,-0.0807,-0.0148,996,1502,1500,1500,1000,1000,1505,1000,1000,1505,1005,1000,1505,-0.6835,0.4609,0.7922,-0.0154,-0.0130,0.9940,-0.1744,0.3358,0.1447,-0.3061,0.2204,0.0082,0.0438,0.2204,0.0082,0.0438,0.3000,0.0500,0.0002,0,-1.3605,0.0000,-0.0010,-1.3605,0.0000,-0.0010
108.3036,36.5186,47.6372,0.0686,0.1371,0.1200,0.0000,0.0000,0.0000,-0.2402,-0.0806,-0.0125,996,1502,1500,1500,1000,1000,1505,1000,1000,1505,1005,1000,1505,-0.7235,0.2311,0.0034,-0.0091,-0.0072,0.9981,-0.1720,0.3332,0.1471,-0.3083,0.2204,0.0082,0.0438,0.2204,0.0082,0.0438,0.3000,0.0500,0.0002,0,-1.3605,0.0000,-0.0010,-1.3605,0.0000,-0.0010
108.2799,36.5235,47.6289,0.0000,0.1371,0.1200,0.0000,0.0000,0.0000,-0.2402,-0.0806,-0.0113,996,1502,1500,1500,1000,1000,1505,1000,1000,1505,1005,1000,1505,-0.5930,0.2538,-0.3783,-0.0160,-0.0066,0.9925,-0.1708,0.3321,0.1483,-0.3095,0.2204,0.0082,0.0438,0.2204,0.0082,0.0438,0.3000,0.0500,0.0002,0,-1.3605,0.0000,-0.0010,-1.3605,0.0000,-0.0010
108.2556,36.5274,47.6172,-0.0686,0.1371,0.1200,0.0000,0.0000,0.0000,-0.2403,-0.0806,-0.0135,996,1502,1500,1500,1000,1000,1505,1000,1000,1505,1005,1000,1505,-0.1004,0.2902,0.3327,-0.0166,0.0039,0.9925,-0.1732,0.3345,0.1462,-0.3074,0.2204,0.0082,0.0438,0.2204,0.0082,0.0438,0.3000,0.0500,0.0002,0,-1.3605,0.0000,-0.0010,-1.3605,0.0000,-0.0010
108.2315,36.5281,47.6044,0.0000,0.0686,0.1200,0.0000,0.0000,0.0000,-0.2404,-0.0805,-0.0131,998,1504,1501,1501,1000,1000,1505,1000,1000,1505,1005,1000,1505,0.1646,0.0237,0.2142,-0.0142,0.0048,0.9950,-0.1729,0.3340,0.1468,-0.3079,0.2204,0.0082,0.0438,0.2204,0.0082,0.0438,0.3000,0.0500,0.0002,0,-1.3605,0.0000,-0.0010,-1.3605,0.0000,-0.0010
108.2109,36.5334,47.5937,-0.0686,0.1371,0.1200,0.0000,0.0000,0.0000,-0.2404,-0.0804,-0.0119,996,1502,1500,1500,1000,1000,1505,1000,1000,1505,1005,1000,1505,0.2368,-0.3145,-0.2315,0.0006,-0.0015,0.9864,-0.1719,0.3326,0.1481,-0.3089,0.2204,0.0082,0.0438,0.2204,0.0082,0.0438,0.3000,0.0500,0.0002,0,-1.3605,0.0000,-0.0010,-1.3605,0.0000,-0.0010
108.1922,36.5391,47.5826,0.0000,0.1371,0.1200,0.0000,0.0000,0.0000,-0.2403,-0.0805,-0.0125,996,1502,1500,1500,1000,1000,1505,1000,1000,1505,1005,1000,1505,0.0574,-0.1864,-0.0653,-0.0084,-0.0149,0.9934,-0.1723,0.3332,0.1473,-0.3082,0.2204,0.0082,0.0438,0.2204,0.0082,0.0438,0.3000,0.0500,0.0002,0,-1.3605,0.0000,-0.0010,-1.3605,0.0000,-0.0010
108.1743,36.5412,47.5701,0.0000,0.1371,0.1200,0.0000,0.0000,0.0000,-0.2402,-0.0806,-0.0123,996,1502,1500,1500,1000,1000,1505,1000,1000,1505,1005,1000,1505,-0.0163,0.1728,-0.0607,-0.0227,-0.0151,0.9904,-0.1719,0.3331,0.1473,-0.3085,0.2204,0.0082,0.0438,0.2204,0.0082,0.0438,0.3000,0.0500,0.0002,0,-1.3605,0.0000,-0.0010,-1.3605,0.0000,-0.0010
108.1577,36.5453,47.5573,0.0000,0.1371,0.1200,0.0000,0.0000,0.0000,-0.2402,-0.0806,-0.0113,996,1502,1500,1500,1000,1000,1505,1000,1000,1505,1005,1000,1505,0.1291,0.1586,-0.3787,-0.0083,-0.0114,0.9941,-0.1709,0.3321,0.1483,-0.3096,0.2204,0.0082,0.0438,0.2204,0.0082,0.0438,0.3000,0.0500,0.0002,0,-1.3605,0.0000,-0.0010,-1.3605,0.0000,-0.0010
108.1431,36.5500,47.5464,0.0000,0.1371,0.1200,0.0000,0.0000,0.0000,-0.2403,-0.0806,-0.0119,996,1502,1500,1500,1000,1000,1505,1000,1000,1505,1005,1000,1505,0.4897,0.0525,-0.1652,0.0037,-0.0103,0.9939,-0.1717,0.3328,0.1479,-0.3090,0.2204,0.0082,0.0438,0.2204,0.0082,0.0438,0.3000,0.0500,0.0002,0,-1.3605,0.0000,-0.0010,-1.3605,0.0000,-0.0010
108.1276,36.5535,47.5343,0.0000,0.1371,0.1200,0.0000,0.0000,0.0000,-0.2404,-0.0806,-0.0124,998,1504,1501,1501,1000,1000,1505,1000,1000,1505,1005,1000,1505,0.6407,0.0979,-0.0167,-0.0046,-0.0058,0.9974,-0.1722,0.3334,0.1474,-0.3086,0.2204,0.0082,0.0438,0.2204,0.0082,0.0438,0.3000,0.0500,0.0002,0,-1.3605,0.0000,-0.0010,-1.3605,0.0000,-0.0010
108.1145,36.5579,47.5232,-0.0686,0.0686,0.1200,0.0000,0.0000,0.0000,-0.2405,-0.0807,-0.0114,996,1502,1500,1500,1000,1000,1505,1000,1000,1505,1005,1000,1505,1.0488,0.3050,-0.3386,-0.0230,-0.0051,0.9902,-0.1712,0.3326,0.1484,-0.3098,0.2204,0.0082,0.0438,0.2204,0.0082,0.0438,0.3000,0.0500,0.0002,0,-1.3605,0.0000,-0.0010,-1.3605,0.0000,-0.0010
108.1046,36.5651,47.5126,0.0000,0.1371,0.1200,0.0000,0.0000,0.0000,-0.2406,-0.0807,-0.0112,996,1502,1500,1500,1000,1000,1505,1000,1000,1505,1005,1000,1505,1.1747,0.1862,-0.4177,-0.0214,0.0011,0.9853,-0.1711,0.3325,0.1487,-0.3100,0.2204,0.0082,0.0438,0.2204,0.0082,0.0438,0.3000,0.0500,0.0002,0,-1.3605,0.0000,-0.0010,-1.3605,0.0000,-0.0010
108.0948,36.5704,47.4998,-0.0686,0.0686,0.1200,0.0000,0.0000,0.0000,-0.2406,-0.0807,-0.0125,996,1502,1500,1500,1000,1000,1505,1000,1000,1505,1005,1000,1505,1.4215,0.2191,0.0088,-0.0171,0.0060,0.9895,-0.1725,0.3339,0.1474,-0.3088,0.2204,0.0082,0.0438,0.2204,0.0082,0.0438,0.3000,0.0500,0.0002,0,-1.3605,0.0000,-0.0010,-1.3605,0.0000,-0.0010
108.0887,36.5737,47.4872,0.0000,0.0686,0.1200,0.0000,0.0000,0.0000,-0.2408,-0.0807,-0.0122,996,1502,1500,1500,1000,1000,1505,1000,1000,1505,1005,1000,1505,1.7572,0.1156,-0.0793,-0.0132,0.0129,0.9936,-0.1723,0.3336,0.1479,-0.3093,0.2204,0.0082,0.0438,0.2204,0.0082,0.0438,0.3000,0.0500,0.0002,0,-1.3605,0.0000,-0.0010,-1.3605,0.0000,-0.0010
108.0858,36.5796,47.4754,-0.0686,-0.0000,0.1200,0.0000,0.0000,0.0000,-0.2409,-0.0807,-0.0113,996,1502,1500,1500,1000,1000,1505,1000,1000,1505,1005,1000,1505,2.1142,0.1774,-0.3409,-0.0157,0.0143,0.9918,-0.1716,0.3330,0.1489,-0.3103,0.2204,0.0082,0.0438,0.2204,0.0082,0.0438,0.3000,0.0500,0.0002,0,-1.3605,0.0000,-0.0010,-1.3605,0.0000,-0.0010
108.0884,36.5856,47.4653,0.0000,0.0686,0.1200,0.0000,0.0000,0.0000,-0.2410,-0.0807,-0.0119,998,1504,1501,1501,1000,1000,1505,1000,1000,1505,1005,1000,1505,2.3151,0.1681,-0.2060,-0.0215,0.0150,0.9858,-0.1722,0.3336,0.1484,-0.3099,0.2204,0.0082,0.0438,0.2204,0.0082,0.0438,0.3000,0.0500,0.0002,0,-1.3605,0.0000,-0.0010,-1.3605,0.0000,-0.0010
108.0936,36.5897,47.4543,-0.0686,0.0686,0.1200,0.0000,0.0000,0.0000,-0.2412,-0.0807,-0.0122,996,1502,1500,1500,1000,1000,1505,1000,1000,1505,1005,1000,1505,2.7540,0.1520,-0.0963,-0.0172,0.0176,0.9947,-0.1727,0.3341,0.1484,-0.3098,0.2204,0.0082,0.0438,0.2204,0.0082,0.0438,0.3000,0.0500,0.0002,0,-1.3605,0.0000,-0.0010,-1.3605,0.0000,-0.0010
108.1068,36.5958,47.4457,-0.0686,0.1371,0.1200,0.0000,0.0000,0.0000,-0.2415,-0.0807,-0.0106,996,1502,1500,1500,1000,1000,1505,1000,1000,1505,1005,1000,1505,3.3025,0.1727,-0.5850,-0.0102,0.0077,0.9984,-0.1714,0.3329,0.1501,-0.3116,0.2204,0.0082,0.0438,0.2204,0.0082,0.0438,0.3000,0.0500,0.0002,0,-1.3605,0.0000,-0.0010,-1.3605,0.0000,-0.0010
108.1248,36.6058,47.4378,0.0000,0.1371,0.1200,0.0000,0.0000,0.0000,-0.2418,-0.0807,-0.0105,996,1502,1500,1500,1000,1000,1505,1000,1000,1505,1005,1000,1505,3.8479,0.1294,-0.6842,-0.0084,0.0021,0.9896,-0.1715,0.3330,0.1506,-0.3121,0.2204,0.0082,0.0438,0.2204,0.0082,0.0438,0.3000,0.0500,0.0002,0,-1.3605,0.0000,-0.0010,-1.3605,0.0000,-0.0010
108.1488,36.6139,47.4301,0.0000,0.2057,0.1200,0.0000,0.0000,0.0000,-0.2421,-0.0808,-0.0108,996,1502,1500,1500,1000,1000,1505,1000,1000,1505,1005,1000,1505,4.3571,0.2689,-0.5144,-0.0210,-0.0053,0.9886,-0.1721,0.3337,0.1504,-0.3120,0.2204,0.0082,0.0438,0.2204,0.0082,0.0438,0.3000,0.0500,0.0002,0,-1.3605,0.0000,-0.0010,-1.3605,0.0000,-0.0010
108.1771,36.6222,47.4217,0.0000,0.2057,0.1200,0.0000,0.0000,0.0000,-0.2423,-0.0808,-0.0108,996,1502,1500,1500,1000,1000,1505,1000,1000,1505,1005,1000,1505,4.7875,0.3057,-0.5888,-0.0244,-0.0231,0.9937,-0.1722,0.3339,0.1507,-0.3124,0.2204,0.0082,0.0438,0.2204,0.0082,0.0438,0.3000,0.0500,0.0002,0,-1.3605,0.0000,-0.0010,-1.3605,0.0000,-0.0010
108.2117,36.6309,47.4136,0.0000,0.0686,0.1200,0.0000,0.0000,0.0000,-0.2426,-0.0809,-0.0107,998,1504,1501,1501,1000,1000,1505,1000,1000,1505,1005,1000,1505,5.2472,0.2699,-0.6169,-0.0106,-0.0243,0.9928,-0.1724,0.3341,0.1511,-0.3128,0.2204,0.0082,0.0438,0.2204,0.0082,0.0438,0.3000,0.0500,0.0002,0,-1.3605,0.0000,-0.0010,-1.3605,0.0000,-0.0010
108.2524,36.6405,47.4056,-0.0686,0.1371,0.1200,0.0000,0.0000,0.0000,-0.2429,-0.0808,-0.0107,996,1502,1500,1500,1000,1000,1505,1000,1000,1505,1005,1000,1505,5.8084,0.0702,-0.5767,-0.0110,-0.0254,0.9979,-0.1729,0.3344,0.1514,-0.3130,0.2204,0.0082,0.0438,0.2204,0.0082,0.0438,0.3000,0.0500,0.0002,0,-1.3605,0.0000,-0.0010,-1.3605,0.0000,-0.0010
108.2986,36.6495,47.3973,-0.0686,0.1371,0.1200,0.0000,0.0000,0.0000,-0.2432,-0.0809,-0.0103,996,1502,1500,1500,1000,1000,1505,1000,1000,1505,1005,1000,1505,6.2780,0.2660,-0.7012,-0.0205,0.0006,0.9949,-0.1727,0.3344,0.1520,-0.3138,0.2204,0.0082,0.0438,0.2204,0.0082,0.0438,0.3000,0.0500,0.0002,0,-1.3605,0.0000,-0.0010,-1.3605,0.0000,-0.0010
108.3507,36.6597,47.3918,0.0000,0.1371,0.1200,0.0000,0.0000,0.0000,-0.2436,-0.0810,-0.0096,996,1502,1500,1500,1000,1000,1505,1000,1000,1505,1005,1000,1505,6.8409,0.4203,-0.9678,-0.0281,-0.0076,0.9907,-0.1722,0.3342,0.1530,-0.3150,0.2204,0.0082,0.0438,0.2204,0.0082,0.0438,0.3000,0.0500,0.0002,0,-1.3605,0.0000,-0.0010,-1.3605,0.0000,-0.0010
108.4087,36.6717,47.3889,0.3429,0.0686,0.1200,0.0000,0.0000,0.0000,-0.2438,-0.0811,-0.0098,996,1502,1500,1500,1000,1000,1505,1000,1000,1505,1005,1000,1505,6.9993,0.6518,-0.8560,-0.0070,-0.0051,0.9919,-0.1725,0.3347,0.1529,-0.3151,0.2204,0.0082,0.0438,0.2204,0.0082,0.0438,0.3000,0.0500,0.0002,0,-1.3605,0.0000,-0.0010,-1.3605,0.0000,-0.0010
108.4726,36.6900,47.3958,0.0000,0.2743,0.1200,0.0000,0.0000,0.0000,-0.2440,-0.0811,-0.0016,996,1502,1500,1500,1000,1000,1505,1000,1000,1505,1005,1000,1505,7.0779,0.5448,-3.4849,-0.0037,-0.0236,0.9946,-0.1645,0.3267,0.1612,-0.3234,0.2204,0.0082,0.0438,0.2204,0.0082,0.0438,0.3000,0.0500,0.0002,0,-1.3605,0.0000,-0.0010,-1.3605,0.0000,-0.0010
108.5417,36.7479,47.4128,0.1371,0.2057,0.1200,0.0000,0.0000,0.0000,-0.2435,-0.0813,0.0097,998,1504,1501,1501,1000,1000,1505,1000,1000,1505,1005,1000,1505,5.7198,0.6657,-7.2215,0.0333,-0.0024,1.0022,-0.1526,0.3151,0.1719,-0.3345,0.2204,0.0082,0.0438,0.2204,0.0082,0.0438,0.3000,0.0500,0.0002,0,-1.3605,0.0000,-0.0010,-1.3605,0.0000,-0.0010
108.6069,36.8337,47.4421,0.0000,0.2743,0.1200,0.0000,0.0000,0.0000,-0.2434,-0.0812,0.0165,996,1502,1500,1500,1000,1000,1505,1000,1000,1505,1005,1000,1505,5.1884,0.0147,-9.5083,-0.0271,0.0266,1.0068,-0.1458,0.3081,0.1787,-0.3411,0.2204,0.0082,0.0438,0.2204,0.0082,0.0438,0.3000,0.0500,0.0002,0,-1.3605,0.0000,-0.0010,-1.3605,0.0000,-0.0010
108.6464,36.9334,47.4642,0.0686,0.2743,0.1200,0.0000,0.0000,0.0000,-0.2424,-0.0811,0.0149,996,1502,1500,1500,1000,1000,1505,1000,1000,1505,1005,1000,1505,2.7272,-0.6865,-9.2101,-0.0659,0.0545,0.9820,-0.1465,0.3087,0.1762,-0.3384,0.2204,0.0082,0.0438,0.2204,0.0082,0.0438,0.3000,0.0500,0.0002,0,-1.3605,0.0000,-0.0010,-1.3605,0.0000,-0.0010
108.6360,37.0120,47.4559,0.0686,0.2743,0.1200,0.0000,0.0000,0.0000,-0.2412,-0.0804,0.0009,996,1502,1500,1500,1000,1000,1505,1000,1000,1505,1005,1000,1505,-0.1386,-2.6249,-4.6697,-0.0161,0.0382,0.9966,-0.1598,0.3207,0.1617,-0.3225,0.2204,0.0082,0.0438,0.2204,0.0082,0.0438,0.3000,0.0500,0.0002,0,-1.3605,0.0000,-0.0010,-1.3605,0.0000,-0.0010
108.5725,37.0466,47.4156,-0.0686,0.0686,0.1200,0.0000,0.0000,0.0000,-0.2393,-0.0804,-0.0137,996,1502,1500,1500,1000,1000,1505,1000,1000,1505,1005,1000,1505,-4.1270,-2.8502,0.2244,0.0152,0.0909,0.9984,-0.1726,0.3334,0.1452,-0.3060,0.2204,0.0082,0.0438,0.2204,0.0082,0.0438,0.3000,0.0500,0.0002,0,-1.3605,0.0000,-0.0010,-1.3605,0.0000,-0.0010
108.4475,37.0296,47.3488,0.1371,0.1371,0.1200,0.0000,0.0000,0.0000,-0.2369,-0.0800,-0.0278,996,1502,1500,1500,1000,1000,1505,1000,1000,1505,1005,1000,1505,-8.8686,-3.7491,5.0553,0.0001,0.0886,1.0021,-0.1847,0.3447,0.1292,-0.2891,0.2204,0.0082,0.0438,0.2204,0.0082,0.0438,0.3000,0.0500,0.0002,0,-1.3605,0.0000,-0.0010,-1.3605,0.0000,-0.0010
108.2574,36.9770,47.2704,0.0000,-0.0000,0.1200,0.0000,0.0000,0.0000,-0.2338,-0.0805,-0.0363,998,1504,1501,1501,1000,1000,1505,1000,1000,1505,1005,1000,1505,-15.0467,-2.2752,7.8551,-0.0086,0.0893,0.9713,-0.1896,0.3506,0.1170,-0.2780,0.2204,0.0082,0.0438,0.2204,0.0082,0.0438,0.3000,0.0500,0.0002,0,-1.3605,0.0000,-0.0010,-1.3605,0.0000,-0.0010
108.0011,36.8899,47.1991,-0.0686,0.1371,0.1200,0.0000,0.0000,0.0000,-0.2301,-0.0806,-0.0444,996,1502,1500,1500,1000,1000,1505,1000,1000,1505,1005,1000,1505,-22.1082,-1.6624,10.6172,-0.0183,0.0751,1.0309,-0.1940,0.3551,0.1051,-0.2663,0.2204,0.0082,0.0438,0.2204,0.0082,0.0438,0.3000,0.0500,0.0002,0,-1.3605,0.0000,-0.0010,-1.3605,0.0000,-0.0010
107.6762,36.7899,47.1300,-0.1371,0.0686,0.1200,0.0000,0.0000,0.0000,-0.2261,-0.0813,-0.0449,996,1502,1500,1500,1000,1000,1505,1000,1000,1505,1005,1000,1505,-29.6137,0.4252,10.7997,0.0144,0.0683,0.9469,-0.1898,0.3523,0.1000,-0.2625,0.2204,0.0082,0.0438,0.2204,0.0082,0.0438,0.3000,0.0500,0.0002,0,-1.3605,0.0000,-0.0010,-1.3605,0.0000,-0.0010
107.2832,36.6801,47.0773,-0.0686,0.1371,0.1200,0.0000,0.0000,0.0000,-0.2229,-0.0804,-0.0438,996,1502,1500,1500,1000,1000,1505,1000,1000,1505,1005,1000,1505,-35.0696,-1.1006,10.5310,-0.0472,-0.0379,1.0521,-0.1864,0.3471,0.0987,-0.2594,0.2204,0.0082,0.0438,0.2204,0.0082,0.0438,0.3000,0.0500,0.0002,0,-1.3605,0.0000,-0.0010,-1.3605,0.0000,-0.0010
106.8672,36.5807,47.0206,-0.1371,0.1371,0.1200,0.0000,0.0000,0.0000,-0.2214,-0.0808,-0.0454,996,1502,1500,1500,1000,1000,1505,1000,1000,1505,1005,1000,1505,-36.3064,0.4885,10.8545,0.0426,0.0131,0.9287,-0.1860,0.3476,0.0952,-0.2569,0.2204,0.0082,0.0438,0.2204,0.0082,0.0438,0.3000,0.0500,0.0002,0,-1.3605,0.0000,-0.0010,-1.3605,0.0000,-0.0010
106.4872,36.5145,46.9687,-0.2057,0.1371,0.1200,0.0000,0.0000,0.0000,-0.2238,-0.0792,-0.0245,996,1502,1500,1500,1000,1000,1505,1000,1000,1505,1005,1000,1505,-29.0609,-2.9091,4.3138,0.0143,-0.1158,1.0255,-0.1690,0.3274,0.1201,-0.2785,0.2204,0.0082,0.0438,0.2204,0.0082,0.0438,0.3000,0.0500,0.0002,0,-1.3605,0.0000,-0.0010,-1.3605,0.0000,-0.0010
106.2071,36.5083,46.9080,-0.0686,0.1371,0.1200,0.0000,0.0000,0.0000,-0.2281,-0.0792,-0.0128,998,1504,1501,1501,1000,1000,1505,1000,1000,1505,1005,1000,1505,-17.6812,-2.8960,0.3930,-0.0528,-0.2270,0.9727,-0.1617,0.3201,0.1362,-0.2945,0.2204,0.0082,0.0438,0.2204,0.0082,0.0438,0.3000,0.0500,0.0002,0,-1.3605,0.0000,-0.0010,-1.3605,0.0000,-0.0010
106.0328,36.5521,46.8403,0.0686,0.0686,0.1200,0.0000,0.0000,0.0000,-0.2329,-0.0777,0.0034,996,1502,1500,1500,1000,1000,1505,1000,1000,1505,1005,1000,1505,-5.8449,-6.5318,-5.0009,0.0389,-0.0965,1.0012,-0.1519,0.3073,0.1586,-0.3140,0.2204,0.0082,0.0438,0.2204,0.0082,0.0438,0.3000,0.0500,0.0002,0,-1.3605,0.0000,-0.0010,-1.3605,0.0000,-0.0010
105.9636,36.6365,46.8027,0.0686,0.1371,0.1200,0.0000,0.0000,0.0000,-0.2345,-0.0790,0.0153,996,1502,1500,1500,1000,1000,1505,1000,1000,1505,1005,1000,1505,-1.9844,-3.9597,-9.1544,-0.0228,-0.1319,1.0601,-0.1401,0.2981,0.1708,-0.3288,0.2204,0.0082,0.0438,0.2204,0.0082,0.0438,0.3000,0.0500,0.0002,0,-1.3605,0.0000,-0.0010,-1.3605,0.0000,-0.0010
105.9318,36.7770,46.7592,0.0000,-0.0000,0.1200,0.0000,0.0000,0.0000,-0.2354,-0.0790,0.0269,996,1502,1500,1500,1000,1000,1505,1000,1000,1505,1005,1000,1505,0.4224,-4.7588,-13.1545,0.0071,-0.1000,0.9471,-0.1296,0.2875,0.1834,-0.3413,0.2204,0.0082,0.0438,0.2204,0.0082,0.0438,0.3000,0.0500,0.0002,0,-1.3605,0.0000,-0.0010,-1.3605,0.0000,-0.0010
105.8984,36.9315,46.7490,0.0000,0.0686,0.1200,0.0000,0.0000,0.0000,-0.2350,-0.0793,0.0338,996,1502,1500,1500,1000,1000,1505,1000,1000,1505,1005,1000,1505,-0.3641,-4.7263,-15.1724,-0.0459,-0.1332,1.0065,-0.1219,0.2806,0.1895,-0.3481,0.2204,0.0082,0.0438,0.2204,0.0082,0.0438,0.3000,0.0500,0.0002,0,-1.3605,0.0000,-0.0010,-1.3605,0.0000,-0.0010
105.8815,37.0957,46.7393,0.0000,-0.0000,0.1200,0.0000,0.0000,0.0000,-0.2347,-0.0812,0.0296,996,1502,1500,1500,1000,1000,1505,1000,1000,1505,1005,1000,1505,-1.0739,-1.3139,-13.8126,0.0000,-0.0009,1.0012,-0.1239,0.2863,0.1831,-0.3454,0.2204,0.0082,0.0438,0.2204,0.0082,0.0438,0.3000,0.0500,0.0002,0,-1.3605,0.0000,-0.0010,-1.3605,0.0000,-0.0010
105.8792,37.2427,46.7589,0.0686,-0.0000,0.1200,0.0000,0.0000,0.0000,-0.2362,-0.0816,0.0266,998,1504,1501,1501,1000,1000,1505,1000,1000,1505,1005,1000,1505,2.4641,-1.1318,-13.1786,-0.0391,0.0983,0.9099,-0.1281,0.2913,0.1812,-0.3444,0.2204,0.0082,0.0438,0.2204,0.0082,0.0438,0.3000,0.0500,0.0002,0,-1.3605,0.0000,-0.0010,-1.3605,0.0000,-0.0010
105.8920,37.3559,46.7881,0.0686,0.1371,0.1200,0.0000,0.0000,0.0000,-0.2354,-0.0829,0.0172,996,1502,1500,1500,1000,1000,1505,1000,1000,1505,1005,1000,1505,0.5875,1.2074,-9.8219,-0.0376,0.0632,1.0145,-0.1354,0.3011,0.1697,-0.3355,0.2204,0.0082,0.0438,0.2204,0.0082,0.0438,0.3000,0.0500,0.0002,0,-1.3605,0.0000,-0.0010,-1.3605,0.0000,-0.0010
105.9275,37.4403,46.8148,0.0686,0.0686,0.1200,0.0000,0.0000,0.0000,-0.2365,-0.0832,0.0058,996,1502,1500,1500,1000,1000,1505,1000,1000,1505,1005,1000,1505,2.8807,1.6421,-6.1815,-0.0015,0.0159,0.9572,-0.1474,0.3139,0.1591,-0.3256,0.2204,0.0082,0.0438,0.2204,0.0082,0.0438,0.3000,0.0500,0.0002,0,-1.3605,0.0000,-0.0010,-1.3605,0.0000,-0.0010
105.9485,37.4842,46.8357,0.0686,-0.0000,0.1200,0.0000,0.0000,0.0000,-0.2369,-0.0832,-0.0043,996,1502,1500,1500,1000,1000,1505,1000,1000,1505,1005,1000,1505,3.6294,1.3276,-2.7993,-0.0105,0.0305,0.9731,-0.1580,0.3244,0.1494,-0.3158,0.2204,0.0082,0.0438,0.2204,0.0082,0.0438,0.3000,0.0500,0.0002,0,-1.3605,0.0000,-0.0010,-1.3605,0.0000,-0.0010
105.9462,37.4925,46.8332,0.0000,0.0686,0.1200,0.0000,0.0000,0.0000,-0.2349,-0.0827,-0.0145,996,1502,1500,1500,1000,1000,1505,1000,1000,1505,1005,1000,1505,-0.8144,0.2270,0.7209,-0.0200,-0.0105,1.0006,-0.1667,0.3322,0.1377,-0.3031,0.2204,0.0082,0.0438,0.2204,0.0082,0.0438,0.3000,0.0500,0.0002,0,-1.3605,0.0000,-0.0010,-1.3605,0.0000,-0.0010
105.9174,37.4723,46.8126,-0.0686,-0.0000,0.1200,0.0000,0.0000,0.0000,-0.2344,-0.0828,-0.0222,996,1502,1500,1500,1000,1000,1505,1000,1000,1505,1005,1000,1505,-1.9274,0.5734,3.3998,-0.0650,-0.0283,0.9897,-0.1737,0.3394,0.1294,-0.2950,0.2204,0.0082,0.0438,0.2204,0.0082,0.0438,0.3000,0.0500,0.0002,0,-1.3605,0.0000,-0.0010,-1.3605,0.0000,-0.0010
105.8434,37.4373,46.7683,0.0686,-0.0686,0.1200,0.0000,0.0000,0.0000,-0.2336,-0.0821,-0.0273,998,1504,1501,1501,1000,1000,1505,1000,1000,1505,1005,1000,1505,-3.2586,-0.9911,4.9957,-0.0400,0.0619,0.9626,-0.1789,0.3430,0.1242,-0.2884,0.2204,0.0082,0.0438,0.2204,0.0082,0.0438,0.3000,0.0500,0.0002,0,-1.3605,0.0000,-0.0010,-1.3605,0.0000,-0.0010
105.7506,37.3937,46.7263,-0.0686,-0.1371,0.1200,0.0000,0.0000,0.0000,-0.2324,-0.0814,-0.0259,996,1502,1500,1500,1000,1000,1505,1000,1000,1505,1005,1000,1505,-5.7162,-2.3801,4.6606,-0.0455,0.0908,0.9740,-0.1769,0.3396,0.1251,-0.2878,0.2204,0.0082,0.0438,0.2204,0.0082,0.0438,0.3000,0.0500,0.0002,0,-1.3605,0.0000,-0.0010,-1.3605,0.0000,-0.0010
105.6401,37.3533,46.6699,0.0686,-0.0686,0.1200,0.0000,0.0000,0.0000,-0.2311,-0.0816,-0.0239,996,1502,1500,1500,1000,1000,1505,1000,1000,1505,1005,1000,1505,-8.0061,-1.6026,4.0406,0.0008,-0.0488,1.0298,-0.1734,0.3366,0.1256,-0.2888,0.2204,0.0082,0.0438,0.2204,0.0082,0.0438,0.3000,0.0500,0.0002,0,-1.3605,0.0000,-0.0010,-1.3605,0.0000,-0.0010
105.5203,37.3197,46.6134,0.0686,-0.1371,0.1200,0.0000,0.0000,0.0000,-0.2315,-0.0813,-0.0261,996,1502,1500,1500,1000,1000,1505,1000,1000,1505,1005,1000,1505,-6.4319,-2.1784,4.7409,-0.0060,-0.1062,1.0010,-0.1764,0.3390,0.1241,-0.2867,0.2204,0.0082,0.0438,0.2204,0.0082,0.0438,0.3000,0.0500,0.0002,0,-1.3605,0.0000,-0.0010,-1.3605,0.0000,-0.0010
105.4124,37.2913,46.5709,0.0686,0.0686,0.1200,0.0000,0.0000,0.0000,-0.2321,-0.0818,-0.0233,996,1502,1500,1500,1000,1000,1505,1000,1000,1505,1005,1000,1505,-4.6717,-0.9916,3.5450,0.0078,0.0174,0.9663,-0.1736,0.3371,0.1270,-0.2906,0.2204,0.0082,0.0438,0.2204,0.0082,0.0438,0.3000,0.0500,0.0002,0,-1.3605,0.0000,-0.0010,-1.3605,0.0000,-0.0010
105.3098,37.2675,46.5273,0.0686,-0.0000,0.1200,0.0000,0.0000,0.0000,-0.2314,-0.0815,-0.0205,996,1502,1500,1500,1000,1000,1505,1000,1000,1505,1005,1000,1505,-5.6559,-1.4181,2.7072,0.0333,0.0163,0.9915,-0.1704,0.3335,0.1294,-0.2924,0.2204,0.0082,0.0438,0.2204,0.0082,0.0438,0.3000,0.0500,0.0002,0,-1.3605,0.0000,-0.0010,-1.3605,0.0000,-0.0010
105.2268,37.2436,46.4967,0.0000,0.0686,0.1200,0.0000,0.0000,0.0000,-0.2316,-0.0819,-0.0178,998,1504,1501,1501,1000,1000,1505,1000,1000,1505,1005,1000,1505,-4.9091,-0.3593,1.9971,0.0001,-0.1628,1.0215,-0.1675,0.3313,0.1318,-0.2956,0.2204,0.0082,0.0438,0.2204,0.0082,0.0438,0.3000,0.0500,0.0002,0,-1.3605,0.0000,-0.0010,-1.3605,0.0000,-0.0010
105.1645,37.2218,46.4748,0.0000,-0.0000,0.1200,0.0000,0.0000,0.0000,-0.2326,-0.0823,-0.0183,996,1502,1500,1500,1000,1000,1505,1000,1000,1505,1005,1000,1505,-2.2974,0.6664,2.1956,-0.0659,-0.1204,0.9820,-0.1686,0.3332,0.1319,-0.2965,0.2204,0.0082,0.0438,0.2204,0.0082,0.0438,0.3000,0.0500,0.0002,0,-1.3605,0.0000,-0.0010,-1.3605,0.0000,-0.0010
105.1179,37.2050,46.4605,0.0000,0.1371,0.1200,0.0000,0.0000,0.0000,-0.2322,-0.0819,-0.0187,996,1502,1500,1500,1000,1000,1505,1000,1000,1505,1005,1000,1505,-2.9894,-0.2227,2.2190,-0.0040,0.0858,0.9881,-0.1690,0.3328,0.1315,-0.2953,0.2204,0.0082,0.0438,0.2204,0.0082,0.0438,0.3000,0.0500,0.0002,0,-1.3605,0.0000,-0.0010,-1.3605,0.0000,-0.0010
105.0794,37.1970,46.4470,0.0686,0.1371,0.1200,0.0000,0.0000,0.0000,-0.2332,-0.0824,-0.0150,996,1502,1500,1500,1000,1000,1505,1000,1000,1505,1005,1000,1505,-0.4569,1.0186,0.8984,0.0217,-0.0114,1.0069,-0.1657,0.3306,0.1358,-0.3006,0.2204,0.0082,0.0438,0.2204,0.0082,0.0438,0.3000,0.0500,0.0002,0,-1.3605,0.0000,-0.0010,-1.3605,0.0000,-0.0010
105.0429,37.1959,46.4309,0.0000,0.0686,0.1200,0.0000,0.0000,0.0000,-0.2334,-0.0819,-0.0115,996,1502,1500,1500,1000,1000,1505,1000,1000,1505,1005,1000,1505,0.1333,-0.2866,-0.2454,0.0167,-0.1080,0.9899,-0.1630,0.3267,0.1400,-0.3037,0.2204,0.0082,0.0438,0.2204,0.0082,0.0438,0.3000,0.0500,0.0002,0,-1.3605,0.0000,-0.0010,-1.3605,0.0000,-0.0010
105.0020,37.2015,46.4128,0.0000,0.0686,0.1200,0.0000,0.0000,0.0000,-0.2322,-0.0813,-0.0100,996,1502,1500,1500,1000,1000,1505,1000,1000,1505,1005,1000,1505,-2.3251,-1.6612,-0.6380,0.0452,-0.1234,1.0284,-0.1609,0.3234,0.1410,-0.3035,0.2204,0.0082,0.0438,0.2204,0.0082,0.0438,0.3000,0.0500,0.0002,0,-1.3605,0.0000,-0.0010,-1.3605,0.0000,-0.0010
104.9671,37.2135,46.3948,0.0000,0.0686,0.1200,0.0000,0.0000,0.0000,-0.2327,-0.0822,-0.0096,998,1504,1501,1501,1000,1000,1505,1000,1000,1505,1005,1000,1505,-1.0475,0.4631,-0.7689,-0.0742,-0.0134,0.9935,-0.1601,0.3245,0.1408,-0.3053,0.2204,0.0082,0.0438,0.2204,0.0082,0.0438,0.3000,0.0500,0.0002,0,-1.3605,0.0000,-0.0010,-1.3605,0.0000,-0.0010
104.9361,37.2267,46.3783,0.0000,-0.0000,0.1200,0.0000,0.0000,0.0000,-0.2323,-0.0816,-0.0137,996,1502,1500,1500,1000,1000,1505,1000,1000,1505,1005,1000,1505,-1.7023,-0.9910,0.2647,-0.0177,0.1496,0.9828,-0.1644,0.3276,0.1370,-0.3002,0.2204,0.0082,0.0438,0.2204,0.0082,0.0438,0.3000,0.0500,0.0002,0,-1.3605,0.0000,-0.0010,-1.3605,0.0000,-0.0010
104.9049,37.2174,46.3595,0.0000,-0.0000,0.1200,0.0000,0.0000,0.0000,-0.2330,-0.0824,-0.0195,996,1502,1500,1500,1000,1000,1505,1000,1000,1505,1005,1000,1505,0.0356,0.8581,2.3186,0.0427,-0.0141,0.9765,-0.1701,0.3349,0.1311,-0.2959,0.2204,0.0082,0.0438,0.2204,0.0082,0.0438,0.3000,0.0500,0.0002,0,-1.3605,0.0000,-0.0010,-1.3605,0.0000,-0.0010
104.8788,37.2084,46.3480,0.1371,0.0686,0.1200,0.0000,0.0000,0.0000,-0.2335,-0.0823,-0.0090,996,1502,1500,1500,1000,1000,1505,1000,1000,1505,1005,1000,1505,1.2766,0.6678,-0.9143,-0.0046,-0.1799,0.9867,-0.1602,0.3248,0.1422,-0.3068,0.2204,0.0082,0.0438,0.2204,0.0082,0.0438,0.3000,0.0500,0.0002,0,-1.3605,0.0000,-0.0010,-1.3605,0.0000,-0.0010
104.8680,37.2250,46.3495,0.1371,0.0686,0.1200,0.0000,0.0000,0.0000,-0.2323,-0.0818,-0.0044,996,1502,1500,1500,1000,1000,1505,1000,1000,1505,1005,1000,1505,-1.2921,-0.6630,-2.5488,-0.0046,-0.1205,1.0320,-0.1550,0.3185,0.1462,-0.3097,0.2204,0.0082,0.0438,0.2204,0.0082,0.0438,0.3000,0.0500,0.0002,0,-1.3605,0.0000,-0.0010,-1.3605,0.0000,-0.0010
104.8414,37.2359,46.3389,0.0000,0.0686,0.1200,0.0000,0.0000,0.0000,-0.2323,-0.0824,-0.0154,996,1502,1500,1500,1000,1000,1505,1000,1000,1505,1005,1000,1505,-1.3631,0.7174,1.0524,-0.1071,0.0161,0.9878,-0.1653,0.3301,0.1344,-0.2992,0.2204,0.0082,0.0438,0.2204,0.0082,0.0438,0.3000,0.0500,0.0002,0,-1.3605,0.0000,-0.0010,-1.3605,0.0000,-0.0010
104.8064,37.2202,46.3168,0.0686,-0.0000,0.1200,0.0000,0.0000,0.0000,-0.2323,-0.0820,-0.0213,998,1504,1501,1501,1000,1000,1505,1000,1000,1505,1005,1000,1505,-0.9981,-0.1037,3.0358,-0.0498,0.1410,0.9792,-0.1717,0.3356,0.1291,-0.2930,0.2204,0.0082,0.0438,0.2204,0.0082,0.0438,0.3000,0.0500,0.0002,0,-1.3605,0.0000,-0.0010,-1.3605,0.0000,-0.0010
104.7575,37.2155,46.2918,0.0000,0.0686,0.1200,0.0000,0.0000,0.0000,-0.2320,-0.0815,-0.0107,996,1502,1500,1500,1000,1000,1505,1000,1000,1505,1005,1000,1505,-1.5336,-1.1142,-0.5530,0.1104,-0.0292,0.9984,-0.1612,0.3242,0.1398,-0.3028,0.2204,0.0082,0.0438,0.2204,0.0082,0.0438,0.3000,0.0500,0.0002,0,-1.3605,0.0000,-0.0010,-1.3605,0.0000,-0.0010
104.7155,37.2330,46.2746,-0.0686,-0.0686,0.1200,0.0000,0.0000,0.0000,-0.2323,-0.0820,-0.0072,996,1502,1500,1500,1000,1000,1505,1000,1000,1505,1005,1000,1505,-0.5900,-0.1779,-1.7569,0.0267,-0.1669,0.9893,-0.1575,0.3215,0.1431,-0.3071,0.2204,0.0082,0.0438,0.2204,0.0082,0.0438,0.3000,0.0500,0.0002,0,-1.3605,0.0000,-0.0010,-1.3605,0.0000,-0.0010
104.6716,37.2350,46.2536,0.0000,0.0686,0.1200,0.0000,0.0000,0.0000,-0.2313,-0.0814,-0.0145,996,1502,1500,1500,1000,1000,1505,1000,1000,1505,1005,1000,1505,-2.6730,-1.4554,0.7723,-0.0426,-0.0349,0.9966,-0.1643,0.3272,0.1354,-0.2983,0.2204,0.0082,0.0438,0.2204,0.0082,0.0438,0.3000,0.0500,0.0002,0,-1.3605,0.0000,-0.0010,-1.3605,0.0000,-0.0010
104.6270,37.2242,46.2317,-0.0686,-0.0686,0.1200,0.0000,0.0000,0.0000,-0.2314,-0.0821,-0.0165,996,1502,1500,1500,1000,1000,1505,1000,1000,1505,1005,1000,1505,-2.2134,0.1150,1.6268,-0.0776,0.0411,1.0020,-0.1658,0.3300,0.1328,-0.2970,0.2204,0.0082,0.0438,0.2204,0.0082,0.0438,0.3000,0.0500,0.0002,0,-1.3605,0.0000,-0.0010,-1.3605,0.0000,-0.0010
104.5894,37.2270,46.2170,0.0686,0.0686,0.1200,0.0000,0.0000,0.0000,-0.2319,-0.0823,-0.0135,996,1502,1500,1500,1000,1000,1505,1000,1000,1505,1005,1000,1505,-0.9611,0.6278,0.3333,-0.0146,0.0399,0.9760,-0.1630,0.3277,0.1361,-0.3007,0.2204,0.0082,0.0438,0.2204,0.0082,0.0438,0.3000,0.0500,0.0002,0,-1.3605,0.0000,-0.0010,-1.3605,0.0000,-0.0010
104.5502,37.2306,46.2027,0.0000,-0.0686,0.1200,0.0000,0.0000,0.0000,-0.2316,-0.0817,-0.0152,998,1504,1501,1501,1000,1000,1505,1000,1000,1505,1005,1000,1505,-1.4828,-0.7183,0.6931,0.1015,-0.1070,0.9898,-0.1650,0.3285,0.1347,-0.2981,0.2204,0.0082,0.0438,0.2204,0.0082,0.0438,0.3000,0.0500,0.0002,0,-1.3605,0.0000,-0.0010,-1.3605,0.0000,-0.0010
104.5076,37.2187,46.1834,0.0686,-0.0686,0.1200,0.0000,0.0000,0.0000,-0.2316,-0.0818,-0.0138,996,1502,1500,1500,1000,1000,1505,1000,1000,1505,1005,1000,1505,-1.2825,-0.4833,0.6555,0.0064,-0.2008,0.9896,-0.1635,0.3271,0.1360,-0.2996,0.2204,0.0082,0.0438,0.2204,0.0082,0.0438,0.3000,0.0500,0.0002,0,-1.3605,0.0000,-0.0010,-1.3605,0.0000,-0.0010
104.4710,37.2142,46.1635,0.0686,0.0686,0.1200,0.0000,0.0000,0.0000,-0.2315,-0.0820,-0.0115,996,1502,1500,1500,1000,1000,1505,1000,1000,1505,1005,1000,1505,-1.1981,-0.0846,-0.0837,-0.0971,-0.0065,1.0109,-0.1610,0.3250,0.1380,-0.3020,0.2204,0.0082,0.0438,0.2204,0.0082,0.0438,0.3000,0.0500,0.0002,0,-1.3605,0.0000,-0.0010,-1.3605,0.0000,-0.0010
104.4377,37.2263,46.1432,0.0686,0.0686,0.1200,0.0000,0.0000,0.0000,-0.2313,-0.0816,-0.0116,996,1502,1500,1500,1000,1000,1505,1000,1000,1505,1005,1000,1505,-1.5998,-1.0568,-0.1693,-0.0353,0.0869,0.9912,-0.1613,0.3245,0.1381,-0.3012,0.2204,0.0082,0.0438,0.2204,0.0082,0.0438,0.3000,0.0500,0.0002,0,-1.3605,0.0000,-0.0010,-1.3605,0.0000,-0.0010
104.4098,37.2379,46.1275,0.0000,-0.0000,0.1200,0.0000,0.0000,0.0000,-0.2322,-0.0822,-0.0137,996,1502,1500,1500,1000,1000,1505,1000,1000,1505,1005,1000,1505,0.6994,0.3527,0.3059,0.0393,-0.0083,0.9588,-0.1637,0.3282,0.1362,-0.3007,0.2204,0.0082,0.0438,0.2204,0.0082,0.0438,0.3000,0.0500,0.0002,0,-1.3605,0.0000,-0.0010,-1.3605,0.0000,-0.0010
104.3785,37.2438,46.1083,0.0686,0.0686,0.1200,0.0000,0.0000,0.0000,-0.2319,-0.0819,-0.0099,996,1502,1500,1500,1000,1000,1505,1000,1000,1505,1005,1000,1505,0.0389,-0.3651,-0.8634,0.0658,-0.1238,1.0008,-0.1598,0.3237,0.1400,-0.3039,0.2204,0.0082,0.0438,0.2204,0.0082,0.0438,0.3000,0.0500,0.0002,0,-1.3605,0.0000,-0.0010,-1.3605,0.0000,-0.0010
104.3509,37.2530,46.0950,0.0686,-0.0000,0.1200,0.0000,0.0000,0.0000,-0.2312,-0.0818,-0.0077,998,1504,1501,1501,1000,1000,1505,1000,1000,1505,1005,1000,1505,-1.4232,-0.7218,-1.3899,-0.0050,-0.1174,1.0251,-0.1571,0.3207,0.1416,-0.3052,0.2204,0.0082,0.0438,0.2204,0.0082,0.0438,0.3000,0.0500,0.0002,0,-1.3605,0.0000,-0.0010,-1.3605,0.0000,-0.0010
104.3277,37.2595,46.0869,0.0686,0.0686,0.1200,0.0000,0.0000,0.0000,-0.2315,-0.0825,-0.0123,996,1502,1500,1500,1000,1000,1505,1000,1000,1505,1005,1000,1505,-0.4063,0.9348,0.1217,-0.0982,-0.0096,0.9807,-0.1614,0.3264,0.1367,-0.3017,0.2204,0.0082,0.0438,0.2204,0.0082,0.0438,0.3000,0.0500,0.0002,0,-1.3605,0.0000,-0.0010,-1.3605,0.0000,-0.0010
104.2970,37.2586,46.0722,0.0000,0.1371,0.1200,0.0000,0.0000,0.0000,-0.2311,-0.0820,-0.0167,996,1502,1500,1500,1000,1000,1505,1000,1000,1505,1005,1000,1505,-1.2411,-0.2311,1.4786,-0.0325,0.0879,0.9843,-0.1658,0.3299,0.1324,-0.2964,0.2204,0.0082,0.0438,0.2204,0.0082,0.0438,0.3000,0.0500,0.0002,0,-1.3605,0.0000,-0.0010,-1.3605,0.0000,-0.0010
104.2579,37.2586,46.0541,0.1371,0.0686,0.1200,0.0000,0.0000,0.0000,-0.2311,-0.0819,-0.0136,996,1502,1500,1500,1000,1000,1505,1000,1000,1505,1005,1000,1505,-1.0664,-0.4325,0.3363,0.0899,-0.0551,0.9955,-0.1628,0.3266,0.1356,-0.2994,0.2204,0.0082,0.0438,0.2204,0.0082,0.0438,0.3000,0.0500,0.0002,0,-1.3605,0.0000,-0.0010,-1.3605,0.0000,-0.0010
104.2187,37.2613,46.0379,0.0000,-0.0000,0.1200,0.0000,0.0000,0.0000,-0.2312,-0.0823,-0.0103,996,1502,1500,1500,1000,1000,1505,1000,1000,1505,1005,1000,1505,-0.5982,0.3818,-0.6731,0.0142,-0.1876,0.9976,-0.1592,0.3238,0.1387,-0.3033,0.2204,0.0082,0.0438,0.2204,0.0082,0.0438,0.3000,0.0500,0.0002,0,-1.3605,0.0000,-0.0010,-1.3605,0.0000,-0.0010
104.1784,37.2612,46.0186,-0.0686,0.0686,0.1200,0.0000,0.0000,0.0000,-0.2302,-0.0815,-0.0128,996,1502,1500,1500,1000,1000,1505,1000,1000,1505,1005,1000,1505,-2.7205,-1.3567,0.2379,-0.0326,-0.0228,0.9950,-0.1614,0.3245,0.1359,-0.2990,0.2204,0.0082,0.0438,0.2204,0.0082,0.0438,0.3000,0.0500,0.0002,0,-1.3605,0.0000,-0.0010,-1.3605,0.0000,-0.0010
104.1335,37.2622,45.9968,0.0000,-0.0000,0.1200,0.0000,0.0000,0.0000,-0.2302,-0.0819,-0.0123,998,1504,1501,1501,1000,1000,1505,1000,1000,1505,1005,1000,1505,-2.5975,-0.6136,0.2173,-0.0738,0.0635,0.9884,-0.1606,0.3243,0.1360,-0.2997,0.2204,0.0082,0.0438,0.2204,0.0082,0.0438,0.3000,0.0500,0.0002,0,-1.3605,0.0000,-0.0010,-1.3605,0.0000,-0.0010
104.0903,37.2709,45.9772,0.0000,0.1371,0.1200,0.0000,0.0000,0.0000,-0.2311,-0.0823,-0.0121,996,1502,1500,1500,1000,1000,1505,1000,1000,1505,1005,1000,1505,-0.3243,0.2869,-0.1115,-0.0223,0.0551,0.9561,-0.1609,0.3255,0.1367,-0.3012,0.2204,0.0082,0.0438,0.2204,0.0082,0.0438,0.3000,0.0500,0.0002,0,-1.3605,0.0000,-0.0010,-1.3605,0.0000,-0.0010
104.0511,37.2761,45.9602,0.0000,-0.0000,0.1200,0.0000,0.0000,0.0000,-0.2308,-0.0820,-0.0133,996,1502,1500,1500,1000,1000,1505,1000,1000,1505,1005,1000,1505,-0.6352,-0.3014,0.2243,0.0480,-0.0787,1.0095,-0.1621,0.3261,0.1355,-0.2996,0.2204,0.0082,0.0438,0.2204,0.0082,0.0438,0.3000,0.0500,0.0002,0,-1.3605,0.0000,-0.0010,-1.3605,0.0000,-0.0010
104.0147,37.2739,45.9406,0.0000,-0.0000,0.1200,0.0000,0.0000,0.0000,-0.2308,-0.0820,-0.0133,996,1502,1500,1500,1000,1000,1505,1000,1000,1505,1005,1000,1505,-0.6458,-0.3475,0.4698,0.0699,-0.2419,1.0133,-0.1621,0.3261,0.1354,-0.2994,0.2204,0.0082,0.0438,0.2204,0.0082,0.0438,0.3000,0.0500,0.0002,0,-1.3605,0.0000,-0.0010,-1.3605,0.0000,-0.0010
103.9928,37.2732,45.9274,0.0686,0.0686,0.1200,0.0000,0.0000,0.0000,-0.2311,-0.0823,-0.0127,996,1502,1500,1500,1000,1000,1505,1000,1000,1505,1005,1000,1505,0.2453,0.4265,0.1624,-0.0591,-0.0878,0.9933,-0.1615,0.3261,0.1361,-0.3007,0.2204,0.0082,0.0438,0.2204,0.0082,0.0438,0.3000,0.0500,0.0002,0,-1.3605,0.0000,-0.0010,-1.3605,0.0000,-0.0010
103.9730,37.2789,45.9101,0.0000,-0.1371,0.1200,0.0000,0.0000,0.0000,-0.2305,-0.0816,-0.0129,996,1502,1500,1500,1000,1000,1505,1000,1000,1505,1005,1000,1505,-1.0473,-1.2977,0.1726,-0.0579,0.1474,0.9854,-0.1618,0.3250,0.1360,-0.2992,0.2204,0.0082,0.0438,0.2204,0.0082,0.0438,0.3000,0.0500,0.0002,0,-1.3605,0.0000,-0.0010,-1.3605,0.0000,-0.0010
103.9499,37.2820,45.8905,0.0686,0.0686,0.1200,0.0000,0.0000,0.0000,-0.2311,-0.0821,-0.0132,998,1504,1501,1501,1000,1000,1505,1000,1000,1505,1005,1000,1505,0.4018,-0.1989,0.3029,0.0165,0.0287,0.9867,-0.1622,0.3264,0.1358,-0.2999,0.2204,0.0082,0.0438,0.2204,0.0082,0.0438,0.3000,0.0500,0.0002,0,-1.3605,0.0000,-0.0010,-1.3605,0.0000,-0.0010
103.9231,37.2852,45.8694,0.0000,-0.0686,0.1200,0.0000,0.0000,0.0000,-0.2315,-0.0822,-0.0098,996,1502,1500,1500,1000,1000,1505,1000,1000,1505,1005,1000,1505,1.5294,0.0752,-0.7771,-0.0064,-0.1540,0.9837,-0.1591,0.3235,0.1395,-0.3039,0.2204,0.0082,0.0438,0.2204,0.0082,0.0438,0.3000,0.0500,0.0002,0,-1.3605,0.0000,-0.0010,-1.3605,0.0000,-0.0010
103.8903,37.2957,45.8469,0.0686,-0.0000,0.1200,0.0000,0.0000,0.0000,-0.2300,-0.0812,-0.0096,996,1502,1500,1500,1000,1000,1505,1000,1000,1505,1005,1000,1505,-1.7548,-2.2489,-0.8466,0.0374,-0.0946,1.0193,-0.1583,0.3208,0.1392,-0.3017,0.2204,0.0082,0.0438,0.2204,0.0082,0.0438,0.3000,0.0500,0.0002,0,-1.3605,0.0000,-0.0010,-1.3605,0.0000,-0.0010
103.8557,37.3064,45.8263,0.0686,0.0686,0.1200,0.0000,0.0000,0.0000,-0.2299,-0.0820,-0.0119,996,1502,1500,1500,1000,1000,1505,1000,1000,1505,1005,1000,1505,-1.7427,-0.6207,-0.0434,-0.0214,-0.0126,0.9907,-0.1598,0.3237,0.1361,-0.3000,0.2204,0.0082,0.0438,0.2204,0.0082,0.0438,0.3000,0.0500,0.0002,0,-1.3605,0.0000,-0.0010,-1.3605,0.0000,-0.0010
103.8222,37.3128,45.8066,0.0686,0.0686,0.1200,0.0000,0.0000,0.0000,-0.2306,-0.0824,-0.0137,996,1502,1500,1500,1000,1000,1505,1000,1000,1505,1005,1000,1505,-0.1006,0.3838,0.3786,-0.0563,0.0713,0.9679,-0.1619,0.3267,0.1344,-0.2992,0.2204,0.0082,0.0438,0.2204,0.0082,0.0438,0.3000,0.0500,0.0002,0,-1.3605,0.0000,-0.0010,-1.3605,0.0000,-0.0010
103.7832,37.3209,45.7847,-0.0686,0.0686,0.1200,0.0000,0.0000,0.0000,-0.2299,-0.0815,-0.0105,996,1502,1500,1500,1000,1000,1505,1000,1000,1505,1005,1000,1505,-1.3542,-1.7382,-0.6941,0.0552,-0.0226,1.0129,-0.1590,0.3220,0.1379,-0.3009,0.2204,0.0082,0.0438,0.2204,0.0082,0.0438,0.3000,0.0500,0.0002,0,-1.3605,0.0000,-0.0010,-1.3605,0.0000,-0.0010
103.7499,37.3275,45.7651,0.0000,-0.0000,0.1200,0.0000,0.0000,0.0000,-0.2303,-0.0820,-0.0097,998,1504,1501,1501,1000,1000,1505,1000,1000,1505,1005,1000,1505,-0.4082,-0.6465,-0.7413,0.0421,-0.2030,1.0209,-0.1579,0.3219,0.1386,-0.3026,0.2204,0.0082,0.0438,0.2204,0.0082,0.0438,0.3000,0.0500,0.0002,0,-1.3605,0.0000,-0.0010,-1.3605,0.0000,-0.0010
103.7220,37.3267,45.7438,0.0000,0.1371,0.1200,0.0000,0.0000,0.0000,-0.2305,-0.0823,-0.0147,996,1502,1500,1500,1000,1000,1505,1000,1000,1505,1005,1000,1505,0.2831,0.0364,0.8404,-0.0519,-0.0844,0.9827,-0.1629,0.3275,0.1336,-0.2981,0.2204,0.0082,0.0438,0.2204,0.0082,0.0438,0.3000,0.0500,0.0002,0,-1.3605,0.0000,-0.0010,-1.3605,0.0000,-0.0010
103.6949,37.3259,45.7180,0.0000,0.0686,0.1200,0.0000,0.0000,0.0000,-0.2299,-0.0817,-0.0154,996,1502,1500,1500,1000,1000,1505,1000,1000,1505,1005,1000,1505,-0.9190,-1.3910,1.0748,-0.0477,0.1127,0.9777,-0.1636,0.3270,0.1329,-0.2962,0.2204,0.0082,0.0438,0.2204,0.0082,0.0438,0.3000,0.0500,0.0002,0,-1.3605,0.0000,-0.0010,-1.3605,0.0000,-0.0010
103.6678,37.3314,45.6950,-0.0686,0.0686,0.1200,0.0000,0.0000,0.0000,-0.2303,-0.0819,-0.0125,996,1502,1500,1500,1000,1000,1505,1000,1000,1505,1005,1000,1505,0.1537,-0.8748,0.0043,0.0807,-0.0217,0.9930,-0.1610,0.3248,0.1359,-0.2997,0.2204,0.0082,0.0438,0.2204,0.0082,0.0438,0.3000,0.0500,0.0002,0,-1.3605,0.0000,-0.0010,-1.3605,0.0000,-0.0010
103.6406,37.3349,45.6740,0.0686,0.0686,0.1200,0.0000,0.0000,0.0000,-0.2305,-0.0823,-0.0115,996,1502,1500,1500,1000,1000,1505,1000,1000,1505,1005,1000,1505,0.6734,-0.0658,-0.3032,0.0251,-0.1871,1.0008,-0.1597,0.3242,0.1368,-0.3013,0.2204,0.0082,0.0438,0.2204,0.0082,0.0438,0.3000,0.0500,0.0002,0,-1.3605,0.0000,-0.0010,-1.3605,0.0000,-0.0010
103.6088,37.3349,45.6535,0.0000,0.0686,0.1200,0.0000,0.0000,0.0000,-0.2295,-0.0816,-0.0118,996,1502,1500,1500,1000,1000,1505,1000,1000,1505,1005,1000,1505,-1.5239,-1.4758,0.0067,-0.0198,-0.0626,1.0138,-0.1597,0.3230,0.1360,-0.2993,0.2204,0.0082,0.0438,0.2204,0.0082,0.0438,0.3000,0.0500,0.0002,0,-1.3605,0.0000,-0.0010,-1.3605,0.0000,-0.0010
103.5794,37.3407,45.6371,0.0686,0.0686,0.1200,0.0000,0.0000,0.0000,-0.2295,-0.0823,-0.0112,998,1504,1501,1501,1000,1000,1505,1000,1000,1505,1005,1000,1505,-1.2616,-0.1082,-0.1900,-0.0599,0.0360,0.9969,-0.1585,0.3230,0.1361,-0.3006,0.2204,0.0082,0.0438,0.2204,0.0082,0.0438,0.3000,0.0500,0.0002,0,-1.3605,0.0000,-0.0010,-1.3605,0.0000,-0.0010
103.5493,37.3505,45.6211,0.1371,0.1371,0.1200,0.0000,0.0000,0.0000,-0.2301,-0.0826,-0.0129,996,1502,1500,1500,1000,1000,1505,1000,1000,1505,1005,1000,1505,0.3069,0.7225,0.0575,-0.0239,0.0196,0.9580,-0.1604,0.3257,0.1346,-0.2999,0.2204,0.0082,0.0438,0.2204,0.0082,0.0438,0.3000,0.0500,0.0002,0,-1.3605,0.0000,-0.0010,-1.3605,0.0000,-0.0010
103.5148,37.3558,45.6031,0.1371,0.1371,0.1200,0.0000,0.0000,0.0000,-0.2296,-0.0820,-0.0119,996,1502,1500,1500,1000,1000,1505,1000,1000,1505,1005,1000,1505,-0.7499,-0.6460,-0.2145,0.0556,-0.0750,0.9942,-0.1595,0.3236,0.1356,-0.2997,0.2204,0.0082,0.0438,0.2204,0.0082,0.0438,0.3000,0.0500,0.0002,0,-1.3605,0.0000,-0.0010,-1.3605,0.0000,-0.0010
103.4759,37.3591,45.5820,0.0686,0.1371,0.1200,0.0000,0.0000,0.0000,-0.2291,-0.0818,-0.0102,996,1502,1500,1500,1000,1000,1505,1000,1000,1505,1005,1000,1505,-1.7340,-1.2660,-0.5254,0.0492,-0.1787,1.0315,-0.1575,0.3210,0.1371,-0.3007,0.2204,0.0082,0.0438,0.2204,0.0082,0.0438,0.3000,0.0500,0.0002,0,-1.3605,0.0000,-0.0010,-1.3605,0.0000,-0.0010
103.4436,37.3658,45.5662,0.0686,0.0686,0.1200,0.0000,0.0000,0.0000,-0.2294,-0.0824,-0.0113,996,1502,1500,1500,1000,1000,1505,1000,1000,1505,1005,1000,1505,-0.7976,0.1544,-0.3042,-0.0609,-0.0498,0.9912,-0.1583,0.3231,0.1357,-0.3006,0.2204,0.0082,0.0438,0.2204,0.0082,0.0438,0.3000,0.0500,0.0002,0,-1.3605,0.0000,-0.0010,-1.3605,0.0000,-0.0010
103.4105,37.3709,45.5481,0.0686,-0.0000,0.1200,0.0000,0.0000,0.0000,-0.2292,-0.0822,-0.0141,996,1502,1500,1500,1000,1000,1505,1000,1000,1505,1005,1000,1505,-1.0797,-0.4321,0.5410,-0.0787,0.1583,0.9479,-0.1612,0.3255,0.1329,-0.2973,0.2204,0.0082,0.0438,0.2204,0.0082,0.0438,0.3000,0.0500,0.0002,0,-1.3605,0.0000,-0.0010,-1.3605,0.0000,-0.0010
103.3744,37.3729,45.5282,-0.0686,-0.0686,0.1200,0.0000,0.0000,0.0000,-0.2291,-0.0821,-0.0121,998,1504,1501,1501,1000,1000,1505,1000,1000,1505,1005,1000,1505,-1.1502,-0.5863,-0.0493,0.0593,0.0174,1.0069,-0.1591,0.3233,0.1349,-0.2991,0.2204,0.0082,0.0438,0.2204,0.0082,0.0438,0.3000,0.0500,0.0002,0,-1.3605,0.0000,-0.0010,-1.3605,0.0000,-0.0010
103.3401,37.3767,45.5095,0.0686,0.0686,0.1200,0.0000,0.0000,0.0000,-0.2299,-0.0826,-0.0104,996,1502,1500,1500,1000,1000,1505,1000,1000,1505,1005,1000,1505,0.8784,0.5830,-0.5105,0.0133,-0.2567,1.0031,-0.1577,0.3230,0.1368,-0.3021,0.2204,0.0082,0.0438,0.2204,0.0082,0.0438,0.3000,0.0500,0.0002,0,-1.3605,0.0000,-0.0010,-1.3605,0.0000,-0.0010
103.3124,37.3771,45.4929,-0.0686,-0.0686,0.1200,0.0000,0.0000,0.0000,-0.2292,-0.0817,-0.0180,996,1502,1500,1500,1000,1000,1505,1000,1000,1505,1005,1000,1505,-0.6104,-1.4977,1.7759,-0.0049,-0.1042,1.0006,-0.1655,0.3290,0.1294,-0.2929,0.2204,0.0082,0.0438,0.2204,0.0082,0.0438,0.3000,0.0500,0.0002,0,-1.3605,0.0000,-0.0010,-1.3605,0.0000,-0.0010
103.2787,37.3433,45.4642,0.0686,0.2057,0.1200,0.0000,0.0000,0.0000,-0.2285,-0.0818,-0.0301,996,1502,1500,1500,1000,1000,1505,1000,1000,1505,1005,1000,1505,-2.1651,-1.2233,5.8962,0.0022,0.0886,0.9913,-0.1768,0.3403,0.1166,-0.2801,0.2204,0.0082,0.0438,0.2204,0.0082,0.0438,0.3000,0.0500,0.0002,0,-1.3605,0.0000,-0.0010,-1.3605,0.0000,-0.0010
103.2316,37.2797,45.4260,-0.0686,0.1371,0.1200,0.0000,0.0000,0.0000,-0.2289,-0.0825,-0.0378,996,1502,1500,1500,1000,1000,1505,1000,1000,1505,1005,1000,1505,-0.9357,0.8354,8.1540,0.0362,-0.0154,0.9661,-0.1841,0.3492,0.1086,-0.2737,0.2204,0.0082,0.0438,0.2204,0.0082,0.0438,0.3000,0.0500,0.0002,0,-1.3605,0.0000,-0.0010,-1.3605,0.0000,-0.0010
103.1835,37.1915,45.3915,-0.0686,0.1371,0.1200,0.0000,0.0000,0.0000,-0.2285,-0.0824,-0.0378,996,1502,1500,1500,1000,1000,1505,1000,1000,1505,1005,1000,1505,-1.6003,0.9579,8.4910,0.0204,-0.0942,1.0163,-0.1840,0.3487,0.1083,-0.2731,0.2204,0.0082,0.0438,0.2204,0.0082,0.0438,0.3000,0.0500,0.0002,0,-1.3605,0.0000,-0.0010,-1.3605,0.0000,-0.0010
103.1150,37.0938,45.3608,-0.0686,0.2057,0.1200,0.0000,0.0000,0.0000,-0.2270,-0.0820,-0.0399,998,1504,1501,1501,1000,1000,1505,1000,1000,1505,1005,1000,1505,-4.6851,0.6183,9.2922,0.0183,-0.1237,1.0268,-0.1849,0.3490,0.1050,-0.2691,0.2204,0.0082,0.0438,0.2204,0.0082,0.0438,0.3000,0.0500,0.0002,0,-1.3605,0.0000,-0.0010,-1.3605,0.0000,-0.0010
103.0535,37.0204,45.3436,-0.0686,0.0686,0.1200,0.0000,0.0000,0.0000,-0.2270,-0.0820,-0.0269,996,1502,1500,1500,1000,1000,1505,1000,1000,1505,1005,1000,1505,-4.3777,1.0409,5.2370,-0.0444,-0.0803,0.9983,-0.1718,0.3359,0.1181,-0.2822,0.2204,0.0082,0.0438,0.2204,0.0082,0.0438,0.3000,0.0500,0.0002,0,-1.3605,0.0000,-0.0010,-1.3605,0.0000,-0.0010
102.9959,37.0104,45.3316,0.0000,0.0686,0.1200,0.0000,0.0000,0.0000,-0.2276,-0.0814,-0.0085,996,1502,1500,1500,1000,1000,1505,1000,1000,1505,1005,1000,1505,-2.7555,-0.4297,-1.1613,-0.0625,0.0315,0.9827,-0.1547,0.3175,0.1377,-0.3004,0.2204,0.0082,0.0438,0.2204,0.0082,0.0438,0.3000,0.0500,0.0002,0,-1.3605,0.0000,-0.0010,-1.3605,0.0000,-0.0010
102.9488,37.0553,45.3100,0.0000,0.0686,0.1200,0.0000,0.0000,0.0000,-0.2281,-0.0806,0.0028,996,1502,1500,1500,1000,1000,1505,1000,1000,1505,1005,1000,1505,-1.3914,-2.4292,-5.1026,0.0736,-0.1037,0.9835,-0.1447,0.3059,0.1502,-0.3115,0.2204,0.0082,0.0438,0.2204,0.0082,0.0438,0.3000,0.0500,0.0002,0,-1.3605,0.0000,-0.0010,-1.3605,0.0000,-0.0010
102.9224,37.1307,45.2889,0.0686,0.0686,0.1200,0.0000,0.0000,0.0000,-0.2298,-0.0811,0.0140,996,1502,1500,1500,1000,1000,1505,1000,1000,1505,1005,1000,1505,2.7109,-1.5787,-8.6128,-0.0540,-0.1698,0.9835,-0.1347,0.2970,0.1627,-0.3249,0.2204,0.0082,0.0438,0.2204,0.0082,0.0438,0.3000,0.0500,0.0002,0,-1.3605,0.0000,-0.0010,-1.3605,0.0000,-0.0010
102.9167,37.2218,45.2654,0.0000,0.0686,0.1200,0.0000,0.0000,0.0000,-0.2291,-0.0807,0.0146,996,1502,1500,1500,1000,1000,1505,1000,1000,1505,1005,1000,1505,1.0903,-3.0131,-8.8598,0.0445,-0.0826,1.0683,-0.1337,0.2952,0.1630,-0.3245,0.2204,0.0082,0.0438,0.2204,0.0082,0.0438,0.3000,0.0500,0.0002,0,-1.3605,0.0000,-0.0010,-1.3605,0.0000,-0.0010
102.9280,37.3158,45.2607,0.0686,0.0686,0.1200,0.0000,0.0000,0.0000,-0.2298,-0.0822,0.0125,998,1504,1501,1501,1000,1000,1505,1000,1000,1505,1005,1000,1505,2.5762,-0.1241,-8.2387,-0.0687,-0.0006,0.9783,-0.1351,0.2995,0.1600,-0.3244,0.2204,0.0082,0.0438,0.2204,0.0082,0.0438,0.3000,0.0500,0.0002,0,-1.3605,0.0000,-0.0010,-1.3605,0.0000,-0.0010
102.9448,37.4046,45.2642,0.0000,0.0686,0.1200,0.0000,0.0000,0.0000,-0.2300,-0.0826,0.0073,996,1502,1500,1500,1000,1000,1505,1000,1000,1505,1005,1000,1505,3.0692,0.4098,-6.7421,-0.0044,0.0754,0.9588,-0.1401,0.3054,0.1547,-0.3199,0.2204,0.0082,0.0438,0.2204,0.0082,0.0438,0.3000,0.0500,0.0002,0,-1.3605,0.0000,-0.0010,-1.3605,0.0000,-0.0010
102.9533,37.4757,45.2767,0.0686,0.0686,0.1200,0.0000,0.0000,0.0000,-0.2290,-0.0822,0.0050,996,1502,1500,1500,1000,1000,1505,1000,1000,1505,1005,1000,1505,0.6974,-0.8673,-5.9887,0.0892,-0.0411,0.9910,-0.1418,0.3062,0.1518,-0.3162,0.2204,0.0082,0.0438,0.2204,0.0082,0.0438,0.3000,0.0500,0.0002,0,-1.3605,0.0000,-0.0010,-1.3605,0.0000,-0.0010
102.9527,37.5233,45.2846,0.0000,0.1371,0.1200,0.0000,0.0000,0.0000,-0.2289,-0.0830,0.0002,996,1502,1500,1500,1000,1000,1505,1000,1000,1505,1005,1000,1505,0.4390,0.6807,-4.1518,0.0039,-0.1708,1.0431,-0.1457,0.3117,0.1461,-0.3121,0.2204,0.0082,0.0438,0.2204,0.0082,0.0438,0.3000,0.0500,0.0002,0,-1.3605,0.0000,-0.0010,-1.3605,0.0000,-0.0010
102.9385,37.5478,45.2847,0.0000,0.1371,0.1200,0.0000,0.0000,0.0000,-0.2284,-0.0832,-0.0095,996,1502,1500,1500,1000,1000,1505,1000,1000,1505,1005,1000,1505,-0.5351,0.9029,-1.0336,-0.0577,-0.0744,0.9739,-0.1547,0.3210,0.1358,-0.3021,0.2204,0.0082,0.0438,0.2204,0.0082,0.0438,0.3000,0.0500,0.0002,0,-1.3605,0.0000,-0.0010,-1.3605,0.0000,-0.0010
102.9097,37.5525,45.2718,0.0686,0.1371,0.1200,0.0000,0.0000,0.0000,-0.2279,-0.0825,-0.0167,996,1502,1500,1500,1000,1000,1505,1000,1000,1505,1005,1000,1505,-1.5977,-0.5350,1.4190,-0.0350,0.1580,0.9638,-0.1621,0.3272,0.1286,-0.2937,0.2204,0.0082,0.0438,0.2204,0.0082,0.0438,0.3000,0.0500,0.0002,0,-1.3605,0.0000,-0.0010,-1.3605,0.0000,-0.0010
102.8620,37.5402,45.2457,0.0000,0.0686,0.1200,0.0000,0.0000,0.0000,-0.2274,-0.0822,-0.0181,998,1504,1501,1501,1000,1000,1505,1000,1000,1505,1005,1000,1505,-2.4450,-1.2783,1.9287,0.0745,0.0034,0.9979,-0.1633,0.3277,0.1272,-0.2915,0.2204,0.0082,0.0438,0.2204,0.0082,0.0438,0.3000,0.0500,0.0002,0,-1.3605,0.0000,-0.0010,-1.3605,0.0000,-0.0010
102.8143,37.5160,45.2136,-0.0686,0.0686,0.1200,0.0000,0.0000,0.0000,-0.2276,-0.0824,-0.0196,996,1502,1500,1500,1000,1000,1505,1000,1000,1505,1005,1000,1505,-1.7381,-0.7079,2.5897,0.0300,-0.2389,1.0434,-0.1648,0.3296,0.1257,-0.2904,0.2204,0.0082,0.0438,0.2204,0.0082,0.0438,0.3000,0.0500,0.0002,0,-1.3605,0.0000,-0.0010,-1.3605,0.0000,-0.0010
102.7733,37.4907,45.1830,-0.0686,0.1371,0.1200,0.0000,0.0000,0.0000,-0.2285,-0.0825,-0.0213,996,1502,1500,1500,1000,1000,1505,1000,1000,1505,1005,1000,1505,0.4883,-0.2708,3.1138,-0.0583,-0.1428,0.9816,-0.1673,0.3323,0.1247,-0.2897,0.2204,0.0082,0.0438,0.2204,0.0082,0.0438,0.3000,0.0500,0.0002,0,-1.3605,0.0000,-0.0010,-1.3605,0.0000,-0.0010
102.7376,37.4711,45.1554,-0.0686,-0.0000,0.1200,0.0000,0.0000,0.0000,-0.2283,-0.0822,-0.0209,996,1502,1500,1500,1000,1000,1505,1000,1000,1505,1005,1000,1505,0.2101,-0.8555,2.8109,-0.0762,0.1309,0.9578,-0.1670,0.3314,0.1252,-0.2896,0.2204,0.0082,0.0438,0.2204,0.0082,0.0438,0.3000,0.0500,0.0002,0,-1.3605,0.0000,-0.0010,-1.3605,0.0000,-0.0010
102.7082,37.4565,45.1294,0.0000,0.0686,0.1200,0.0000,0.0000,0.0000,-0.2280,-0.0822,-0.0157,996,1502,1500,1500,1000,1000,1505,1000,1000,1505,1005,1000,1505,-0.3899,-0.7032,1.1635,0.0552,0.0083,0.9903,-0.1615,0.3260,0.1300,-0.2945,0.2204,0.0082,0.0438,0.2204,0.0082,0.0438,0.3000,0.0500,0.0002,0,-1.3605,0.0000,-0.0010,-1.3605,0.0000,-0.0010
102.6847,37.4493,45.1036,-0.0686,-0.0686,0.1200,0.0000,0.0000,0.0000,-0.2286,-0.0827,-0.0126,996,1502,1500,1500,1000,1000,1505,1000,1000,1505,1005,1000,1505,1.2429,0.2941,0.2036,0.0382,-0.2507,1.0109,-0.1586,0.3239,0.1334,-0.2987,0.2204,0.0082,0.0438,0.2204,0.0082,0.0438,0.3000,0.0500,0.0002,0,-1.3605,0.0000,-0.0010,-1.3605,0.0000,-0.0010
102.6689,37.4500,45.0845,0.0686,0.1371,0.1200,0.0000,0.0000,0.0000,-0.2286,-0.0823,-0.0121,998,1504,1501,1501,1000,1000,1505,1000,1000,1505,1005,1000,1505,1.2697,-0.4728,0.0116,-0.0438,-0.1059,0.9899,-0.1584,0.3230,0.1342,-0.2989,0.2204,0.0082,0.0438,0.2204,0.0082,0.0438,0.3000,0.0500,0.0002,0,-1.3605,0.0000,-0.0010,-1.3605,0.0000,-0.0010
102.6525,37.4592,45.0656,0.0686,0.0686,0.1200,0.0000,0.0000,0.0000,-0.2279,-0.0820,-0.0114,996,1502,1500,1500,1000,1000,1505,1000,1000,1505,1005,1000,1505,-0.3003,-1.1929,-0.2344,-0.0195,0.1404,1.0020,-0.1573,0.3213,0.1345,-0.2985,0.2204,0.0082,0.0438,0.2204,0.0082,0.0438,0.3000,0.0500,0.0002,0,-1.3605,0.0000,-0.0010,-1.3605,0.0000,-0.0010
102.6340,37.4720,45.0469,0.0686,0.0686,0.1200,0.0000,0.0000,0.0000,-0.2284,-0.0828,-0.0099,996,1502,1500,1500,1000,1000,1505,1000,1000,1505,1005,1000,1505,0.8362,0.3979,-0.8646,0.0279,0.0168,0.9820,-0.1555,0.3210,0.1357,-0.3012,0.2204,0.0082,0.0438,0.2204,0.0082,0.0438,0.3000,0.0500,0.0002,0,-1.3605,0.0000,-0.0010,-1.3605,0.0000,-0.0010
102.6128,37.4833,45.0317,0.0686,0.0686,0.1200,0.0000,0.0000,0.0000,-0.2285,-0.0827,-0.0085,996,1502,1500,1500,1000,1000,1505,1000,1000,1505,1005,1000,1505,1.3385,0.2659,-1.2583,-0.0155,-0.1490,0.9834,-0.1543,0.3198,0.1373,-0.3027,0.2204,0.0082,0.0438,0.2204,0.0082,0.0438,0.3000,0.0500,0.0002,0,-1.3605,0.0000,-0.0010,-1.3605,0.0000,-0.0010
102.5870,37.4926,45.0172,0.0686,0.0686,0.1200,0.0000,0.0000,0.0000,-0.2272,-0.0819,-0.0100,996,1502,1500,1500,1000,1000,1505,1000,1000,1505,1005,1000,1505,-1.5521,-1.6964,-0.6757,0.0157,-0.0986,1.0199,-0.1553,0.3191,0.1353,-0.2991,0.2204,0.0082,0.0438,0.2204,0.0082,0.0438,0.3000,0.0500,0.0002,0,-1.3605,0.0000,-0.0010,-1.3605,0.0000,-0.0010
102.5597,37.4991,45.0026,-0.0686,0.0686,0.1200,0.0000,0.0000,0.0000,-0.2275,-0.0827,-0.0128,996,1502,1500,1500,1000,1000,1505,1000,1000,1505,1005,1000,1505,-0.7856,0.1118,0.2616,-0.0324,-0.0079,0.9935,-0.1576,0.3230,0.1319,-0.2973,0.2204,0.0082,0.0438,0.2204,0.0082,0.0438,0.3000,0.0500,0.0002,0,-1.3605,0.0000,-0.0010,-1.3605,0.0000,-0.0010
102.5345,37.5039,44.9862,-0.0686,0.0686,0.1200,0.0000,0.0000,0.0000,-0.2281,-0.0831,-0.0145,998,1504,1501,1501,1000,1000,1505,1000,1000,1505,1005,1000,1505,0.7748,0.9928,0.5792,-0.0285,0.0485,0.9602,-0.1595,0.3257,0.1306,-0.2968,0.2204,0.0082,0.0438,0.2204,0.0082,0.0438,0.3000,0.0500,0.0002,0,-1.3605,0.0000,-0.0010,-1.3605,0.0000,-0.0010
102.5072,37.5052,44.9682,0.0000,0.0686,0.1200,0.0000,0.0000,0.0000,-0.2276,-0.0821,-0.0125,996,1502,1500,1500,1000,1000,1505,1000,1000,1505,1005,1000,1505,-0.1719,-1.1744,-0.0194,0.0640,-0.0413,0.9919,-0.1580,0.3223,0.1330,-0.2973,0.2204,0.0082,0.0438,0.2204,0.0082,0.0438,0.3000,0.0500,0.0002,0,-1.3605,0.0000,-0.0010,-1.3605,0.0000,-0.0010
102.4806,37.5042,44.9480,0.0000,0.2057,0.1200,0.0000,0.0000,0.0000,-0.2276,-0.0823,-0.0114,996,1502,1500,1500,1000,1000,1505,1000,1000,1505,1005,1000,1505,-0.1952,-0.7185,-0.0870,0.0395,-0.1745,1.0188,-0.1566,0.3213,0.1338,-0.2985,0.2204,0.0082,0.0438,0.2204,0.0082,0.0438,0.3000,0.0500,0.0002,0,-1.3605,0.0000,-0.0010,-1.3605,0.0000,-0.0010
102.4603,37.5040,44.9303,0.0000,0.1371,0.1200,0.0000,0.0000,0.0000,-0.2282,-0.0829,-0.0120,996,1502,1500,1500,1000,1000,1505,1000,1000,1505,1005,1000,1505,1.2379,0.4765,0.0694,-0.0866,-0.0733,0.9882,-0.1572,0.3230,0.1333,-0.2991,0.2204,0.0082,0.0438,0.2204,0.0082,0.0438,0.3000,0.0500,0.0002,0,-1.3605,0.0000,-0.0010,-1.3605,0.0000,-0.0010
102.4439,37.5237,44.9166,0.0000,0.0686,0.1200,0.0000,0.0000,0.0000,-0.2277,-0.0825,-0.0073,996,1502,1500,1500,1000,1000,1505,1000,1000,1505,1005,1000,1505,0.2628,-0.4890,-1.7344,-0.0499,0.1067,0.9742,-0.1525,0.3175,0.1379,-0.3029,0.2204,0.0082,0.0438,0.2204,0.0082,0.0438,0.3000,0.0500,0.0002,0,-1.3605,0.0000,-0.0010,-1.3605,0.0000,-0.0010
102.4221,37.5373,44.8985,-0.0686,0.0686,0.1200,0.0000,0.0000,0.0000,-0.2278,-0.0827,-0.0161,996,1502,1500,1500,1000,1000,1505,1000,1000,1505,1005,1000,1505,0.5976,-0.1371,0.9732,0.0910,0.0015,0.9999,-0.1612,0.3265,0.1290,-0.2944,0.2204,0.0082,0.0438,0.2204,0.0082,0.0438,0.3000,0.0500,0.0002,0,-1.3605,0.0000,-0.0010,-1.3605,0.0000,-0.0010
102.3943,37.5088,44.8755,-0.0686,0.0686,0.1200,0.0000,0.0000,0.0000,-0.2279,-0.0829,-0.0239,998,1504,1501,1501,1000,1000,1505,1000,1000,1505,1005,1000,1505,0.9357,0.6066,3.8376,0.0403,-0.2192,1.0022,-0.1688,0.3347,0.1211,-0.2869,0.2204,0.0082,0.0438,0.2204,0.0082,0.0438,0.3000,0.0500,0.0002,0,-1.3605,0.0000,-0.0010,-1.3605,0.0000,-0.0010
102.3738,37.4690,44.8576,0.0686,0.0686,0.1200,0.0000,0.0000,0.0000,-0.2276,-0.0826,-0.0186,996,1502,1500,1500,1000,1000,1505,1000,1000,1505,1005,1000,1505,0.4572,0.1327,2.4072,-0.0728,-0.0430,0.9927,-0.1636,0.3289,0.1264,-0.2916,0.2204,0.0082,0.0438,0.2204,0.0082,0.0438,0.3000,0.0500,0.0002,0,-1.3605,0.0000,-0.0010,-1.3605,0.0000,-0.0010
102.3504,37.4714,44.8458,0.0000,0.1371,0.1200,0.0000,0.0000,0.0000,-0.2269,-0.0824,-0.0089,996,1502,1500,1500,1000,1000,1505,1000,1000,1505,1005,1000,1505,-1.0384,-0.4674,-0.9507,-0.0559,0.0971,0.9934,-0.1534,0.3182,0.1357,-0.3004,0.2204,0.0082,0.0438,0.2204,0.0082,0.0438,0.3000,0.0500,0.0002,0,-1.3605,0.0000,-0.0010,-1.3605,0.0000,-0.0010
102.3270,37.4933,44.8332,0.0000,0.0686,0.1200,0.0000,0.0000,0.0000,-0.2273,-0.0827,-0.0115,996,1502,1500,1500,1000,1000,1505,1000,1000,1505,1005,1000,1505,-0.0657,0.1599,-0.5164,0.0447,-0.0133,0.9828,-0.1561,0.3215,0.1331,-0.2985,0.2204,0.0082,0.0438,0.2204,0.0082,0.0438,0.3000,0.0500,0.0002,0,-1.3605,0.0000,-0.0010,-1.3605,0.0000,-0.0010
102.2916,37.4872,44.8104,-0.0686,-0.0000,0.1200,0.0000,0.0000,0.0000,-0.2273,-0.0825,-0.0166,996,1502,1500,1500,1000,1000,1505,1000,1000,1505,1005,1000,1505,0.1268,-0.2640,1.3249,0.0511,-0.1621,0.9815,-0.1614,0.3264,0.1282,-0.2932,0.2204,0.0082,0.0438,0.2204,0.0082,0.0438,0.3000,0.0500,0.0002,0,-1.3605,0.0000,-0.0010,-1.3605,0.0000,-0.0010
102.2559,37.4758,44.7849,-0.1371,0.0686,0.1200,0.0000,0.0000,0.0000,-0.2266,-0.0818,-0.0113,996,1502,1500,1500,1000,1000,1505,1000,1000,1505,1005,1000,1505,-1.2013,-1.8185,-0.0138,0.0119,-0.1322,1.0407,-0.1561,0.3197,0.1336,-0.2972,0.2204,0.0082,0.0438,0.2204,0.0082,0.0438,0.3000,0.0500,0.0002,0,-1.3605,0.0000,-0.0010,-1.3605,0.0000,-0.0010
102.2369,37.4933,44.7721,0.0000,-0.0000,0.1200,0.0000,0.0000,0.0000,-0.2274,-0.0828,-0.0062,998,1504,1501,1507,1000,1000,1505,1000,1000,1505,1005,1000,1505,0.7280,0.4245,-1.9148,-0.0708,-0.0331,0.9945,-0.1508,0.3164,0.1384,-0.3041,0.2204,0.0082,0.0438,0.2204,0.0082,0.0438,0.3000,0.0500,0.0002,0,-1.3605,0.0000,-0.0010,-1.3605,0.0000,-0.0010
102.2283,37.5140,44.7624,0.0000,0.0686,0.1200,0.0000,2.2400,0.0000,-0.2278,-0.0829,-0.0078,996,1502,1500,1507,1000,1000,1505,1000,1000,1505,1005,1000,1505,1.6476,0.5403,0.1758,-0.0348,0.0735,0.9511,-0.1527,0.3185,0.1371,-0.3030,0.2204,0.0082,0.0438,0.2204,0.0082,0.0438,0.3000,0.0500,0.0002,0,-1.3605,0.0000,-0.0010,-1.3605,0.0000,-0.0010
102.2179,37.5103,44.7471,-0.0686,0.1371,0.1200,0.0000,2.2400,0.0000,-0.2276,-0.0825,-0.0081,996,1502,1500,1507,1000,1000,1505,1000,1000,1505,1005,1000,1505,1.1820,-0.3041,0.7763,0.0833,-0.0472,0.9941,-0.1531,0.3182,0.1370,-0.3021,0.2204,0.0082,0.0438,0.2204,0.0082,0.0438,0.3000,0.0500,0.0002,0,-1.3605,0.0000,-0.0010,-1.3605,0.0000,-0.0010
102.2112,37.5118,44.7321,0.0000,0.1371,0.1200,0.0000,2.2400,0.0000,-0.2279,-0.0825,0.0008,996,1502,1500,1507,1000,1000,1505,1000,1000,1505,1005,1000,1505,1.8534,-0.3261,-1.8623,0.0252,-0.2068,1.0321,-0.1446,0.3096,0.1461,-0.3112,0.2204,0.0082,0.0438,0.2204,0.0082,0.0438,0.3000,0.0500,0.0002,0,-1.3605,0.0000,-0.0010,-1.3605,0.0000,-0.0010
102.2101,37.5319,44.7222,-0.0686,0.1371,0.1200,0.0000,2.2400,0.0000,-0.2279,-0.0826,-0.0010,996,1502,1500,1507,1000,1000,1505,1000,1000,1505,1005,1000,1505,1.9833,-0.1691,-1.4897,-0.0774,-0.0440,0.9803,-0.1463,0.3116,0.1442,-0.3095,0.2204,0.0082,0.0438,0.2204,0.0082,0.0438,0.3000,0.0500,0.0002,0,-1.3605,0.0000,-0.0010,-1.3605,0.0000,-0.0010
102.1966,37.5430,44.7013,-0.0686,0.1371,0.1200,0.0000,2.2400,0.0000,-0.2271,-0.0824,-0.0095,996,1502,1500,1507,1000,1000,1505,1000,1000,1505,1005,1000,1505,0.2760,-0.8292,1.2981,-0.0351,0.1265,0.9783,-0.1543,0.3190,0.1353,-0.3000,0.2204,0.0082,0.0438,0.2204,0.0082,0.0438,0.3000,0.0500,0.0002,0,-1.3605,0.0000,-0.0010,-1.3605,0.0000,-0.0010
102.1751,37.5394,44.6764,0.0000,0.1371,0.1200,0.0000,2.2400,0.0000,-0.2274,-0.0825,-0.0069,998,1504,1501,1509,1000,1000,1505,1000,1000,1505,1005,1000,1505,0.9207,-0.4642,0.4530,0.0815,-0.0353,0.9915,-0.1517,0.3168,0.1380,-0.3030,0.2204,0.0082,0.0438,0.2204,0.0082,0.0438,0.3000,0.0500,0.0002,0,-1.3605,0.0000,-0.0010,-1.3605,0.0000,-0.0010
102.1561,37.5460,44.6548,0.0000,0.1371,0.1200,0.0000,2.2400,0.0000,-0.2277,-0.0828,-0.0010,996,1502,1500,1507,1000,1000,1505,1000,1000,1505,1005,1000,1505,1.7847,0.0550,-1.5010,0.0109,-0.2192,1.0008,-0.1459,0.3115,0.1440,-0.3095,0.2204,0.0082,0.0438,0.2204,0.0082,0.0438,0.3000,0.0500,0.0002,0,-1.3605,0.0000,-0.0010,-1.3605,0.0000,-0.0010
102.1424,37.5547,44.6376,0.0000,0.1371,0.1200,0.0000,2.2400,0.0000,-0.2271,-0.0823,-0.0056,996,1502,1500,1507,1000,1000,1505,1000,1000,1505,1005,1000,1505,0.5391,-1.0807,0.0425,-0.0434,-0.0557,0.9828,-0.1504,0.3150,0.1393,-0.3039,0.2204,0.0082,0.0438,0.2204,0.0082,0.0438,0.3000,0.0500,0.0002,0,-1.3605,0.0000,-0.0010,-1.3605,0.0000,-0.0010
102.1307,37.5501,44.6220,0.0000,-0.0000,0.1200,0.0000,2.2400,0.0000,-0.2269,-0.0825,-0.0092,996,1502,1500,1507,1000,1000,1505,1000,1000,1505,1005,1000,1505,0.1492,-0.4969,1.3846,-0.0454,0.1132,0.9864,-0.1536,0.3187,0.1352,-0.3003,0.2204,0.0082,0.0438,0.2204,0.0082,0.0438,0.3000,0.0500,0.0002,0,-1.3605,0.0000,-0.0010,-1.3605,0.0000,-0.0010
102.1180,37.5497,44.6066,0.0000,0.1371,0.1200,0.0000,2.2400,0.0000,-0.2277,-0.0832,-0.0048,996,1502,1500,1507,1000,1000,1505,1000,1000,1505,1005,1000,1505,1.8449,0.9746,-0.2514,0.0563,-0.0323,0.9884,-0.1493,0.3156,0.1397,-0.3061,0.2204,0.0082,0.0438,0.2204,0.0082,0.0438,0.3000,0.0500,0.0002,0,-1.3605,0.0000,-0.0010,-1.3605,0.0000,-0.0010
102.1065,37.5592,44.5947,0.0686,0.0686,0.1200,0.0000,2.2400,0.0000,-0.2276,-0.0832,-0.0017,996,1502,1500,1507,1000,1000,1505,1000,1000,1505,1005,1000,1505,1.7484,1.0333,-1.2533,-0.0033,-0.1984,0.9977,-0.1460,0.3125,0.1427,-0.3092,0.2204,0.0082,0.0438,0.2204,0.0082,0.0438,0.3000,0.0500,0.0002,0,-1.3605,0.0000,-0.0010,-1.3605,0.0000,-0.0010
102.0911,37.5641,44.5811,0.0000,0.0686,0.1200,0.0000,2.2400,0.0000,-0.2267,-0.0823,-0.0066,998,1504,1501,1506,1000,1000,1505,1000,1000,1505,1005,1000,1505,-0.3232,-1.2008,0.3981,-0.0211,-0.0520,0.9922,-0.1510,0.3155,0.1378,-0.3023,0.2204,0.0082,0.0438,0.2204,0.0082,0.0438,0.3000,0.0500,0.0002,0,-1.3605,0.0000,-0.0010,-1.3605,0.0000,-0.0010
102.0706,37.5644,44.5665,0.0686,0.2057,0.1200,0.0000,1.6000,0.0000,-0.2264,-0.0823,-0.0080,996,1502,1500,1505,1000,1000,1505,1000,1000,1505,1005,1000,1505,-0.7365,-1.1744,0.3281,-0.0291,0.0825,0.9925,-0.1522,0.3167,0.1361,-0.3007,0.2204,0.0082,0.0438,0.2204,0.0082,0.0438,0.3000,0.0500,0.0002,0,-1.3605,0.0000,-0.0010,-1.3605,0.0000,-0.0010
102.0498,37.5738,44.5509,0.0686,0.1371,0.1200,0.0000,1.6000,0.0000,-0.2272,-0.0831,-0.0047,996,1502,1500,1505,1000,1000,1505,1000,1000,1505,1005,1000,1505,1.0356,0.7112,-0.9453,0.0235,-0.0059,0.9985,-0.1488,0.3150,0.1393,-0.3055,0.2204,0.0082,0.0438,0.2204,0.0082,0.0438,0.3000,0.0500,0.0002,0,-1.3605,0.0000,-0.0010,-1.3605,0.0000,-0.0010
102.0293,37.5833,44.5330,0.0000,0.0686,0.1200,0.0000,1.6000,0.0000,-0.2273,-0.0833,-0.0053,996,1502,1500,1505,1000,1000,1505,1000,1000,1505,1005,1000,1505,1.5070,1.0143,-0.7051,-0.0111,-0.1716,0.9863,-0.1493,0.3159,0.1388,-0.3053,0.2204,0.0082,0.0438,0.2204,0.0082,0.0438,0.3000,0.0500,0.0002,0,-1.3605,0.0000,-0.0010,-1.3605,0.0000,-0.0010
102.0081,37.5845,44.5131,-0.0686,0.1371,0.1200,0.0000,1.6000,0.0000,-0.2265,-0.0823,-0.0086,996,1502,1500,1505,1000,1000,1505,1000,1000,1505,1005,1000,1505,-0.1474,-1.2942,0.5275,0.0044,-0.0587,0.9945,-0.1529,0.3174,0.1357,-0.3002,0.2204,0.0082,0.0438,0.2204,0.0082,0.0438,0.3000,0.0500,0.0002,0,-1.3605,0.0000,-0.0010,-1.3605,0.0000,-0.0010
101.9920,37.5860,44.4964,0.0000,0.1371,0.1200,0.0000,1.6000,0.0000,-0.2267,-0.0823,-0.0079,996,1502,1500,1505,1000,1000,1505,1000,1000,1505,1005,1000,1505,0.2973,-1.1302,0.3359,0.0065,0.0299,0.9938,-0.1523,0.3170,0.1365,-0.3011,0.2204,0.0082,0.0438,0.2204,0.0082,0.0438,0.3000,0.0500,0.0002,0,-1.3605,0.0000,-0.0010,-1.3605,0.0000,-0.0010
101.9832,37.5918,44.4847,-0.0686,0.2057,0.1200,0.0000,1.6000,0.0000,-0.2275,-0.0833,-0.0070,998,1504,1501,1505,1000,1000,1505,1000,1000,1505,1005,1000,1505,2.1030,0.9475,-0.2264,0.0113,-0.0155,0.9821,-0.1512,0.3177,0.1373,-0.3038,0.2204,0.0082,0.0438,0.2204,0.0082,0.0438,0.3000,0.0500,0.0002,0,-1.3605,0.0000,-0.0010,-1.3605,0.0000,-0.0010
101.9703,37.5935,44.4686,-0.1371,0.0686,0.1200,0.0000,1.6000,0.0000,-0.2272,-0.0832,-0.0068,996,1502,1500,1505,1000,1000,1505,1000,1000,1505,1005,1000,1505,1.5098,0.7776,-0.1744,-0.0266,-0.1157,0.9716,-0.1508,0.3172,0.1372,-0.3036,0.2204,0.0082,0.0438,0.2204,0.0082,0.0438,0.3000,0.0500,0.0002,0,-1.3605,0.0000,-0.0010,-1.3605,0.0000,-0.0010
101.9522,37.5942,44.4514,-0.0686,0.1371,0.1200,0.0000,1.6000,0.0000,-0.2262,-0.0824,-0.0067,996,1502,1500,1505,1000,1000,1505,1000,1000,1505,1005,1000,1505,-0.6247,-1.0928,-0.0452,-0.0009,-0.0494,1.0070,-0.1506,0.3153,0.1371,-0.3019,0.2204,0.0082,0.0438,0.2204,0.0082,0.0438,0.3000,0.0500,0.0002,0,-1.3605,0.0000,-0.0010,-1.3605,0.0000,-0.0010
101.9312,37.6006,44.4380,-0.0686,-0.0000,0.1200,0.0000,1.6000,0.0000,-0.2262,-0.0826,-0.0068,996,1502,1500,1505,1000,1000,1505,1000,1000,1505,1005,1000,1505,-0.5168,-0.5107,-0.0502,0.0059,0.0147,0.9937,-0.1504,0.3157,0.1367,-0.3020,0.2204,0.0082,0.0438,0.2204,0.0082,0.0438,0.3000,0.0500,0.0002,0,-1.3605,0.0000,-0.0010,-1.3605,0.0000,-0.0010
101.9080,37.6089,44.4236,0.0000,0.1371,0.1200,0.0000,1.6000,0.0000,-0.2267,-0.0831,-0.0076,996,1502,1500,1505,1000,1000,1505,1000,1000,1505,1005,1000,1505,0.7256,0.4413,-0.0654,0.0055,-0.0101,0.9757,-0.1512,0.3174,0.1361,-0.3022,0.2204,0.0082,0.0438,0.2204,0.0082,0.0438,0.3000,0.0500,0.0002,0,-1.3605,0.0000,-0.0010,-1.3605,0.0000,-0.0010
101.8774,37.6143,44.4044,0.0000,0.1371,0.1200,0.0000,1.6000,0.0000,-0.2262,-0.0828,-0.0052,996,1502,1500,1505,1000,1000,1505,1000,1000,1505,1005,1000,1505,-0.3934,-0.1412,-0.7059,-0.0188,-0.0945,0.9774,-0.1485,0.3142,0.1381,-0.3038,0.2204,0.0082,0.0438,0.2204,0.0082,0.0438,0.3000,0.0500,0.0002,0,-1.3605,0.0000,-0.0010,-1.3605,0.0000,-0.0010
101.8439,37.6180,44.3830,0.0000,0.0686,0.1200,0.0000,1.6000,0.0000,-0.2256,-0.0822,-0.0062,998,1504,1501,1505,1000,1000,1505,1000,1000,1505,1005,1000,1505,-1.5837,-1.5450,-0.2272,-0.0015,-0.0793,1.0088,-0.1495,0.3140,0.1371,-0.3016,0.2204,0.0082,0.0438,0.2204,0.0082,0.0438,0.3000,0.0500,0.0002,0,-1.3605,0.0000,-0.0010,-1.3605,0.0000,-0.0010
101.8132,37.6221,44.3640,0.0686,0.1371,0.1200,0.0000,1.6000,0.0000,-0.2259,-0.0827,-0.0092,996,1502,1500,1505,1000,1000,1505,1000,1000,1505,1005,1000,1505,-0.7254,-0.5050,0.6965,-0.0025,-0.0130,0.9857,-0.1523,0.3177,0.1340,-0.2994,0.2204,0.0082,0.0438,0.2204,0.0082,0.0438,0.3000,0.0500,0.0002,0,-1.3605,0.0000,-0.0010,-1.3605,0.0000,-0.0010
101.7892,37.6237,44.3486,0.0000,0.1371,0.1200,0.0000,1.6000,0.0000,-0.2266,-0.0832,-0.0097,996,1502,1500,1505,1000,1000,1505,1000,1000,1505,1005,1000,1505,1.0398,0.7442,0.5878,0.0261,0.0029,0.9601,-0.1530,0.3195,0.1337,-0.3002,0.2204,0.0082,0.0438,0.2204,0.0082,0.0438,0.3000,0.0500,0.0002,0,-1.3605,0.0000,-0.0010,-1.3605,0.0000,-0.0010
101.7708,37.6207,44.3363,0.0686,0.1371,0.1200,0.0000,1.6000,0.0000,-0.2261,-0.0831,-0.0069,996,1502,1500,1505,1000,1000,1505,1000,1000,1505,1005,1000,1505,0.0645,0.4899,-0.0940,0.0006,-0.0732,0.9945,-0.1499,0.3162,0.1360,-0.3023,0.2204,0.0082,0.0438,0.2204,0.0082,0.0438,0.3000,0.0500,0.0002,0,-1.3605,0.0000,-0.0010,-1.3605,0.0000,-0.0010
101.7520,37.6177,44.3235,0.0000,0.2057,0.1200,0.0000,1.6000,0.0000,-0.2256,-0.0826,-0.0076,996,1502,1500,1505,1000,1000,1505,1000,1000,1505,1005,1000,1505,-0.9436,-0.6789,0.3012,0.0003,-0.0935,1.0229,-0.1507,0.3159,0.1354,-0.3006,0.2204,0.0082,0.0438,0.2204,0.0082,0.0438,0.3000,0.0500,0.0002,0,-1.3605,0.0000,-0.0010,-1.3605,0.0000,-0.0010
101.7358,37.6180,44.3149,-0.0686,0.1371,0.1200,0.0000,1.6000,0.0000,-0.2261,-0.0829,-0.0083,996,1502,1500,1505,1000,1000,1505,1000,1000,1505,1005,1000,1505,0.1573,-0.0685,0.4818,0.0000,-0.0630,0.9950,-0.1515,0.3173,0.1349,-0.3006,0.2204,0.0082,0.0438,0.2204,0.0082,0.0438,0.3000,0.0500,0.0002,0,-1.3605,0.0000,-0.0010,-1.3605,0.0000,-0.0010
101.7182,37.6221,44.3043,0.0000,0.2057,0.1200,0.0000,1.6000,0.0000,-0.2265,-0.0833,-0.0083,998,1504,1501,1505,1000,1000,1505,1000,1000,1505,1005,1000,1505,1.3185,0.8000,0.2489,0.0005,0.0123,0.9671,-0.1516,0.3182,0.1349,-0.3015,0.2204,0.0082,0.0438,0.2204,0.0082,0.0438,0.3000,0.0500,0.0002,0,-1.3605,0.0000,-0.0010,-1.3605,0.0000,-0.0010
101.6942,37.6265,44.2866,-0.0686,0.1371,0.1200,0.0000,1.6000,0.0000,-0.2259,-0.0831,-0.0047,996,1502,1500,1505,1000,1000,1505,1000,1000,1505,1005,1000,1505,-0.1516,0.3524,-0.7744,-0.0157,-0.0534,0.9846,-0.1474,0.3136,0.1381,-0.3043,0.2204,0.0082,0.0438,0.2204,0.0082,0.0438,0.3000,0.0500,0.0002,0,-1.3605,0.0000,-0.0010,-1.3605,0.0000,-0.0010
101.6668,37.6314,44.2659,0.0000,0.2057,0.1200,0.0000,1.6000,0.0000,-0.2254,-0.0823,-0.0058,996,1502,1500,1505,1000,1000,1505,1000,1000,1505,1005,1000,1505,-1.0275,-1.4533,-0.3339,-0.0117,-0.0766,1.0027,-0.1489,0.3135,0.1373,-0.3019,0.2204,0.0082,0.0438,0.2204,0.0082,0.0438,0.3000,0.0500,0.0002,0,-1.3605,0.0000,-0.0010,-1.3605,0.0000,-0.0010
101.6439,37.6378,44.2498,-0.0686,0.2057,0.1200,0.0000,1.6000,0.0000,-0.2258,-0.0827,-0.0067,996,1502,1500,1505,1000,1000,1505,1000,1000,1505,1005,1000,1505,0.0519,-0.5127,-0.0841,-0.0040,-0.0421,0.9789,-0.1498,0.3153,0.1364,-0.3018,0.2204,0.0082,0.0438,0.2204,0.0082,0.0438,0.3000,0.0500,0.0002,0,-1.3605,0.0000,-0.0010,-1.3605,0.0000,-0.0010
101.6221,37.6463,44.2340,-0.0686,0.1371,0.1200,0.0000,1.6000,0.0000,-0.2264,-0.0832,-0.0070,996,1502,1500,1505,1000,1000,1505,1000,1000,1505,1005,1000,1505,1.5515,0.5759,-0.2048,0.0101,0.0230,0.9597,-0.1503,0.3167,0.1362,-0.3026,0.2204,0.0082,0.0438,0.2204,0.0082,0.0438,0.3000,0.0500,0.0002,0,-1.3605,0.0000,-0.0010,-1.3605,0.0000,-0.0010
101.6013,37.6516,44.2176,-0.0686,0.0686,0.1200,0.0000,0.6400,0.0000,-0.2259,-0.0832,-0.0081,996,1502,1500,1502,1000,1000,1505,1000,1000,1505,1005,1000,1505,0.4746,0.5432,-0.5931,-0.0027,-0.0724,0.9906,-0.1508,0.3172,0.1346,-0.3010,0.2204,0.0082,0.0438,0.2204,0.0082,0.0438,0.3000,0.0500,0.0002,0,-1.3605,0.0000,-0.0010,-1.3605,0.0000,-0.0010
101.5808,37.6542,44.2014,0.0000,0.1371,0.1200,0.0000,0.6400,0.0000,-0.2255,-0.0826,-0.0091,998,1504,1501,1502,1000,1000,1505,1000,1000,1505,1005,1000,1505,-0.3446,-0.8891,-0.1635,0.0001,-0.0904,1.0143,-0.1520,0.3172,0.1338,-0.2990,0.2204,0.0082,0.0438,0.2204,0.0082,0.0438,0.3000,0.0500,0.0002,0,-1.3605,0.0000,-0.0010,-1.3605,0.0000,-0.0010
101.5662,37.6593,44.1907,0.0000,0.0686,0.1200,0.0000,0.6400,0.0000,-0.2258,-0.0828,-0.0105,996,1502,1500,1502,1000,1000,1505,1000,1000,1505,1005,1000,1505,0.3290,-0.3970,0.2064,0.0101,-0.0487,0.9913,-0.1535,0.3191,0.1324,-0.2981,0.2204,0.0082,0.0438,0.2204,0.0082,0.0438,0.3000,0.0500,0.0002,0,-1.3605,0.0000,-0.0010,-1.3605,0.0000,-0.0010
101.5508,37.6641,44.1789,0.0000,-0.0000,0.1200,0.0000,0.6400,0.0000,-0.2264,-0.0834,-0.0108,996,1502,1500,1502,1000,1000,1505,1000,1000,1505,1005,1000,1505,1.8673,0.8306,0.0764,-0.0030,0.0227,0.9638,-0.1539,0.3206,0.1322,-0.2990,0.2204,0.0082,0.0438,0.2204,0.0082,0.0438,0.3000,0.0500,0.0002,0,-1.3605,0.0000,-0.0010,-1.3605,0.0000,-0.0010
101.5308,37.6667,44.1603,0.0000,0.1371,0.1200,0.0000,0.6400,0.0000,-0.2257,-0.0831,-0.0085,996,1502,1500,1502,1000,1000,1505,1000,1000,1505,1005,1000,1505,0.4026,0.2106,-0.4627,-0.0159,-0.0549,0.9807,-0.1512,0.3174,0.1341,-0.3003,0.2204,0.0082,0.0438,0.2204,0.0082,0.0438,0.3000,0.0500,0.0002,0,-1.3605,0.0000,-0.0010,-1.3605,0.0000,-0.0010
101.5052,37.6693,44.1377,-0.1371,-0.0000,0.1200,0.0000,0.6400,0.0000,-0.2251,-0.0822,-0.0106,996,1502,1500,1502,1000,1000,1505,1000,1000,1505,1005,1000,1505,-1.0019,-1.8854,0.2522,0.0195,-0.0883,1.0022,-0.1535,0.3179,0.1323,-0.2967,0.2204,0.0082,0.0438,0.2204,0.0082,0.0438,0.3000,0.0500,0.0002,0,-1.3605,0.0000,-0.0010,-1.3605,0.0000,-0.0010
101.4817,37.6633,44.1181,0.0686,-0.0000,0.1200,0.0000,0.6400,0.0000,-0.2256,-0.0829,-0.0174,996,1502,1500,1502,1000,1000,1505,1000,1000,1505,1005,1000,1505,0.3268,-0.3601,2.4016,0.0186,-0.0752,0.9967,-0.1601,0.3259,0.1253,-0.2910,0.2204,0.0082,0.0438,0.2204,0.0082,0.0438,0.3000,0.0500,0.0002,0,-1.3605,0.0000,-0.0010,-1.3605,0.0000,-0.0010
101.4583,37.6335,44.0980,-0.0686,0.0686,0.1200,0.0000,0.6400,0.0000,-0.2260,-0.0834,-0.0250,998,1504,1501,1502,1000,1000,1505,1000,1000,1505,1005,1000,1505,1.3432,1.1229,4.7706,-0.0195,0.0479,0.9652,-0.1676,0.3344,0.1175,-0.2844,0.2204,0.0082,0.0438,0.2204,0.0082,0.0438,0.3000,0.0500,0.0002,0,-1.3605,0.0000,-0.0010,-1.3605,0.0000,-0.0010
101.4283,37.5752,44.0750,0.0000,0.1371,0.1200,0.0000,0.6400,0.0000,-0.2249,-0.0833,-0.0289,996,1502,1500,1502,1000,1000,1505,1000,1000,1505,1005,1000,1505,-0.9368,1.2057,6.2654,-0.0002,-0.0290,0.9993,-0.1705,0.3372,0.1127,-0.2794,0.2204,0.0082,0.0438,0.2204,0.0082,0.0438,0.3000,0.0500,0.0002,0,-1.3605,0.0000,-0.0010,-1.3605,0.0000,-0.0010
101.3872,37.4966,44.0502,-0.0686,0.2743,0.1200,0.0000,0.6400,0.0000,-0.2240,-0.0828,-0.0338,996,1502,1500,1502,1000,1000,1505,1000,1000,1505,1005,1000,1505,-2.7933,0.3295,8.0453,0.0175,-0.0930,1.0211,-0.1750,0.3406,0.1074,-0.2730,0.2204,0.0082,0.0438,0.2204,0.0082,0.0438,0.3000,0.0500,0.0002,0,-1.3605,0.0000,-0.0010,-1.3605,0.0000,-0.0010
101.3354,37.4137,44.0288,-0.0686,0.2057,0.1200,0.0000,0.6400,0.0000,-0.2240,-0.0830,-0.0345,996,1502,1500,1502,1000,1000,1505,1000,1000,1505,1005,1000,1505,-2.6710,1.1686,8.2440,-0.0132,-0.0790,0.9894,-0.1755,0.3414,0.1065,-0.2724,0.2204,0.0082,0.0438,0.2204,0.0082,0.0438,0.3000,0.0500,0.0002,0,-1.3605,0.0000,-0.0010,-1.3605,0.0000,-0.0010
101.2730,37.3376,44.0079,-0.0686,0.2057,0.1200,0.0000,0.6400,0.0000,-0.2237,-0.0828,-0.0322,996,1502,1500,1502,1000,1000,1505,1000,1000,1505,1005,1000,1505,-2.9199,1.2267,7.5112,0.0003,0.0350,0.9552,-0.1731,0.3388,0.1087,-0.2743,0.2204,0.0082,0.0438,0.2204,0.0082,0.0438,0.3000,0.0500,0.0002,0,-1.3605,0.0000,-0.0010,-1.3605,0.0000,-0.0010
101.2064,37.2959,43.9879,-0.1371,0.1371,0.1200,0.0000,0.6400,0.0000,-0.2232,-0.0818,-0.0124,996,1502,1500,1502,1000,1000,1505,1000,1000,1505,1005,1000,1505,-3.8587,-0.8151,1.1261,0.0545,-0.0703,0.9925,-0.1538,0.3174,0.1289,-0.2926,0.2204,0.0082,0.0438,0.2204,0.0082,0.0438,0.3000,0.0500,0.0002,0,-1.3605,0.0000,-0.0010,-1.3605,0.0000,-0.0010
101.1512,37.3155,43.9671,-0.0686,0.1371,0.1200,0.0000,0.6400,0.0000,-0.2244,-0.0817,0.0051,998,1504,1501,1502,1000,1000,1505,1000,1000,1505,1005,1000,1505,-0.7968,-1.2378,-4.7011,-0.0267,-0.2311,1.0102,-0.1376,0.3010,0.1478,-0.3112,0.2204,0.0082,0.0438,0.2204,0.0082,0.0438,0.3000,0.0500,0.0002,0,-1.3605,0.0000,-0.0010,-1.3605,0.0000,-0.0010
101.1212,37.3819,43.9443,0.0000,0.1371,0.1200,0.0000,0.6400,0.0000,-0.2250,-0.0815,0.0125,996,1502,1500,1502,1000,1000,1505,1000,1000,1505,1005,1000,1505,0.7123,-2.0892,-7.2778,-0.1181,-0.0531,1.0070,-0.1310,0.2940,0.1559,-0.3189,0.2204,0.0082,0.0438,0.2204,0.0082,0.0438,0.3000,0.0500,0.0002,0,-1.3605,0.0000,-0.0010,-1.3605,0.0000,-0.0010
101.1157,37.4746,43.9207,0.0000,0.1371,0.1200,0.0000,0.6400,0.0000,-0.2253,-0.0817,0.0146,996,1502,1500,1502,1000,1000,1505,1000,1000,1505,1005,1000,1505,1.5754,-2.0507,-8.2148,-0.0012,0.0464,0.9800,-0.1290,0.2924,0.1582,-0.3216,0.2204,0.0082,0.0438,0.2204,0.0082,0.0438,0.3000,0.0500,0.0002,0,-1.3605,0.0000,-0.0010,-1.3605,0.0000,-0.0010
101.1267,37.5780,43.9075,0.0000,0.1371,0.1200,0.0000,0.6400,0.0000,-0.2265,-0.0825,0.0168,996,1502,1500,1502,1000,1000,1505,1000,1000,1505,1005,1000,1505,4.0762,-0.7040,-9.0968,0.1310,-0.0493,0.9642,-0.1271,0.2922,0.1608,-0.3258,0.2204,0.0082,0.0438,0.2204,0.0082,0.0438,0.3000,0.0500,0.0002,0,-1.3605,0.0000,-0.0010,-1.3605,0.0000,-0.0010
101.1538,37.6741,43.9167,0.0686,0.2057,0.1200,0.0000,0.6400,0.0000,-0.2268,-0.0832,0.0184,996,1502,1500,1502,1000,1000,1505,1000,1000,1505,1005,1000,1505,4.6287,0.4221,-9.4803,0.0112,-0.1540,1.0013,-0.1251,0.2915,0.1620,-0.3284,0.2204,0.0082,0.0438,0.2204,0.0082,0.0438,0.3000,0.0500,0.0002,0,-1.3605,0.0000,-0.0010,-1.3605,0.0000,-0.0010
101.1842,37.7526,43.9359,0.0000,0.1371,0.1200,0.0000,0.6400,0.0000,-0.2255,-0.0834,0.0106,996,1502,1500,1502,1000,1000,1505,1000,1000,1505,1005,1000,1505,1.5911,0.4530,-6.9075,-0.0688,0.0163,1.0192,-0.1315,0.2983,0.1527,-0.3195,0.2204,0.0082,0.0438,0.2204,0.0082,0.0438,0.3000,0.0500,0.0002,0,-1.3605,0.0000,-0.0010,-1.3605,0.0000,-0.0010
101.2105,37.8082,43.9621,0.0000,0.1371,0.1200,0.0000,0.6400,0.0000,-0.2256,-0.0843,0.0025,998,1504,1501,1502,1000,1000,1505,1000,1000,1505,1005,1000,1505,1.8061,2.2654,-4.1213,-0.0506,0.0291,0.9884,-0.1388,0.3074,0.1439,-0.3125,0.2204,0.0082,0.0438,0.2204,0.0082,0.0438,0.3000,0.0500,0.0002,0,-1.3605,0.0000,-0.0010,-1.3605,0.0000,-0.0010
101.2251,37.8395,43.9780,0.0000,0.2057,0.1200,0.0000,0.6400,0.0000,-0.2261,-0.0845,-0.0059,996,1502,1500,1502,1000,1000,1505,1000,1000,1505,1005,1000,1505,2.8382,2.5976,-1.6939,0.0484,-0.0280,0.9902,-0.1475,0.3165,0.1357,-0.3048,0.2204,0.0082,0.0438,0.2204,0.0082,0.0438,0.3000,0.0500,0.0002,0,-1.3605,0.0000,-0.0010,-1.3605,0.0000,-0.0010
101.2211,37.8425,43.9769,0.0000,0.2057,0.1200,0.0000,0.6400,0.0000,-0.2255,-0.0838,-0.0111,996,1502,1500,1502,1000,1000,1505,1000,1000,1505,1005,1000,1505,1.4105,0.9623,0.3639,-0.0137,-0.1052,0.9868,-0.1528,0.3204,0.1305,-0.2982,0.2204,0.0082,0.0438,0.2204,0.0082,0.0438,0.3000,0.0500,0.0002,0,-1.3605,0.0000,-0.0010,-1.3605,0.0000,-0.0010
101.2032,37.8278,43.9544,0.0000,0.1371,0.1200,0.0000,0.6400,0.0000,-0.2248,-0.0826,-0.0165,996,1502,1500,1502,1000,1000,1505,1000,1000,1505,1005,1000,1505,-0.0169,-1.7579,2.2865,-0.0989,0.0097,0.9820,-0.1587,0.3239,0.1257,-0.2910,0.2204,0.0082,0.0438,0.2204,0.0082,0.0438,0.3000,0.0500,0.0002,0,-1.3605,0.0000,-0.0010,-1.3605,0.0000,-0.0010
101.1652,37.8080,43.9128,0.0000,0.1371,0.1200,0.0000,0.6400,0.0000,-0.2247,-0.0820,-0.0199,996,1502,1500,1502,1000,1000,1505,1000,1000,1505,1005,1000,1505,-0.1730,-2.9835,3.3660,-0.0705,0.0692,0.9717,-0.1626,0.3266,0.1227,-0.2868,0.2204,0.0082,0.0438,0.2204,0.0082,0.0438,0.3000,0.0500,0.0002,0,-1.3605,0.0000,-0.0010,-1.3605,0.0000,-0.0010
101.1156,37.7877,43.8587,-0.1371,0.0686,0.1200,0.0000,0.6400,0.0000,-0.2247,-0.0823,-0.0180,996,1502,1500,1502,1000,1000,1505,1000,1000,1505,1005,1000,1505,0.1601,-2.3361,2.6161,0.0969,-0.0679,1.0082,-0.1604,0.3249,0.1245,-0.2890,0.2204,0.0082,0.0438,0.2204,0.0082,0.0438,0.3000,0.0500,0.0002,0,-1.3605,0.0000,-0.0010,-1.3605,0.0000,-0.0010
101.0655,37.7698,43.8049,0.0000,0.2057,0.1200,0.0000,0.6400,0.0000,-0.2248,-0.0828,-0.0142,998,1504,1501,1502,1000,1000,1505,1000,1000,1505,1005,1000,1505,0.5437,-1.1066,1.5354,0.0446,-0.2420,1.0218,-0.1563,0.3218,0.1278,-0.2933,0.2204,0.0082,0.0438,0.2204,0.0082,0.0438,0.3000,0.0500,0.0002,0,-1.3605,0.0000,-0.0010,-1.3605,0.0000,-0.0010
101.0239,37.7580,43.7590,-0.1371,-0.0000,0.1200,0.0000,0.6400,0.0000,-0.2246,-0.0825,-0.0137,996,1502,1500,1502,1000,1000,1505,1000,1000,1505,1005,1000,1505,0.3806,-1.5359,1.3790,-0.0548,-0.0865,0.9796,-0.1557,0.3208,0.1284,-0.2935,0.2204,0.0082,0.0438,0.2204,0.0082,0.0438,0.3000,0.0500,0.0002,0,-1.3605,0.0000,-0.0010,-1.3605,0.0000,-0.0010
100.9952,37.7541,43.7327,0.0000,0.1371,0.1200,0.0000,0.6400,0.0000,-0.2244,-0.0825,-0.0126,996,1502,1500,1502,1000,1000,1505,1000,1000,1505,1005,1000,1505,0.0844,-1.6249,0.9664,-0.0372,0.1361,0.9762,-0.1545,0.3195,0.1293,-0.2943,0.2204,0.0082,0.0438,0.2204,0.0082,0.0438,0.3000,0.0500,0.0002,0,-1.3605,0.0000,-0.0010,-1.3605,0.0000,-0.0010
100.9740,37.7596,43.7127,0.0000,0.1371,0.1200,0.0000,0.6400,0.0000,-0.2246,-0.0833,-0.0087,996,1502,1500,1502,1000,1000,1505,1000,1000,1505,1005,1000,1505,0.6197,0.1871,-0.4701,0.0737,0.0133,0.9810,-0.1500,0.3167,0.1326,-0.2992,0.2204,0.0082,0.0438,0.2204,0.0082,0.0438,0.3000,0.0500,0.0002,0,-1.3605,0.0000,-0.0010,-1.3605,0.0000,-0.0010
100.9627,37.7653,43.7010,-0.0686,0.2057,0.1200,0.0000,0.6400,0.0000,-0.2250,-0.0837,-0.0060,996,1502,1500,1502,1000,1000,1505,1000,1000,1505,1005,1000,1505,1.5476,1.0934,-1.2374,0.0138,-0.1985,1.0067,-0.1473,0.3147,0.1352,-0.3027,0.2204,0.0082,0.0438,0.2204,0.0082,0.0438,0.3000,0.0500,0.0002,0,-1.3605,0.0000,-0.0010,-1.3605,0.0000,-0.0010
100.9536,37.7722,43.6934,0.0000,0.1371,0.1200,0.0000,0.6400,0.0000,-0.2246,-0.0832,-0.0086,996,1502,1500,1502,1000,1000,1505,1000,1000,1505,1005,1000,1505,0.8024,-0.1686,-0.3909,-0.0426,-0.0786,0.9873,-0.1500,0.3164,0.1329,-0.2992,0.2204,0.0082,0.0438,0.2204,0.0082,0.0438,0.3000,0.0500,0.0002,0,-1.3605,0.0000,-0.0010,-1.3605,0.0000,-0.0010
100.9402,37.7785,43.6868,0.0686,0.1371,0.1200,0.0000,0.6400,0.0000,-0.2242,-0.0832,-0.0109,998,1504,1501,1502,1000,1000,1505,1000,1000,1505,1005,1000,1505,-0.0749,-0.1322,0.3996,-0.0264,0.0910,0.9920,-0.1519,0.3183,0.1301,-0.2965,0.2204,0.0082,0.0438,0.2204,0.0082,0.0438,0.3000,0.0500,0.0002,0,-1.3605,0.0000,-0.0010,-1.3605,0.0000,-0.0010
100.9207,37.7829,43.6765,0.0000,0.0686,0.1200,0.0000,0.6400,0.0000,-0.2243,-0.0836,-0.0100,996,1502,1500,1502,1000,1000,1505,1000,1000,1505,1005,1000,1505,0.1360,0.7137,-0.1219,0.0583,-0.0137,1.0018,-0.1506,0.3178,0.1307,-0.2979,0.2204,0.0082,0.0438,0.2204,0.0082,0.0438,0.3000,0.0500,0.0002,0,-1.3605,0.0000,-0.0010,-1.3605,0.0000,-0.0010
100.8912,37.7830,43.6590,0.0686,0.1371,0.1200,0.0000,0.6400,0.0000,-0.2242,-0.0836,-0.0093,996,1502,1500,1502,1000,1000,1505,1000,1000,1505,1005,1000,1505,0.1408,0.7323,-0.2053,0.0038,-0.1777,1.0017,-0.1499,0.3171,0.1314,-0.2986,0.2204,0.0082,0.0438,0.2204,0.0082,0.0438,0.3000,0.0500,0.0002,0,-1.3605,0.0000,-0.0010,-1.3605,0.0000,-0.0010
100.8580,37.7803,43.6406,0.0686,0.1371,0.1200,0.0000,0.6400,0.0000,-0.2235,-0.0827,-0.0111,996,1502,1500,1502,1000,1000,1505,1000,1000,1505,1005,1000,1505,-1.3591,-1.3176,0.5032,-0.0345,-0.0410,0.9905,-0.1519,0.3173,0.1297,-0.2950,0.2204,0.0082,0.0438,0.2204,0.0082,0.0438,0.3000,0.0500,0.0002,0,-1.3605,0.0000,-0.0010,-1.3605,0.0000,-0.0010
100.8242,37.7791,43.6222,0.0000,0.1371,0.1200,0.0000,0.6400,0.0000,-0.2234,-0.0829,-0.0121,996,1502,1500,1502,1000,1000,1505,1000,1000,1505,1005,1000,1505,-1.3842,-0.8105,0.8405,-0.0309,0.0826,0.9801,-0.1526,0.3184,0.1284,-0.2942,0.2204,0.0082,0.0438,0.2204,0.0082,0.0438,0.3000,0.0500,0.0002,0,-1.3605,0.0000,-0.0010,-1.3605,0.0000,-0.0010
100.7943,37.7807,43.6057,-0.0686,0.1371,0.1200,0.0000,0.6400,0.0000,-0.2241,-0.0837,-0.0107,996,1502,1500,1502,1000,1000,1505,1000,1000,1505,1005,1000,1505,0.4030,0.9087,0.1676,0.0543,-0.0353,0.9819,-0.1511,0.3185,0.1298,-0.2971,0.2204,0.0082,0.0438,0.2204,0.0082,0.0438,0.3000,0.0500,0.0002,0,-1.3605,0.0000,-0.0010,-1.3605,0.0000,-0.0010
100.7668,37.7809,43.5892,0.0000,0.2057,0.1200,0.0000,0.6400,0.0000,-0.2241,-0.0837,-0.0094,998,1504,1501,1502,1000,1000,1505,1000,1000,1505,1005,1000,1505,0.5925,1.0764,-0.1827,0.0115,-0.1689,1.0003,-0.1498,0.3173,0.1310,-0.2985,0.2204,0.0082,0.0438,0.2204,0.0082,0.0438,0.3000,0.0500,0.0002,0,-1.3605,0.0000,-0.0010,-1.3605,0.0000,-0.0010
100.7425,37.7797,43.5774,0.0000,0.2057,0.1200,0.0000,0.6400,0.0000,-0.2234,-0.0829,-0.0096,996,1502,1500,1502,1000,1000,1505,1000,1000,1505,1005,1000,1505,-0.9918,-0.9249,0.0102,-0.0228,-0.0506,0.9916,-0.1501,0.3158,0.1309,-0.2967,0.2204,0.0082,0.0438,0.2204,0.0082,0.0438,0.3000,0.0500,0.0002,0,-1.3605,0.0000,-0.0010,-1.3605,0.0000,-0.0010
100.7213,37.7835,43.5683,0.0000,0.2057,0.1200,0.0000,0.6400,0.0000,-0.2234,-0.0831,-0.0113,996,1502,1500,1502,1000,1000,1505,1000,1000,1505,1005,1000,1505,-0.7768,-0.3685,0.4694,-0.0208,0.0397,0.9950,-0.1516,0.3178,0.1291,-0.2953,0.2204,0.0082,0.0438,0.2204,0.0082,0.0438,0.3000,0.0500,0.0002,0,-1.3605,0.0000,-0.0010,-1.3605,0.0000,-0.0010
100.7036,37.7800,43.5589,-0.0686,0.1371,0.1200,0.0000,0.6400,0.0000,-0.2243,-0.0840,-0.0135,996,1502,1500,1502,1000,1000,1505,1000,1000,1505,1005,1000,1505,1.3193,1.6186,1.0946,0.0285,-0.0171,0.9741,-0.1539,0.3218,0.1268,-0.2948,0.2204,0.0082,0.0438,0.2204,0.0082,0.0438,0.3000,0.0500,0.0002,0,-1.3605,0.0000,-0.0010,-1.3605,0.0000,-0.0010
100.6837,37.7725,43.5464,0.0000,0.1371,0.1200,0.0000,0.6400,0.0000,-0.2241,-0.0839,-0.0095,996,1502,1500,1502,1000,1000,1505,1000,1000,1505,1005,1000,1505,1.0447,1.4198,-0.0884,0.0032,-0.1111,0.9987,-0.1497,0.3175,0.1308,-0.2986,0.2204,0.0082,0.0438,0.2204,0.0082,0.0438,0.3000,0.0500,0.0002,0,-1.3605,0.0000,-0.0010,-1.3605,0.0000,-0.0010
100.6645,37.7774,43.5343,0.0000,0.1371,0.1200,0.0000,0.6400,0.0000,-0.2233,-0.0827,-0.0077,996,1502,1500,1502,1000,1000,1505,1000,1000,1505,1005,1000,1505,-0.7863,-1.2800,-0.6297,-0.0001,-0.0412,1.0023,-0.1483,0.3137,0.1329,-0.2983,0.2204,0.0082,0.0438,0.2204,0.0082,0.0438,0.3000,0.0500,0.0002,0,-1.3605,0.0000,-0.0010,-1.3605,0.0000,-0.0010
100.6434,37.7836,43.5238,0.1371,-0.0000,0.1200,0.0000,0.6400,0.0000,-0.2232,-0.0830,-0.0105,998,1504,1501,1502,1000,1000,1505,1000,1000,1505,1005,1000,1505,-0.8863,-0.6975,0.2548,-0.0134,0.0067,0.9872,-0.1508,0.3167,0.1297,-0.2957,0.2204,0.0082,0.0438,0.2204,0.0082,0.0438,0.3000,0.0500,0.0002,0,-1.3605,0.0000,-0.0010,-1.3605,0.0000,-0.0010
100.6214,37.7858,43.5114,0.0686,0.1371,0.1200,0.0000,0.6400,0.0000,-0.2240,-0.0837,-0.0108,996,1502,1500,1502,1000,1000,1505,1000,1000,1505,1005,1000,1505,1.0757,0.9636,0.2216,0.0081,-0.0191,0.9738,-0.1511,0.3185,0.1295,-0.2969,0.2204,0.0082,0.0438,0.2204,0.0082,0.0438,0.3000,0.0500,0.0002,0,-1.3605,0.0000,-0.0010,-1.3605,0.0000,-0.0010
100.5951,37.7891,43.4956,-0.0686,-0.0000,0.1200,0.0000,0.6400,0.0000,-0.2236,-0.0836,-0.0070,996,1502,1500,1502,1000,1000,1505,1000,1000,1505,1005,1000,1505,0.1463,0.8270,-0.8966,-0.0002,-0.0861,1.0025,-0.1470,0.3143,0.1329,-0.3002,0.2204,0.0082,0.0438,0.2204,0.0082,0.0438,0.3000,0.0500,0.0002,0,-1.3605,0.0000,-0.0010,-1.3605,0.0000,-0.0010
100.5652,37.7946,43.4784,0.0000,0.2057,0.1200,0.0000,0.6400,0.0000,-0.2228,-0.0828,-0.0097,996,1502,1500,1502,1000,1000,1505,1000,1000,1505,1005,1000,1505,-1.4788,-1.1354,0.0497,0.0329,-0.0651,1.0159,-0.1497,0.3153,0.1303,-0.2959,0.2204,0.0082,0.0438,0.2204,0.0082,0.0438,0.3000,0.0500,0.0002,0,-1.3605,0.0000,-0.0010,-1.3605,0.0000,-0.0010
100.5450,37.7932,43.4696,0.0000,0.1371,0.1200,0.0000,0.6400,0.0000,-0.2232,-0.0831,-0.0125,996,1502,1500,1502,1000,1000,1505,1000,1000,1505,1005,1000,1505,-0.3256,-0.3447,0.9353,0.0119,-0.0279,0.9915,-0.1526,0.3189,0.1276,-0.2939,0.2204,0.0082,0.0438,0.2204,0.0082,0.0438,0.3000,0.0500,0.0002,0,-1.3605,0.0000,-0.0010,-1.3605,0.0000,-0.0010
100.5243,37.7915,43.4589,0.0000,0.1371,0.1200,0.0000,0.6400,0.0000,-0.2239,-0.0838,-0.0113,996,1502,1500,1502,1000,1000,1505,1000,1000,1505,1005,1000,1505,1.3226,1.0526,0.3925,-0.0045,-0.0284,0.9790,-0.1515,0.3190,0.1288,-0.2963,0.2204,0.0082,0.0438,0.2204,0.0082,0.0438,0.3000,0.0500,0.0002,0,-1.3605,0.0000,-0.0010,-1.3605,0.0000,-0.0010
100.5031,37.7933,43.4438,0.0686,0.2057,0.1200,0.0000,0.6400,0.0000,-0.2234,-0.0836,-0.0081,998,1504,1501,1502,1000,1000,1505,1000,1000,1505,1005,1000,1505,0.3082,0.7020,-0.5984,-0.0197,-0.0410,0.9879,-0.1479,0.3151,0.1318,-0.2990,0.2204,0.0082,0.0438,0.2204,0.0082,0.0438,0.3000,0.0500,0.0002,0,-1.3605,0.0000,-0.0010,-1.3605,0.0000,-0.0010
100.4724,37.7961,43.4228,-0.0686,0.2057,0.1200,0.0000,0.6400,0.0000,-0.2226,-0.0827,-0.0099,996,1502,1500,1502,1000,1000,1505,1000,1000,1505,1005,1000,1505,-1.4032,-1.4666,0.1364,0.0140,-0.0565,1.0108,-0.1498,0.3152,0.1301,-0.2954,0.2204,0.0082,0.0438,0.2204,0.0082,0.0438,0.3000,0.0500,0.0002,0,-1.3605,0.0000,-0.0010,-1.3605,0.0000,-0.0010
100.4417,37.7979,43.4037,0.0000,0.2057,0.1200,0.0000,0.6400,0.0000,-0.2228,-0.0829,-0.0111,996,1502,1500,1502,1000,1000,1505,1000,1000,1505,1005,1000,1505,-0.8781,-0.8991,0.4692,0.0189,-0.0447,0.9804,-0.1510,0.3168,0.1287,-0.2946,0.2204,0.0082,0.0438,0.2204,0.0082,0.0438,0.3000,0.0500,0.0002,0,-1.3605,0.0000,-0.0010,-1.3605,0.0000,-0.0010
100.4122,37.8024,43.3877,0.0000,0.2057,0.1200,0.0000,0.6400,0.0000,-0.2234,-0.0836,-0.0099,996,1502,1500,1502,1000,1000,1505,1000,1000,1505,1005,1000,1505,0.7344,0.6152,-0.0803,-0.0098,-0.0221,0.9751,-0.1497,0.3169,0.1300,-0.2971,0.2204,0.0082,0.0438,0.2204,0.0082,0.0438,0.3000,0.0500,0.0002,0,-1.3605,0.0000,-0.0010,-1.3605,0.0000,-0.0010
100.3788,37.8067,43.3697,-0.0686,0.1371,0.1200,0.0000,0.6400,0.0000,-0.2227,-0.0835,-0.0087,996,1502,1500,1502,1000,1000,1505,1000,1000,1505,1005,1000,1505,-0.7521,0.3768,-0.4253,-0.0009,-0.0435,0.9799,-0.1479,0.3149,0.1305,-0.2975,0.2204,0.0082,0.0438,0.2204,0.0082,0.0438,0.3000,0.0500,0.0002,0,-1.3605,0.0000,-0.0010,-1.3605,0.0000,-0.0010
100.3467,37.8053,43.3548,-0.0686,0.1371,0.1200,0.0000,0.6400,0.0000,-0.2221,-0.0829,-0.0104,996,1502,1500,1502,1000,1000,1505,1000,1000,1505,1005,1000,1505,-2.0013,-0.9479,0.3191,0.0098,-0.0450,1.0225,-0.1495,0.3154,0.1288,-0.2946,0.2204,0.0082,0.0438,0.2204,0.0082,0.0438,0.3000,0.0500,0.0002,0,-1.3605,0.0000,-0.0010,-1.3605,0.0000,-0.0010
100.3162,37.8048,43.3406,0.0000,0.2057,0.1200,0.0000,0.6400,0.0000,-0.2226,-0.0832,-0.0110,998,1504,1501,1502,1000,1000,1505,1000,1000,1505,1005,1000,1505,-0.5809,-0.1829,0.4873,0.0095,-0.0559,0.9986,-0.1504,0.3169,0.1284,-0.2948,0.2204,0.0082,0.0438,0.2204,0.0082,0.0438,0.3000,0.0500,0.0002,0,-1.3605,0.0000,-0.0010,-1.3605,0.0000,-0.0010
100.2891,37.8106,43.3252,0.0000,0.1371,0.1200,0.0000,0.6400,0.0000,-0.2233,-0.0835,-0.0104,996,1502,1500,1502,1000,1000,1505,1000,1000,1505,1005,1000,1505,0.9793,0.3564,0.0270,-0.0157,-0.0189,0.9658,-0.1501,0.3171,0.1294,-0.2964,0.2204,0.0082,0.0438,0.2204,0.0082,0.0438,0.3000,0.0500,0.0002,0,-1.3605,0.0000,-0.0010,-1.3605,0.0000,-0.0010
100.2614,37.8149,43.3021,0.0686,0.1371,0.1200,0.0000,0.6400,0.0000,-0.2228,-0.0831,-0.0086,996,1502,1500,1502,1000,1000,1505,1000,1000,1505,1005,1000,1505,0.1841,-0.4985,-0.4083,0.0048,-0.0642,0.9821,-0.1483,0.3146,0.1311,-0.2974,0.2204,0.0082,0.0438,0.2204,0.0082,0.0438,0.3000,0.0500,0.0002,0,-1.3605,0.0000,-0.0010,-1.3605,0.0000,-0.0010
100.2357,37.8134,43.2755,0.0686,0.1371,0.1200,0.0000,0.6400,0.0000,-0.2225,-0.0827,-0.0100,996,1502,1500,1502,1000,1000,1505,1000,1000,1505,1005,1000,1505,-0.4084,-1.4804,0.2564,0.0046,-0.0766,1.0105,-0.1499,0.3152,0.1298,-0.2952,0.2204,0.0082,0.0438,0.2204,0.0082,0.0438,0.3000,0.0500,0.0002,0,-1.3605,0.0000,-0.0010,-1.3605,0.0000,-0.0010
100.2146,37.8165,43.2533,0.0000,0.1371,0.1200,0.0000,0.6400,0.0000,-0.2230,-0.0831,-0.0106,996,1502,1500,1502,1000,1000,1505,1000,1000,1505,1005,1000,1505,0.6972,-0.5221,0.3315,-0.0053,-0.0370,0.9883,-0.1505,0.3167,0.1292,-0.2955,0.2204,0.0082,0.0438,0.2204,0.0082,0.0438,0.3000,0.0500,0.0002,0,-1.3605,0.0000,-0.0010,-1.3605,0.0000,-0.0010
100.1972,37.8230,43.2364,0.0686,0.2057,0.1200,0.0000,0.6400,0.0000,-0.2234,-0.0836,-0.0103,996,1502,1500,1502,1000,1000,1505,1000,1000,1505,1005,1000,1505,1.7284,0.4830,0.0333,0.0045,0.0047,0.9662,-0.1501,0.3173,0.1295,-0.2966,0.2204,0.0082,0.0438,0.2204,0.0082,0.0438,0.3000,0.0500,0.0002,0,-1.3605,0.0000,-0.0010,-1.3605,0.0000,-0.0010
100.1764,37.8279,43.2196,0.0000,0.1371,0.1200,0.0000,0.6400,0.0000,-0.2226,-0.0835,-0.0076,998,1504,1501,1502,1000,1000,1505,1000,1000,1505,1005,1000,1505,0.0989,0.2034,-0.7128,0.0118,-0.0492,0.9917,-0.1467,0.3137,0.1316,-0.2985,0.2204,0.0082,0.0438,0.2204,0.0082,0.0438,0.3000,0.0500,0.0002,0,-1.3605,0.0000,-0.0010,-1.3605,0.0000,-0.0010
100.1497,37.8308,43.2002,-0.0686,0.2057,0.1200,0.0000,0.6400,0.0000,-0.2220,-0.0829,-0.0087,996,1502,1500,1502,1000,1000,1505,1000,1000,1505,1005,1000,1505,-1.1774,-1.0802,-0.2091,-0.0107,-0.0688,1.0071,-0.1478,0.3136,0.1304,-0.2962,0.2204,0.0082,0.0438,0.2204,0.0082,0.0438,0.3000,0.0500,0.0002,0,-1.3605,0.0000,-0.0010,-1.3605,0.0000,-0.0010
100.1242,37.8370,43.1872,0.0000,0.2057,0.1200,0.0000,0.6400,0.0000,-0.2222,-0.0832,-0.0101,996,1502,1500,1502,1000,1000,1505,1000,1000,1505,1005,1000,1505,-0.5859,-0.4084,0.1139,-0.0156,-0.0314,0.9941,-0.1491,0.3155,0.1289,-0.2953,0.2204,0.0082,0.0438,0.2204,0.0082,0.0438,0.3000,0.0500,0.0002,0,-1.3605,0.0000,-0.0010,-1.3605,0.0000,-0.0010
100.0920,37.8440,43.1699,-0.0686,0.0686,0.1200,0.0000,0.6400,0.0000,-0.2226,-0.0836,-0.0112,996,1502,1500,1502,1000,1000,1505,1000,1000,1505,1005,1000,1505,0.3814,0.5090,0.2476,0.0095,-0.0010,0.9586,-0.1501,0.3174,0.1277,-0.2950,0.2204,0.0082,0.0438,0.2204,0.0082,0.0438,0.3000,0.0500,0.0002,0,-1.3605,0.0000,-0.0010,-1.3605,0.0000,-0.0010
100.0555,37.8446,43.1498,-0.0686,0.2057,0.1200,0.0000,0.6400,0.0000,-0.2218,-0.0835,-0.0088,996,1502,1500,1502,1000,1000,1505,1000,1000,1505,1005,1000,1505,-1.0792,0.1755,-0.3116,0.0052,-0.0445,0.9907,-0.1472,0.3142,0.1295,-0.2965,0.2204,0.0082,0.0438,0.2204,0.0082,0.0438,0.3000,0.0500,0.0002,0,-1.3605,0.0000,-0.0010,-1.3605,0.0000,-0.0010
100.0172,37.8412,43.1266,-0.0686,0.0686,0.1200,0.0000,0.6400,0.0000,-0.2214,-0.0828,-0.0103,996,1502,1500,1502,1000,1000,1505,1000,1000,1505,1005,1000,1505,-1.9798,-1.2668,0.3257,0.0074,-0.0582,1.0028,-0.1488,0.3145,0.1282,-0.2939,0.2204,0.0082,0.0438,0.2204,0.0082,0.0438,0.3000,0.0500,0.0002,0,-1.3605,0.0000,-0.0010,-1.3605,0.0000,-0.0010
99.9856,37.8389,43.1121,0.0000,0.2057,0.1200,0.0000,0.6400,0.0000,-0.2219,-0.0832,-0.0118,998,1504,1501,1502,1000,1000,1505,1000,1000,1505,1005,1000,1505,-0.4686,-0.4302,0.8040,-0.0247,-0.0379,0.9978,-0.1506,0.3170,0.1269,-0.2933,0.2204,0.0082,0.0438,0.2204,0.0082,0.0438,0.3000,0.0500,0.0002,0,-1.3605,0.0000,-0.0010,-1.3605,0.0000,-0.0010
99.9552,37.8393,43.0951,0.0000,0.0686,0.1200,0.0000,0.6400,0.0000,-0.2225,-0.0836,-0.0126,996,1502,1500,1502,1000,1000,1505,1000,1000,1505,1005,1000,1505,0.9013,0.4433,0.8056,0.0229,-0.0120,0.9745,-0.1515,0.3187,0.1263,-0.2934,0.2204,0.0082,0.0438,0.2204,0.0082,0.0438,0.3000,0.0500,0.0002,0,-1.3605,0.0000,-0.0010,-1.3605,0.0000,-0.0010
99.9271,37.8378,43.0764,0.0000,0.1371,0.1200,0.0000,0.6400,0.0000,-0.2221,-0.0835,-0.0095,996,1502,1500,1502,1000,1000,1505,1000,1000,1505,1005,1000,1505,0.1381,0.2561,-0.0870,0.0278,-0.0958,0.9881,-0.1481,0.3151,0.1291,-0.2961,0.2204,0.0082,0.0438,0.2204,0.0082,0.0438,0.3000,0.0500,0.0002,0,-1.3605,0.0000,-0.0010,-1.3605,0.0000,-0.0010
99.8987,37.8381,43.0543,0.0000,0.1371,0.1200,0.0000,0.6400,0.0000,-0.2216,-0.0827,-0.0093,996,1502,1500,1502,1000,1000,1505,1000,1000,1505,1005,1000,1505,-0.8582,-1.4758,-0.0507,0.0040,-0.0910,1.0132,-0.1481,0.3136,0.1296,-0.2951,0.2204,0.0082,0.0438,0.2204,0.0082,0.0438,0.3000,0.0500,0.0002,0,-1.3605,0.0000,-0.0010,-1.3605,0.0000,-0.0010
99.8781,37.8425,43.0392,0.0000,0.1371,0.1200,0.0000,0.6400,0.0000,-0.2219,-0.0830,-0.0100,996,1502,1500,1502,1000,1000,1505,1000,1000,1505,1005,1000,1505,0.0358,-0.8170,0.1398,-0.0146,-0.0489,0.9929,-0.1489,0.3150,0.1289,-0.2950,0.2204,0.0082,0.0438,0.2204,0.0082,0.0438,0.3000,0.0500,0.0002,0,-1.3605,0.0000,-0.0010,-1.3605,0.0000,-0.0010
99.8600,37.8477,43.0244,0.0000,0.1371,0.1200,0.0000,0.6400,0.0000,-0.2226,-0.0838,-0.0101,996,1502,1500,1502,1000,1000,1505,1000,1000,1505,1005,1000,1505,1.6852,0.8095,-0.0171,0.0052,0.0117,0.9683,-0.1490,0.3165,0.1287,-0.2963,0.2204,0.0082,0.0438,0.2204,0.0082,0.0438,0.3000,0.0500,0.0002,0,-1.3605,0.0000,-0.0010,-1.3605,0.0000,-0.0010
99.8408,37.8521,43.0082,0.0686,0.1371,0.1200,0.0000,0.6400,0.0000,-0.2222,-0.0839,-0.0069,998,1504,1501,1502,1000,1000,1505,1000,1000,1505,1005,1000,1505,0.8378,1.1848,-0.8699,0.0023,-0.0639,0.9845,-0.1452,0.3131,0.1313,-0.2992,0.2204,0.0082,0.0438,0.2204,0.0082,0.0438,0.3000,0.0500,0.0002,0,-1.3605,0.0000,-0.0010,-1.3605,0.0000,-0.0010
99.8201,37.8580,42.9941,0.0000,0.1371,0.1200,0.0000,0.6400,0.0000,-0.2214,-0.0829,-0.0083,996,1502,1500,1502,1000,1000,1505,1000,1000,1505,1005,1000,1505,-0.9505,-1.2991,-0.3696,0.0169,-0.0552,1.0166,-0.1468,0.3125,0.1302,-0.2960,0.2204,0.0082,0.0438,0.2204,0.0082,0.0438,0.3000,0.0500,0.0002,0,-1.3605,0.0000,-0.0010,-1.3605,0.0000,-0.0010
99.7997,37.8617,42.9828,0.0686,0.1371,0.1200,0.0000,0.6400,0.0000,-0.2216,-0.0831,-0.0111,996,1502,1500,1502,1000,1000,1505,1000,1000,1505,1005,1000,1505,-0.3324,-0.7165,0.4801,0.0011,-0.0443,0.9920,-0.1495,0.3158,0.1274,-0.2937,0.2204,0.0082,0.0438,0.2204,0.0082,0.0438,0.3000,0.0500,0.0002,0,-1.3605,0.0000,-0.0010,-1.3605,0.0000,-0.0010
99.7784,37.8637,42.9709,0.0686,0.2057,0.1200,0.0000,0.6400,0.0000,-0.2222,-0.0839,-0.0106,996,1502,1500,1502,1000,1000,1505,1000,1000,1505,1005,1000,1505,1.2586,0.9609,0.1566,-0.0034,-0.0156,0.9796,-0.1490,0.3168,0.1277,-0.2955,0.2204,0.0082,0.0438,0.2204,0.0082,0.0438,0.3000,0.0500,0.0002,0,-1.3605,0.0000,-0.0010,-1.3605,0.0000,-0.0010
99.7519,37.8671,42.9505,0.0000,0.2743,0.1200,0.0000,0.6400,0.0000,-0.2219,-0.0839,-0.0079,996,1502,1500,1502,1000,1000,1505,1000,1000,1505,1005,1000,1505,0.6035,0.9259,-0.6079,-0.0088,-0.0760,0.9782,-0.1460,0.3137,0.1301,-0.2978,0.2204,0.0082,0.0438,0.2204,0.0082,0.0438,0.3000,0.0500,0.0002,0,-1.3605,0.0000,-0.0010,-1.3605,0.0000,-0.0010
99.7250,37.8663,42.9303,0.0000,0.2057,0.1200,0.0000,0.6400,0.0000,-0.2212,-0.0829,-0.0105,996,1502,1500,1502,1000,1000,1505,1000,1000,1505,1005,1000,1505,-0.9765,-1.2217,0.3392,0.0094,-0.0373,0.9987,-0.1487,0.3146,0.1278,-0.2936,0.2204,0.0082,0.0438,0.2204,0.0082,0.0438,0.3000,0.0500,0.0002,0,-1.3605,0.0000,-0.0010,-1.3605,0.0000,-0.0010
99.7014,37.8653,42.9134,0.0000,0.2057,0.1200,0.0000,0.6400,0.0000,-0.2215,-0.0830,-0.0117,998,1504,1501,1502,1000,1000,1505,1000,1000,1505,1005,1000,1505,-0.0318,-0.9395,0.7215,0.0041,-0.0048,0.9910,-0.1501,0.3162,0.1268,-0.2929,0.2204,0.0082,0.0438,0.2204,0.0082,0.0438,0.3000,0.0500,0.0002,0,-1.3605,0.0000,-0.0010,-1.3605,0.0000,-0.0010
99.6778,37.8686,42.8967,-0.0686,0.2057,0.1200,0.0000,0.6400,0.0000,-0.2220,-0.0837,-0.0111,996,1502,1500,1502,1000,1000,1505,1000,1000,1505,1005,1000,1505,1.2102,0.4310,0.2479,0.0388,-0.0420,0.9754,-0.1495,0.3168,0.1272,-0.2945,0.2204,0.0082,0.0438,0.2204,0.0082,0.0438,0.3000,0.0500,0.0002,0,-1.3605,0.0000,-0.0010,-1.3605,0.0000,-0.0010
99.6562,37.8700,42.8805,-0.0686,0.2057,0.1200,0.0000,0.6400,0.0000,-0.2216,-0.0838,-0.0080,996,1502,1500,1502,1000,1000,1505,1000,1000,1505,1005,1000,1505,0.3427,0.7142,-0.5190,0.0023,-0.1165,0.9989,-0.1458,0.3134,0.1298,-0.2973,0.2204,0.0082,0.0438,0.2204,0.0082,0.0438,0.3000,0.0500,0.0002,0,-1.3605,0.0000,-0.0010,-1.3605,0.0000,-0.0010
99.6344,37.8698,42.8636,0.0000,0.1371,0.1200,0.0000,0.6400,0.0000,-0.2211,-0.0832,-0.0095,996,1502,1500,1502,1000,1000,1505,1000,1000,1505,1005,1000,1505,-0.5254,-0.7188,0.0982,-0.0206,-0.0499,1.0000,-0.1475,0.3138,0.1285,-0.2948,0.2204,0.0082,0.0438,0.2204,0.0082,0.0438,0.3000,0.0500,0.0002,0,-1.3605,0.0000,-0.0010,-1.3605,0.0000,-0.0010
99.6177,37.8748,42.8527,-0.1371,0.1371,0.1200,0.0000,0.6400,0.0000,-0.2214,-0.0833,-0.0097,996,1502,1500,1502,1000,1000,1505,1000,1000,1505,1005,1000,1505,0.1818,-0.3413,0.0689,-0.0211,0.0131,0.9956,-0.1478,0.3145,0.1284,-0.2950,0.2204,0.0082,0.0438,0.2204,0.0082,0.0438,0.3000,0.0500,0.0002,0,-1.3605,0.0000,-0.0010,-1.3605,0.0000,-0.0010
99.6033,37.8822,42.8414,0.0000,0.1371,0.1200,0.0000,0.6400,0.0000,-0.2220,-0.0837,-0.0096,996,1502,1500,1502,1000,1000,1505,1000,1000,1505,1005,1000,1505,1.6739,0.5482,-0.2541,0.0423,-0.0264,0.9770,-0.1479,0.3153,0.1288,-0.2962,0.2204,0.0082,0.0438,0.2204,0.0082,0.0438,0.3000,0.0500,0.0002,0,-1.3605,0.0000,-0.0010,-1.3605,0.0000,-0.0010
99.5869,37.8855,42.8260,-0.0686,0.0686,0.1200,0.0000,0.6400,0.0000,-0.2217,-0.0840,-0.0080,998,1504,1501,1502,1000,1000,1505,1000,1000,1505,1005,1000,1505,1.0120,1.0698,-0.5233,0.0089,-0.1270,0.9939,-0.1458,0.3137,0.1297,-0.2976,0.2204,0.0082,0.0438,0.2204,0.0082,0.0438,0.3000,0.0500,0.0002,0,-1.3605,0.0000,-0.0010,-1.3605,0.0000,-0.0010
99.5674,37.8877,42.8080,0.0686,0.0686,0.1200,0.0000,0.6400,0.0000,-0.2211,-0.0830,-0.0093,996,1502,1500,1502,1000,1000,1505,1000,1000,1505,1005,1000,1505,-0.3985,-1.1171,-0.0539,-0.0261,-0.0244,0.9920,-0.1473,0.3133,0.1288,-0.2948,0.2204,0.0082,0.0438,0.2204,0.0082,0.0438,0.3000,0.0500,0.0002,0,-1.3605,0.0000,-0.0010,-1.3605,0.0000,-0.0010
99.5477,37.8905,42.7961,0.0000,0.2743,0.1200,0.0000,0.6400,0.0000,-0.2210,-0.0831,-0.0116,996,1502,1500,1502,1000,1000,1505,1000,1000,1505,1005,1000,1505,-0.4777,-0.9875,0.8321,-0.0007,0.0150,0.9918,-0.1495,0.3157,0.1263,-0.2924,0.2204,0.0082,0.0438,0.2204,0.0082,0.0438,0.3000,0.0500,0.0002,0,-1.3605,0.0000,-0.0010,-1.3605,0.0000,-0.0010
99.5271,37.8765,42.7803,0.0000,0.2057,0.1200,0.0000,0.6400,0.0000,-0.2217,-0.0838,-0.0193,996,1502,1500,1502,1000,1000,1505,1000,1000,1505,1005,1000,1505,1.2551,0.8361,2.8737,0.0863,-0.0088,0.9950,-0.1572,0.3249,0.1185,-0.2862,0.2204,0.0082,0.0438,0.2204,0.0082,0.0438,0.3000,0.0500,0.0002,0,-1.3605,0.0000,-0.0010,-1.3605,0.0000,-0.0010
99.5012,37.8349,42.7566,0.0000,0.2057,0.1200,0.0000,0.6400,0.0000,-0.2217,-0.0840,-0.0242,996,1502,1500,1502,1000,1000,1505,1000,1000,1505,1005,1000,1505,1.3029,1.4248,4.6755,0.0001,-0.1309,1.0062,-0.1618,0.3299,0.1134,-0.2815,0.2204,0.0082,0.0438,0.2204,0.0082,0.0438,0.3000,0.0500,0.0002,0,-1.3605,0.0000,-0.0010,-1.3605,0.0000,-0.0010
99.4751,37.7682,42.7313,-0.0686,0.2057,0.1200,0.0000,0.6400,0.0000,-0.2208,-0.0831,-0.0310,996,1502,1500,1502,1000,1000,1505,1000,1000,1505,1005,1000,1505,-0.4104,-0.3584,7.1508,-0.0581,0.0036,0.9853,-0.1688,0.3349,0.1068,-0.2729,0.2204,0.0082,0.0438,0.2204,0.0082,0.0438,0.3000,0.0500,0.0002,0,-1.3605,0.0000,-0.0010,-1.3605,0.0000,-0.0010
99.4381,37.6905,42.7092,0.0000,0.2057,0.1200,0.0000,0.6400,0.0000,-0.2203,-0.0829,-0.0348,998,1504,1501,1502,1000,1000,1505,1000,1000,1505,1005,1000,1505,-1.4781,-0.3726,8.4622,0.0079,0.0428,0.9786,-0.1722,0.3380,0.1026,-0.2684,0.2204,0.0082,0.0438,0.2204,0.0082,0.0438,0.3000,0.0500,0.0002,0,-1.3605,0.0000,-0.0010,-1.3605,0.0000,-0.0010
99.3990,37.6342,42.6931,-0.0686,0.2743,0.1200,0.0000,0.6400,0.0000,-0.2203,-0.0833,-0.0215,996,1502,1500,1502,1000,1000,1505,1000,1000,1505,1005,1000,1505,-1.2363,0.8715,3.8595,0.0379,-0.0742,0.9716,-0.1585,0.3251,0.1155,-0.2822,0.2204,0.0082,0.0438,0.2204,0.0082,0.0438,0.3000,0.0500,0.0002,0,-1.3605,0.0000,-0.0010,-1.3605,0.0000,-0.0010
99.3586,37.6283,42.6683,-0.0686,0.2743,0.1200,0.0000,0.6400,0.0000,-0.2210,-0.0826,-0.0028,996,1502,1500,1502,1000,1000,1505,1000,1000,1505,1005,1000,1505,0.4358,-0.7339,-2.1482,-0.0470,-0.2011,1.0061,-0.1412,0.3064,0.1355,-0.3008,0.2204,0.0082,0.0438,0.2204,0.0082,0.0438,0.3000,0.0500,0.0002,0,-1.3605,0.0000,-0.0010,-1.3605,0.0000,-0.0010
99.3273,37.6657,42.6378,-0.0686,0.2057,0.1200,0.0000,0.6400,0.0000,-0.2205,-0.0815,0.0049,996,1502,1500,1502,1000,1000,1505,1000,1000,1505,1005,1000,1505,-0.3528,-3.3744,-4.7083,-0.0332,-0.1095,1.0291,-0.1341,0.2972,0.1439,-0.3070,0.2204,0.0082,0.0438,0.2204,0.0082,0.0438,0.3000,0.0500,0.0002,0,-1.3605,0.0000,-0.0010,-1.3605,0.0000,-0.0010
99.3109,37.7323,42.6092,0.0000,0.2057,0.1200,0.0000,0.6400,0.0000,-0.2214,-0.0825,0.0091,996,1502,1500,1502,1000,1000,1505,1000,1000,1505,1005,1000,1505,1.7862,-1.5664,-6.2503,-0.0237,-0.0412,0.9743,-0.1299,0.2948,0.1481,-0.3130,0.2204,0.0082,0.0438,0.2204,0.0082,0.0438,0.3000,0.0500,0.0002,0,-1.3605,0.0000,-0.0010,-1.3605,0.0000,-0.0010
99.3110,37.8108,42.5879,0.0000,0.2057,0.1200,0.0000,0.6400,0.0000,-0.2220,-0.0833,0.0093,996,1502,1500,1502,1000,1000,1505,1000,1000,1505,1005,1000,1505,3.1509,-0.1016,-6.5056,0.0362,0.0657,0.9515,-0.1294,0.2960,0.1481,-0.3147,0.2204,0.0082,0.0438,0.2204,0.0082,0.0438,0.3000,0.0500,0.0002,0,-1.3605,0.0000,-0.0010,-1.3605,0.0000,-0.0010
99.3222,37.8854,42.5866,0.0000,0.1371,0.1200,0.0000,0.6400,0.0000,-0.2217,-0.0836,0.0109,998,1504,1501,1502,1000,1000,1505,1000,1000,1505,1005,1000,1505,2.2242,0.2616,-6.9707,0.0990,-0.0493,1.0068,-0.1271,0.2943,0.1490,-0.3162,0.2204,0.0082,0.0438,0.2204,0.0082,0.0438,0.3000,0.0500,0.0002,0,-1.3605,0.0000,-0.0010,-1.3605,0.0000,-0.0010
99.3473,37.9405,42.6060,0.0686,0.2057,0.1200,0.0000,0.6400,0.0000,-0.2216,-0.0841,0.0055,996,1502,1500,1502,1000,1000,1505,1000,1000,1505,1005,1000,1505,1.9119,1.1841,-4.9440,0.0228,-0.1408,1.0212,-0.1320,0.3002,0.1429,-0.3112,0.2204,0.0082,0.0438,0.2204,0.0082,0.0438,0.3000,0.0500,0.0002,0,-1.3605,0.0000,-0.0010,-1.3605,0.0000,-0.0010
99.3795,37.9783,42.6358,0.0000,0.2057,0.1200,0.0000,0.6400,0.0000,-0.2220,-0.0850,-0.0013,996,1502,1500,1502,2008,1000,1505,1000,1000,1505,1005,1000,1505,2.7847,3.0293,-2.8353,-0.0688,-0.0553,0.9903,-0.1384,0.3084,0.1357,-0.3057,0.2204,0.0082,0.0438,0.2204,0.0082,0.0438,0.3000,0.0500,0.0002,0,-1.3605,0.0000,-0.0010,-1.3605,0.0000,-0.0010
99.3947,37.9972,42.6519,0.0686,0.2057,0.1200,0.0000,0.6400,0.0000,-0.2221,-0.0850,-0.0100,996,1502,1500,1502,2008,1000,1505,1000,1000,1505,1005,1000,1505,2.9190,2.7976,-0.1612,-0.0150,0.0795,0.9512,-0.1472,0.3171,0.1271,-0.2971,0.2204,0.0082,0.0438,0.2204,0.0082,0.0438,0.3000,0.0500,0.0002,0,-1.3605,0.0000,-0.0010,-1.3605,0.0000,-0.0010
99.3898,37.9913,42.6466,0.0686,0.2057,0.1200,0.0000,0.6400,0.0000,-0.2209,-0.0839,-0.0154,996,1502,1500,1502,2008,1000,1505,1000,1000,1505,1005,1000,1505,0.2454,0.2924,1.8334,0.0436,0.0350,0.9835,-0.1525,0.3202,0.1217,-0.2894,0.2204,0.0082,0.0438,0.2204,0.0082,0.0438,0.3000,0.0500,0.0002,0,-1.3605,0.0000,-0.0010,-1.3605,0.0000,-0.0010
99.3728,37.9428,42.6267,0.0000,0.2057,0.1200,0.0000,0.6400,0.0000,-0.2208,-0.0835,-0.0311,996,1502,1500,1502,2008,1000,1505,1000,1000,1505,1005,1000,1505,0.1010,-0.3920,6.8460,-0.0254,-0.0296,0.9770,-0.1685,0.3354,0.1063,-0.2732,0.2204,0.0082,0.0438,0.2204,0.0082,0.0438,0.3000,0.0500,0.0002,0,-1.3605,0.0000,-0.0010,-1.3605,0.0000,-0.0010
99.3802,37.8557,42.6200,0.0000,0.2057,0.1200,0.0000,0.6400,0.0000,-0.2224,-0.0844,-0.0395,998,1504,1501,1502,2008,1000,1505,1000,1000,1505,1005,1000,1505,3.5514,2.2186,9.7505,-0.0103,-0.0779,0.9895,-0.1774,0.3462,0.0985,-0.2673,0.2204,0.0082,0.0438,0.2204,0.0082,0.0438,0.3000,0.0500,0.0002,0,-1.3605,0.0000,-0.0010,-1.3605,0.0000,-0.0010
