roll_imu,pitch_imu,yaw_imu,alpha,beta,roll_des,pitch_des,yaw_des,throttle_des,roll_pid,pitch_pid,yaw_pid,radio_ch1,radio_ch2,radio_ch3,radio_ch4,radio_ch5,radio_ch6,radio_ch7,radio_ch8,radio_ch9,radio_ch10,radio_ch11,radio_ch12,radio_ch13,GyroX,GyroY,GyroZ,AccX,AccY,AccZ,s1_command,s2_command,s3_command,s4_command,kp_roll,ki_roll,kd_roll,kp_pitch,ki_pitch,kd_pitch,kp_yaw,ki_yaw,kd_yaw,failsafeTriggered,kp_alphaRoll,ki_alphaRoll,kd_alphaRoll,kp_betaPitch,ki_betaPitch,kd_betaPitch
0.0000,0.0000,0.0000,9.0171,-2.5714,0.0000,0.0000,0.0000,0.0000,0.0000,0.0000,0.0000,998,1504,1504,1501,1000,1000,1505,1000,1000,1505,1503,1407,1505,0.0000,0.0000,0.0000,0.0000,0.0000,0.0000,0.0000,0.0000,0.0000,0.0000,0.2204,0.0082,0.0438,0.2204,0.0082,0.0438,0.3000,0.0500,0.0002,0,-0.3000,-100.0000,-0.0010,-0.3000,-100.0000,-0.0010
12.7774,11.5727,1.3194,-0.1371,-0.0000,0.1200,0.1200,0.0000,0.0000,-0.0301,-0.0252,0.0005,996,1502,1502,1500,1000,1000,1505,1000,1000,1505,1503,1407,1505,0.2496,-0.1641,0.0057,-0.0179,0.0192,0.9470,-0.0043,0.0547,0.0054,-0.0558,0.2204,0.0082,0.0438,0.2204,0.0082,0.0438,0.3000,0.0500,0.0002,0,-1.3605,-121.0000,-0.0152,-1.3605,-121.0000,-0.0152
12.7471,11.5418,1.3128,-0.2057,-0.0686,0.1200,0.1200,0.0000,0.0000,-0.0301,-0.0251,0.0003,996,1502,1502,1500,1000,1000,1505,1000,1000,1505,1503,1407,1505,0.3941,-0.2356,0.0774,-0.0190,0.0208,0.9843,-0.0046,0.0548,0.0053,-0.0555,0.2204,0.0082,0.0438,0.2204,0.0082,0.0438,0.3000,0.0500,0.0002,0,-1.3605,-121.0000,-0.0152,-1.3605,-121.0000,-0.0152
12.7170,11.5085,1.3053,-0.1371,-0.0000,0.1200,0.1200,0.0000,0.0000,-0.0300,-0.0250,0.0007,996,1502,1502,1500,1000,1000,1505,1000,1000,1505,1503,1407,1505,0.5161,-0.2526,-0.0536,-0.0142,0.0195,0.9901,-0.0043,0.0543,0.0058,-0.0558,0.2204,0.0082,0.0438,0.2204,0.0082,0.0438,0.3000,0.0500,0.0002,0,-1.3605,-121.0000,-0.0152,-1.3605,-121.0000,-0.0152
12.6876,11.4756,1.2975,-0.2057,-0.1371,0.2400,0.2400,0.3200,0.0000,-0.0298,-0.0247,0.0028,997,1503,1503,1500,1000,1000,1505,1000,1000,1505,1503,1407,1505,0.6081,-0.1664,-0.0814,-0.0119,0.0206,0.9915,-0.0023,0.0517,0.0078,-0.0572,0.2204,0.0082,0.0438,0.2204,0.0082,0.0438,0.3000,0.0500,0.0002,0,-1.3605,-121.0000,-0.0152,-1.3605,-121.0000,-0.0152
12.6591,11.4432,1.2883,0.0000,0.0686,0.1200,0.1200,0.0000,0.0000,-0.0300,-0.0249,0.0010,996,1502,1502,1500,1000,1000,1505,1000,1000,1505,1503,1407,1505,0.6276,-0.1905,-0.1546,-0.0176,0.0186,0.9937,-0.0041,0.0538,0.0061,-0.0558,0.2204,0.0082,0.0438,0.2204,0.0082,0.0438,0.3000,0.0500,0.0002,0,-1.3605,-121.0000,-0.0152,-1.3605,-121.0000,-0.0152
12.6310,11.4109,1.2792,-0.0686,-0.0000,0.1200,0.1200,0.0000,0.0000,-0.0299,-0.0248,0.0012,996,1502,1502,1500,1000,1000,1505,1000,1000,1505,1503,1407,1505,0.6435,-0.1362,-0.1961,-0.0162,0.0227,0.9891,-0.0039,0.0535,0.0063,-0.0559,0.2204,0.0082,0.0438,0.2204,0.0082,0.0438,0.3000,0.0500,0.0002,0,-1.3605,-121.0000,-0.0152,-1.3605,-121.0000,-0.0152
12.6018,11.3788,1.2698,-0.0686,-0.0000,0.1200,0.1200,0.0000,0.0000,-0.0298,-0.0248,0.0010,996,1502,1502,1500,1000,1000,1505,1000,1000,1505,1503,1407,1505,0.6062,-0.1186,-0.1357,-0.0147,0.0243,0.9923,-0.0041,0.0536,0.0060,-0.0556,0.2204,0.0082,0.0438,0.2204,0.0082,0.0438,0.3000,0.0500,0.0002,0,-1.3605,-121.0000,-0.0152,-1.3605,-121.0000,-0.0152
12.5727,11.3459,1.2613,-0.0686,-0.0686,0.1200,0.1200,0.0000,0.0000,-0.0297,-0.0246,0.0008,996,1502,1502,1500,1000,1000,1505,1000,1000,1505,1503,1407,1505,0.4874,-0.2175,-0.0865,-0.0136,0.0274,0.9881,-0.0042,0.0535,0.0059,-0.0552,0.2204,0.0082,0.0438,0.2204,0.0082,0.0438,0.3000,0.0500,0.0002,0,-1.3605,-121.0000,-0.0152,-1.3605,-121.0000,-0.0152
12.5429,11.3138,1.2540,-0.1371,-0.0000,0.1200,0.1200,0.0000,0.0000,-0.0296,-0.0246,0.0007,996,1502,1502,1500,1000,1000,1505,1000,1000,1505,1503,1407,1505,0.4739,-0.0832,-0.0304,-0.0143,0.0234,0.9868,-0.0043,0.0536,0.0057,-0.0550,0.2204,0.0082,0.0438,0.2204,0.0082,0.0438,0.3000,0.0500,0.0002,0,-1.3605,-121.0000,-0.0152,-1.3605,-121.0000,-0.0152
12.5131,11.2820,1.2471,-0.0686,-0.0000,0.2400,0.2400,0.3200,0.0000,-0.0293,-0.0243,0.0024,997,1503,1503,1500,1000,1000,1505,1000,1000,1505,1503,1407,1505,0.4156,-0.0353,0.0463,-0.0129,0.0225,0.9900,-0.0026,0.0512,0.0073,-0.0560,0.2204,0.0082,0.0438,0.2204,0.0082,0.0438,0.3000,0.0500,0.0002,0,-1.3605,-121.0000,-0.0152,-1.3605,-121.0000,-0.0152
12.4817,11.2504,1.2405,-0.1371,0.0686,0.1200,0.1200,0.0000,0.0000,-0.0294,-0.0245,0.0004,996,1502,1502,1500,1000,1000,1505,1000,1000,1505,1503,1407,1505,0.2455,-0.0727,0.0604,-0.0131,0.0240,0.9845,-0.0045,0.0535,0.0053,-0.0543,0.2204,0.0082,0.0438,0.2204,0.0082,0.0438,0.3000,0.0500,0.0002,0,-1.3605,-121.0000,-0.0152,-1.3605,-121.0000,-0.0152
12.4487,11.2191,1.2342,-0.0686,0.1371,0.1200,0.1200,0.0000,0.0000,-0.0293,-0.0245,0.0005,996,1502,1502,1500,1000,1000,1505,1000,1000,1505,1503,1407,1505,0.1430,0.0204,0.0599,-0.0127,0.0201,0.9913,-0.0044,0.0533,0.0053,-0.0542,0.2204,0.0082,0.0438,0.2204,0.0082,0.0438,0.3000,0.0500,0.0002,0,-1.3605,-121.0000,-0.0152,-1.3605,-121.0000,-0.0152
12.4148,11.1876,1.2275,-0.2057,0.1371,0.1200,0.1200,0.0000,0.0000,-0.0292,-0.0244,0.0005,996,1502,1502,1500,1000,1000,1505,1000,1000,1505,1503,1407,1505,0.0303,-0.0068,0.0280,-0.0169,0.0241,0.9863,-0.0043,0.0531,0.0052,-0.0540,0.2204,0.0082,0.0438,0.2204,0.0082,0.0438,0.3000,0.0500,0.0002,0,-1.3605,-121.0000,-0.0152,-1.3605,-121.0000,-0.0152
12.3804,11.1570,1.2207,-0.1371,-0.0000,0.1200,0.1200,0.0000,0.0000,-0.0291,-0.0243,0.0008,996,1502,1502,1500,1000,1000,1505,1000,1000,1505,1503,1407,1505,0.0513,-0.0147,-0.0551,-0.0129,0.0206,0.9900,-0.0040,0.0526,0.0056,-0.0542,0.2204,0.0082,0.0438,0.2204,0.0082,0.0438,0.3000,0.0500,0.0002,0,-1.3605,-121.0000,-0.0152,-1.3605,-121.0000,-0.0152
12.3462,11.1267,1.2134,-0.0686,0.0686,0.1200,0.1200,0.0000,0.0000,-0.0291,-0.0243,0.0010,996,1502,1502,1500,1000,1000,1505,1000,1000,1505,1503,1407,1505,0.1308,0.0657,-0.0914,-0.0183,0.0219,0.9848,-0.0038,0.0524,0.0057,-0.0543,0.2204,0.0082,0.0438,0.2204,0.0082,0.0438,0.3000,0.0500,0.0002,0,-1.3605,-121.0000,-0.0152,-1.3605,-121.0000,-0.0152
12.3124,11.0961,1.2060,-0.1371,0.0686,0.2400,0.2400,0.3200,0.0000,-0.0287,-0.0239,0.0025,997,1503,1503,1500,1000,1000,1505,1000,1000,1505,1503,1407,1505,0.0786,-0.0392,-0.0105,-0.0176,0.0222,0.9856,-0.0023,0.0501,0.0072,-0.0551,0.2204,0.0082,0.0438,0.2204,0.0082,0.0438,0.3000,0.0500,0.0002,0,-1.3605,-121.0000,-0.0152,-1.3605,-121.0000,-0.0152
12.2791,11.0648,1.1992,-0.0686,0.0686,0.1200,0.1200,0.0000,0.0000,-0.0289,-0.0241,0.0006,996,1502,1502,1500,1000,1000,1505,1000,1000,1505,1503,1407,1505,0.2071,-0.0595,0.0008,-0.0142,0.0235,0.9849,-0.0043,0.0525,0.0054,-0.0536,0.2204,0.0082,0.0438,0.2204,0.0082,0.0438,0.3000,0.0500,0.0002,0,-1.3605,-121.0000,-0.0152,-1.3605,-121.0000,-0.0152
12.2458,11.0336,1.1922,-0.0686,0.0686,0.1200,0.1200,0.0000,0.0000,-0.0288,-0.0241,0.0007,996,1502,1502,1500,1000,1000,1505,1000,1000,1505,1503,1407,1505,0.1611,0.0489,-0.0410,-0.0154,0.0227,0.9871,-0.0041,0.0522,0.0055,-0.0536,0.2204,0.0082,0.0438,0.2204,0.0082,0.0438,0.3000,0.0500,0.0002,0,-1.3605,-121.0000,-0.0152,-1.3605,-121.0000,-0.0152
12.2120,11.0031,1.1854,-0.1371,0.0686,0.1200,0.1200,0.0000,0.0000,-0.0287,-0.0241,0.0008,996,1502,1502,1500,1000,1000,1505,1000,1000,1505,1503,1407,1505,0.0851,0.1840,-0.0556,-0.0169,0.0235,0.9908,-0.0039,0.0520,0.0055,-0.0536,0.2204,0.0082,0.0438,0.2204,0.0082,0.0438,0.3000,0.0500,0.0002,0,-1.3605,-121.0000,-0.0152,-1.3605,-121.0000,-0.0152
12.1769,10.9740,1.1790,-0.1371,-0.0000,0.1200,0.1200,0.0000,0.0000,-0.0285,-0.0240,0.0007,996,1502,1502,1500,1000,1000,1505,1000,1000,1505,1503,1407,1505,-0.1983,0.2281,-0.0261,-0.0161,0.0241,0.9898,-0.0038,0.0519,0.0052,-0.0532,0.2204,0.0082,0.0438,0.2204,0.0082,0.0438,0.3000,0.0500,0.0002,0,-1.3605,-121.0000,-0.0152,-1.3605,-121.0000,-0.0152
12.1395,10.9450,1.1730,-0.2057,-0.0000,0.1200,0.1200,0.0000,0.0000,-0.0284,-0.0240,0.0006,996,1502,1502,1500,1000,1000,1505,1000,1000,1505,1503,1407,1505,-0.3389,0.3403,0.0081,-0.0143,0.0238,0.9881,-0.0038,0.0518,0.0050,-0.0530,0.2204,0.0082,0.0438,0.2204,0.0082,0.0438,0.3000,0.0500,0.0002,0,-1.3605,-121.0000,-0.0152,-1.3605,-121.0000,-0.0152
12.1000,10.9174,1.1675,-0.1371,0.0686,0.2400,0.1200,0.3200,0.0000,-0.0279,-0.0240,0.0023,997,1503,1502,1500,1000,1000,1505,1000,1000,1505,1503,1407,1505,-0.5695,0.3571,0.0699,-0.0155,0.0214,0.9923,-0.0017,0.0496,0.0062,-0.0542,0.2204,0.0082,0.0438,0.2204,0.0082,0.0438,0.3000,0.0500,0.0002,0,-1.3605,-121.0000,-0.0152,-1.3605,-121.0000,-0.0152
12.0588,10.8900,1.1624,-0.2057,-0.1371,0.1200,0.1200,0.0000,0.0000,-0.0281,-0.0239,0.0004,996,1502,1502,1500,1000,1000,1505,1000,1000,1505,1503,1407,1505,-0.6290,0.3001,0.0847,-0.0192,0.0207,0.9868,-0.0038,0.0516,0.0046,-0.0523,0.2204,0.0082,0.0438,0.2204,0.0082,0.0438,0.3000,0.0500,0.0002,0,-1.3605,-121.0000,-0.0152,-1.3605,-121.0000,-0.0152
12.0166,10.8611,1.1574,-0.1371,0.0686,0.1200,0.1200,0.0000,0.0000,-0.0280,-0.0237,0.0003,996,1502,1502,1500,1000,1000,1505,1000,1000,1505,1503,1407,1505,-0.7203,0.1435,0.1099,-0.0165,0.0203,0.9895,-0.0039,0.0514,0.0045,-0.0520,0.2204,0.0082,0.0438,0.2204,0.0082,0.0438,0.3000,0.0500,0.0002,0,-1.3605,-121.0000,-0.0152,-1.3605,-121.0000,-0.0152
11.9743,10.8311,1.1522,-0.2057,-0.0686,0.1200,0.1200,0.0000,0.0000,-0.0279,-0.0237,0.0001,996,1502,1502,1500,1000,1000,1505,1000,1000,1505,1503,1407,1505,-0.6457,0.0987,0.1483,-0.0186,0.0207,0.9834,-0.0041,0.0514,0.0044,-0.0517,0.2204,0.0082,0.0438,0.2204,0.0082,0.0438,0.3000,0.0500,0.0002,0,-1.3605,-121.0000,-0.0152,-1.3605,-121.0000,-0.0152
11.9334,10.8006,1.1472,-0.0686,-0.0000,0.1200,0.1200,0.0000,0.0000,-0.0279,-0.0236,0.0004,996,1502,1502,1500,1000,1000,1505,1000,1000,1505,1503,1407,1505,-0.4784,0.0314,0.0723,-0.0152,0.0160,0.9882,-0.0039,0.0510,0.0047,-0.0519,0.2204,0.0082,0.0438,0.2204,0.0082,0.0438,0.3000,0.0500,0.0002,0,-1.3605,-121.0000,-0.0152,-1.3605,-121.0000,-0.0152
11.8948,10.7694,1.1414,-0.0686,-0.0000,0.1200,0.1200,0.0000,0.0000,-0.0279,-0.0234,0.0004,996,1502,1502,1500,1000,1000,1505,1000,1000,1505,1503,1407,1505,-0.2098,-0.0940,0.0777,-0.0160,0.0164,0.9892,-0.0041,0.0510,0.0048,-0.0517,0.2204,0.0082,0.0438,0.2204,0.0082,0.0438,0.3000,0.0500,0.0002,0,-1.3605,-121.0000,-0.0152,-1.3605,-121.0000,-0.0152
11.8576,10.7379,1.1355,-0.1371,-0.0686,0.2400,0.2400,0.3200,0.0000,-0.0276,-0.0231,0.0022,997,1503,1503,1500,1000,1000,1505,1000,1000,1505,1503,1407,1505,-0.1418,-0.0140,0.0962,-0.0193,0.0172,0.9891,-0.0023,0.0485,0.0067,-0.0529,0.2204,0.0082,0.0438,0.2204,0.0082,0.0438,0.3000,0.0500,0.0002,0,-1.3605,-121.0000,-0.0152,-1.3605,-121.0000,-0.0152
11.8212,10.7077,1.1296,-0.1371,-0.0000,0.1200,0.1200,0.0000,0.0000,-0.0278,-0.0234,0.0004,996,1502,1502,1500,1000,1000,1505,1000,1000,1505,1503,1407,1505,-0.0827,0.1412,0.0768,-0.0168,0.0195,0.9919,-0.0040,0.0508,0.0048,-0.0516,0.2204,0.0082,0.0438,0.2204,0.0082,0.0438,0.3000,0.0500,0.0002,0,-1.3605,-121.0000,-0.0152,-1.3605,-121.0000,-0.0152
11.7849,10.6776,1.1236,-0.1371,0.0686,0.1200,0.1200,0.0000,0.0000,-0.0277,-0.0233,0.0005,996,1502,1502,1500,1000,1000,1505,1000,1000,1505,1503,1407,1505,-0.1312,0.0856,0.0202,-0.0143,0.0169,0.9870,-0.0039,0.0505,0.0049,-0.0516,0.2204,0.0082,0.0438,0.2204,0.0082,0.0438,0.3000,0.0500,0.0002,0,-1.3605,-121.0000,-0.0152,-1.3605,-121.0000,-0.0152
11.7490,10.6479,1.1175,-0.0686,-0.0000,0.1200,0.1200,0.0000,0.0000,-0.0276,-0.0233,0.0006,996,1502,1502,1500,1000,1000,1505,1000,1000,1505,1503,1407,1505,-0.0740,0.1660,0.0073,-0.0180,0.0236,0.9895,-0.0038,0.0504,0.0049,-0.0515,0.2204,0.0082,0.0438,0.2204,0.0082,0.0438,0.3000,0.0500,0.0002,0,-1.3605,-121.0000,-0.0152,-1.3605,-121.0000,-0.0152
11.7130,10.6183,1.1105,-0.0686,-0.0000,0.1200,0.1200,0.0000,0.0000,-0.0276,-0.0232,0.0011,996,1502,1502,1500,1000,1000,1505,1000,1000,1505,1503,1407,1505,-0.0859,0.0684,-0.1457,-0.0163,0.0213,0.9919,-0.0033,0.0497,0.0054,-0.0518,0.2204,0.0082,0.0438,0.2204,0.0082,0.0438,0.3000,0.0500,0.0002,0,-1.3605,-121.0000,-0.0152,-1.3605,-121.0000,-0.0152
11.6776,10.5879,1.1038,-0.0686,-0.0000,0.1200,0.1200,0.0000,0.0000,-0.0275,-0.0231,0.0008,996,1502,1502,1500,1000,1000,1505,1000,1000,1505,1503,1407,1505,-0.0230,0.1088,-0.0615,-0.0162,0.0201,0.9907,-0.0036,0.0498,0.0052,-0.0515,0.2204,0.0082,0.0438,0.2204,0.0082,0.0438,0.3000,0.0500,0.0002,0,-1.3605,-121.0000,-0.0152,-1.3605,-121.0000,-0.0152
11.6423,10.5569,1.0972,-0.1371,0.0686,0.2400,0.2400,0.3200,0.0000,-0.0272,-0.0227,0.0023,997,1503,1503,1500,1000,1000,1505,1000,1000,1505,1503,1407,1505,0.0620,-0.0753,0.0768,-0.0200,0.0194,0.9888,-0.0022,0.0476,0.0068,-0.0522,0.2204,0.0082,0.0438,0.2204,0.0082,0.0438,0.3000,0.0500,0.0002,0,-1.3605,-121.0000,-0.0152,-1.3605,-121.0000,-0.0152
11.6075,10.5248,1.0909,-0.1371,0.0686,0.1200,0.1200,0.0000,0.0000,-0.0274,-0.0229,0.0005,996,1502,1502,1500,1000,1000,1505,1000,1000,1505,1503,1407,1505,-0.0006,-0.1323,0.0204,-0.0173,0.0203,0.9828,-0.0040,0.0497,0.0050,-0.0508,0.2204,0.0082,0.0438,0.2204,0.0082,0.0438,0.3000,0.0500,0.0002,0,-1.3605,-121.0000,-0.0152,-1.3605,-121.0000,-0.0152
11.5731,10.4915,1.0854,-0.0686,-0.0000,0.1200,0.1200,0.0000,0.0000,-0.0273,-0.0228,0.0003,996,1502,1502,1500,1000,1000,1505,1000,1000,1505,1503,1407,1505,0.1242,-0.1927,0.0980,-0.0145,0.0169,0.9897,-0.0042,0.0498,0.0049,-0.0504,0.2204,0.0082,0.0438,0.2204,0.0082,0.0438,0.3000,0.0500,0.0002,0,-1.3605,-121.0000,-0.0152,-1.3605,-121.0000,-0.0152
11.5390,10.4587,1.0791,-0.0686,-0.0000,0.1200,0.1200,0.0000,0.0000,-0.0273,-0.0228,0.0007,996,1502,1502,1500,1000,1000,1505,1000,1000,1505,1503,1407,1505,0.1112,-0.0802,-0.0310,-0.0144,0.0181,0.9875,-0.0038,0.0493,0.0052,-0.0507,0.2204,0.0082,0.0438,0.2204,0.0082,0.0438,0.3000,0.0500,0.0002,0,-1.3605,-121.0000,-0.0152,-1.3605,-121.0000,-0.0152
11.5053,10.4272,1.0726,-0.1371,-0.0000,0.1200,0.1200,0.0000,0.0000,-0.0272,-0.0227,0.0007,996,1502,1502,1500,1000,1000,1505,1000,1000,1505,1503,1407,1505,0.2058,-0.0633,-0.0151,-0.0133,0.0188,0.9898,-0.0039,0.0493,0.0052,-0.0506,0.2204,0.0082,0.0438,0.2204,0.0082,0.0438,0.3000,0.0500,0.0002,0,-1.3605,-121.0000,-0.0152,-1.3605,-121.0000,-0.0152
11.4717,10.3962,1.0661,-0.1371,-0.0000,0.1200,0.1200,0.0000,0.0000,-0.0271,-0.0227,0.0009,996,1502,1502,1500,1000,1000,1505,1000,1000,1505,1503,1407,1505,0.1136,0.0380,-0.0804,-0.0165,0.0194,0.9852,-0.0036,0.0489,0.0053,-0.0507,0.2204,0.0082,0.0438,0.2204,0.0082,0.0438,0.3000,0.0500,0.0002,0,-1.3605,-121.0000,-0.0152,-1.3605,-121.0000,-0.0152
11.4377,10.3659,1.0588,-0.1371,0.0686,0.2400,0.2400,0.3200,0.0000,-0.0268,-0.0223,0.0027,997,1503,1503,1500,1000,1000,1505,1000,1000,1505,1503,1407,1505,0.1561,0.0492,-0.0660,-0.0170,0.0202,0.9923,-0.0017,0.0464,0.0072,-0.0519,0.2204,0.0082,0.0438,0.2204,0.0082,0.0438,0.3000,0.0500,0.0002,0,-1.3605,-121.0000,-0.0152,-1.3605,-121.0000,-0.0152
11.4039,10.3358,1.0519,-0.1371,0.0686,0.1200,0.1200,0.0000,0.0000,-0.0269,-0.0225,0.0009,996,1502,1502,1500,1000,1000,1505,1000,1000,1505,1503,1407,1505,0.0672,0.0457,-0.1013,-0.0174,0.0214,0.9881,-0.0035,0.0486,0.0053,-0.0504,0.2204,0.0082,0.0438,0.2204,0.0082,0.0438,0.3000,0.0500,0.0002,0,-1.3605,-121.0000,-0.0152,-1.3605,-121.0000,-0.0152
11.3692,10.3052,1.0447,-0.1371,-0.0000,0.1200,0.1200,0.0000,0.0000,-0.0269,-0.0225,0.0008,996,1502,1502,1500,1000,1000,1505,1000,1000,1505,1503,1407,1505,0.0600,0.0057,-0.0685,-0.0168,0.0219,0.9875,-0.0036,0.0485,0.0052,-0.0501,0.2204,0.0082,0.0438,0.2204,0.0082,0.0438,0.3000,0.0500,0.0002,0,-1.3605,-121.0000,-0.0152,-1.3605,-121.0000,-0.0152
11.3340,10.2746,1.0383,-0.1371,-0.0000,0.1200,0.1200,0.0000,0.0000,-0.0267,-0.0224,0.0006,996,1502,1502,1500,1000,1000,1505,1000,1000,1505,1503,1407,1505,-0.0600,0.0267,-0.0100,-0.0133,0.0215,0.9885,-0.0037,0.0485,0.0050,-0.0498,0.2204,0.0082,0.0438,0.2204,0.0082,0.0438,0.3000,0.0500,0.0002,0,-1.3605,-121.0000,-0.0152,-1.3605,-121.0000,-0.0152
11.2986,10.2432,1.0324,-0.1371,-0.1371,0.1200,0.1200,0.0000,0.0000,-0.0266,-0.0223,0.0005,996,1502,1502,1500,1000,1000,1505,1000,1000,1505,1503,1407,1505,-0.1790,0.0611,0.0188,-0.0159,0.0208,0.9923,-0.0037,0.0484,0.0048,-0.0495,0.2204,0.0082,0.0438,0.2204,0.0082,0.0438,0.3000,0.0500,0.0002,0,-1.3605,-121.0000,-0.0152,-1.3605,-121.0000,-0.0152
11.2613,10.2126,1.0272,-0.0686,-0.0000,0.1200,0.1200,0.0000,0.0000,-0.0265,-0.0223,0.0003,996,1502,1502,1500,1000,1000,1505,1000,1000,1505,1503,1407,1505,-0.2553,0.1037,0.1008,-0.0165,0.0180,0.9890,-0.0039,0.0485,0.0045,-0.0490,0.2204,0.0082,0.0438,0.2204,0.0082,0.0438,0.3000,0.0500,0.0002,0,-1.3605,-121.0000,-0.0152,-1.3605,-121.0000,-0.0152
11.2231,10.1830,1.0224,-0.0686,-0.2057,0.2400,0.2400,0.3200,0.0000,-0.0261,-0.0220,0.0024,997,1503,1503,1500,1000,1000,1505,1000,1000,1505,1503,1407,1505,-0.2828,0.1398,0.0654,-0.0161,0.0198,0.9899,-0.0017,0.0457,0.0066,-0.0505,0.2204,0.0082,0.0438,0.2204,0.0082,0.0438,0.3000,0.0500,0.0002,0,-1.3605,-121.0000,-0.0152,-1.3605,-121.0000,-0.0152
11.1855,10.1531,1.0169,-0.1371,-0.0686,0.1200,0.1200,0.0000,0.0000,-0.0263,-0.0222,0.0007,996,1502,1502,1500,1000,1000,1505,1000,1000,1505,1503,1407,1505,-0.2492,0.1173,-0.0182,-0.0154,0.0183,0.9874,-0.0035,0.0478,0.0049,-0.0492,0.2204,0.0082,0.0438,0.2204,0.0082,0.0438,0.3000,0.0500,0.0002,0,-1.3605,-121.0000,-0.0152,-1.3605,-121.0000,-0.0152
11.1484,10.1229,1.0108,-0.0686,-0.0000,0.1200,0.1200,0.0000,0.0000,-0.0263,-0.0221,0.0004,996,1502,1502,1500,1000,1000,1505,1000,1000,1505,1503,1407,1505,-0.0925,0.0747,0.0584,-0.0143,0.0166,0.9864,-0.0038,0.0480,0.0047,-0.0488,0.2204,0.0082,0.0438,0.2204,0.0082,0.0438,0.3000,0.0500,0.0002,0,-1.3605,-121.0000,-0.0152,-1.3605,-121.0000,-0.0152
11.1129,10.0919,1.0049,-0.0686,-0.0000,0.1200,0.1200,0.0000,0.0000,-0.0263,-0.0219,0.0006,996,1502,1502,1500,1000,1000,1505,1000,1000,1505,1503,1407,1505,0.0409,-0.0862,-0.0067,-0.0184,0.0162,0.9888,-0.0037,0.0476,0.0050,-0.0489,0.2204,0.0082,0.0438,0.2204,0.0082,0.0438,0.3000,0.0500,0.0002,0,-1.3605,-121.0000,-0.0152,-1.3605,-121.0000,-0.0152
11.0789,10.0599,0.9984,-0.1371,-0.0000,0.1200,0.1200,0.0000,0.0000,-0.0263,-0.0219,0.0007,996,1502,1502,1500,1000,1000,1505,1000,1000,1505,1503,1407,1505,0.2112,-0.1010,-0.0182,-0.0124,0.0155,0.9873,-0.0037,0.0474,0.0051,-0.0489,0.2204,0.0082,0.0438,0.2204,0.0082,0.0438,0.3000,0.0500,0.0002,0,-1.3605,-121.0000,-0.0152,-1.3605,-121.0000,-0.0152
11.0468,10.0277,0.9910,-0.1371,-0.0000,0.1200,0.1200,0.0000,0.0000,-0.0263,-0.0218,0.0009,996,1502,1502,1500,1000,1000,1505,1000,1000,1505,1503,1407,1505,0.4425,-0.1436,-0.1015,-0.0170,0.0181,0.9904,-0.0037,0.0472,0.0054,-0.0490,0.2204,0.0082,0.0438,0.2204,0.0082,0.0438,0.3000,0.0500,0.0002,0,-1.3605,-121.0000,-0.0152,-1.3605,-121.0000,-0.0152
11.0165,9.9957,0.9834,-0.1371,-0.0000,0.2400,0.2400,0.3200,0.0000,-0.0260,-0.0215,0.0028,997,1503,1503,1500,1000,1000,1505,1000,1000,1505,1503,1407,1505,0.5361,-0.0803,-0.1044,-0.0124,0.0179,0.9893,-0.0017,0.0447,0.0074,-0.0503,0.2204,0.0082,0.0438,0.2204,0.0082,0.0438,0.3000,0.0500,0.0002,0,-1.3605,-121.0000,-0.0152,-1.3605,-121.0000,-0.0152
10.9872,9.9640,0.9763,-0.0686,-0.0000,0.1200,0.1200,0.0000,0.0000,-0.0263,-0.0217,0.0010,996,1502,1502,1500,1000,1000,1505,1000,1000,1505,1503,1407,1505,0.5797,-0.0563,-0.1318,-0.0157,0.0201,0.9924,-0.0035,0.0469,0.0056,-0.0490,0.2204,0.0082,0.0438,0.2204,0.0082,0.0438,0.3000,0.0500,0.0002,0,-1.3605,-121.0000,-0.0152,-1.3605,-121.0000,-0.0152
10.9585,9.9333,0.9694,-0.0686,-0.0000,0.1200,0.1200,0.0000,0.0000,-0.0262,-0.0216,0.0008,996,1502,1502,1500,1000,1000,1505,1000,1000,1505,1503,1407,1505,0.6839,0.0456,-0.0752,-0.0194,0.0179,0.9870,-0.0038,0.0470,0.0054,-0.0487,0.2204,0.0082,0.0438,0.2204,0.0082,0.0438,0.3000,0.0500,0.0002,0,-1.3605,-121.0000,-0.0152,-1.3605,-121.0000,-0.0152
10.9303,9.9033,0.9628,-0.0686,-0.0000,0.1200,0.1200,0.0000,0.0000,-0.0262,-0.0216,0.0006,996,1502,1502,1500,1000,1000,1505,1000,1000,1505,1503,1407,1505,0.6896,0.1244,0.0096,-0.0171,0.0161,0.9885,-0.0040,0.0472,0.0052,-0.0484,0.2204,0.0082,0.0438,0.2204,0.0082,0.0438,0.3000,0.0500,0.0002,0,-1.3605,-121.0000,-0.0152,-1.3605,-121.0000,-0.0152
10.9023,9.8741,0.9565,-0.0686,0.0686,0.1200,0.1200,0.0000,0.0000,-0.0262,-0.0216,0.0008,996,1502,1502,1500,1000,1000,1505,1000,1000,1505,1503,1407,1505,0.7788,0.2002,-0.0800,-0.0192,0.0194,0.9858,-0.0038,0.0469,0.0054,-0.0485,0.2204,0.0082,0.0438,0.2204,0.0082,0.0438,0.3000,0.0500,0.0002,0,-1.3605,-121.0000,-0.0152,-1.3605,-121.0000,-0.0152
10.8751,9.8437,0.9497,-0.1371,0.0686,0.1200,0.1200,0.0000,0.0000,-0.0261,-0.0214,0.0010,996,1502,1502,1500,1000,1000,1505,1000,1000,1505,1503,1407,1505,0.8026,0.0128,-0.1111,-0.0177,0.0199,0.9884,-0.0037,0.0466,0.0056,-0.0485,0.2204,0.0082,0.0438,0.2204,0.0082,0.0438,0.3000,0.0500,0.0002,0,-1.3605,-121.0000,-0.0152,-1.3605,-121.0000,-0.0152
10.8479,9.8130,0.9427,-0.1371,0.0686,0.2400,0.2400,0.3200,0.0000,-0.0258,-0.0211,0.0028,997,1503,1503,1500,1000,1000,1505,1000,1000,1505,1503,1407,1505,0.7693,-0.0173,-0.0908,-0.0157,0.0220,0.9870,-0.0019,0.0441,0.0075,-0.0497,0.2204,0.0082,0.0438,0.2204,0.0082,0.0438,0.3000,0.0500,0.0002,0,-1.3605,-121.0000,-0.0152,-1.3605,-121.0000,-0.0152
10.8214,9.7822,0.9357,-0.0686,-0.0000,0.1200,0.1200,0.0000,0.0000,-0.0261,-0.0213,0.0008,996,1502,1502,1500,1000,1000,1505,1000,1000,1505,1503,1407,1505,0.9488,0.0432,-0.0754,-0.0140,0.0224,0.9869,-0.0039,0.0465,0.0056,-0.0482,0.2204,0.0082,0.0438,0.2204,0.0082,0.0438,0.3000,0.0500,0.0002,0,-1.3605,-121.0000,-0.0152,-1.3605,-121.0000,-0.0152
10.7957,9.7508,0.9286,-0.0686,0.0686,0.1200,0.1200,0.0000,0.0000,-0.0260,-0.0212,0.0008,996,1502,1502,1500,1000,1000,1505,1000,1000,1505,1503,1407,1505,0.8659,-0.1080,-0.0514,-0.0155,0.0195,0.9913,-0.0040,0.0464,0.0055,-0.0479,0.2204,0.0082,0.0438,0.2204,0.0082,0.0438,0.3000,0.0500,0.0002,0,-1.3605,-121.0000,-0.0152,-1.3605,-121.0000,-0.0152
10.7700,9.7182,0.9216,-0.0686,0.0686,0.1200,0.1200,0.0000,0.0000,-0.0259,-0.0211,0.0009,996,1502,1502,1500,1000,1000,1505,1000,1000,1505,1503,1407,1505,0.9055,-0.2166,-0.0790,-0.0155,0.0183,0.9861,-0.0040,0.0461,0.0057,-0.0478,0.2204,0.0082,0.0438,0.2204,0.0082,0.0438,0.3000,0.0500,0.0002,0,-1.3605,-121.0000,-0.0152,-1.3605,-121.0000,-0.0152
10.7444,9.6857,0.9139,-0.1371,-0.0686,0.1200,0.1200,0.0000,0.0000,-0.0259,-0.0210,0.0008,996,1502,1502,1500,1000,1000,1505,1000,1000,1505,1503,1407,1505,0.9834,-0.1831,-0.0799,-0.0131,0.0169,0.9879,-0.0041,0.0461,0.0057,-0.0477,0.2204,0.0082,0.0438,0.2204,0.0082,0.0438,0.3000,0.0500,0.0002,0,-1.3605,-121.0000,-0.0152,-1.3605,-121.0000,-0.0152
10.7200,9.6533,0.9061,-0.1371,-0.1371,0.1200,0.1200,-1.6000,0.0000,-0.0259,-0.0210,-0.0037,996,1502,1502,1495,1000,1000,1505,1000,1000,1505,1503,1407,1505,1.0796,-0.0863,-0.1710,-0.0174,0.0201,0.9892,-0.0086,0.0506,0.0012,-0.0432,0.2204,0.0082,0.0438,0.2204,0.0082,0.0438,0.3000,0.0500,0.0002,0,-1.3605,-121.0000,-0.0152,-1.3605,-121.0000,-0.0152
10.6957,9.6218,0.8983,-0.0686,-0.0000,0.2400,0.2400,-3.5200,0.0000,-0.0256,-0.0207,-0.0152,997,1503,1503,1488,1000,1000,1505,1000,1000,1505,1503,1407,1505,1.0904,-0.0443,-0.1791,-0.0145,0.0219,0.9851,-0.0201,0.0614,-0.0103,-0.0310,0.2204,0.0082,0.0438,0.2204,0.0082,0.0438,0.3000,0.0500,0.0002,0,-1.3605,-121.0000,-0.0152,-1.3605,-121.0000,-0.0152
10.6719,9.5908,0.8907,-0.2057,-0.0686,0.1200,0.1200,-4.1600,0.0000,-0.0258,-0.0209,-0.0115,996,1502,1502,1487,1000,1000,1505,1000,1000,1505,1503,1407,1505,1.0762,0.0301,-0.1421,-0.0157,0.0222,0.9857,-0.0164,0.0581,-0.0066,-0.0352,0.2204,0.0082,0.0438,0.2204,0.0082,0.0438,0.3000,0.0500,0.0002,0,-1.3605,-121.0000,-0.0152,-1.3605,-121.0000,-0.0152
10.6476,9.5600,0.8834,-0.0686,-0.0000,0.1200,0.1200,-6.4000,0.0000,-0.0257,-0.0208,-0.0183,996,1502,1502,1480,1000,1000,1505,1000,1000,1505,1503,1407,1505,1.0019,0.0523,-0.1256,-0.0160,0.0213,0.9861,-0.0231,0.0648,-0.0134,-0.0282,0.2204,0.0082,0.0438,0.2204,0.0082,0.0438,0.3000,0.0500,0.0002,0,-1.3605,-121.0000,-0.0152,-1.3605,-121.0000,-0.0152
10.6227,9.5298,0.8756,-0.0686,-0.0000,0.1200,0.1200,-7.3600,0.0000,-0.0256,-0.0208,-0.0211,996,1502,1502,1477,1000,1000,1505,1000,1000,1505,1503,1407,1505,1.0036,0.0730,-0.1767,-0.0177,0.0203,0.9912,-0.0259,0.0675,-0.0162,-0.0253,0.2204,0.0082,0.0438,0.2204,0.0082,0.0438,0.3000,0.0500,0.0002,0,-1.3605,-121.0000,-0.0152,-1.3605,-121.0000,-0.0152
10.5968,9.5001,0.8686,-0.0686,-0.0000,0.1200,0.1200,-7.3600,0.0000,-0.0255,-0.0207,-0.0212,996,1502,1502,1477,1000,1000,1505,1000,1000,1505,1503,1407,1505,0.8443,0.1210,-0.1373,-0.0160,0.0209,0.9894,-0.0260,0.0674,-0.0164,-0.0251,0.2204,0.0082,0.0438,0.2204,0.0082,0.0438,0.3000,0.0500,0.0002,0,-1.3605,-121.0000,-0.0152,-1.3605,-121.0000,-0.0152
10.5704,9.4712,0.8618,-0.0686,-0.0000,0.1200,0.1200,-7.3600,0.0000,-0.0254,-0.0207,-0.0215,996,1502,1502,1477,1000,1000,1505,1000,1000,1505,1503,1407,1505,0.8276,0.2309,-0.0610,-0.0170,0.0202,0.9883,-0.0262,0.0677,-0.0168,-0.0246,0.2204,0.0082,0.0438,0.2204,0.0082,0.0438,0.3000,0.0500,0.0002,0,-1.3605,-121.0000,-0.0152,-1.3605,-121.0000,-0.0152
10.5443,9.4423,0.8555,-0.0686,-0.0000,0.2400,0.1200,-7.0400,0.0000,-0.0252,-0.0206,-0.0194,997,1503,1502,1477,1000,1000,1505,1000,1000,1505,1503,1407,1505,0.8960,0.2212,-0.1167,-0.0156,0.0209,0.9864,-0.0239,0.0652,-0.0149,-0.0264,0.2204,0.0082,0.0438,0.2204,0.0082,0.0438,0.3000,0.0500,0.0002,0,-1.3605,-121.0000,-0.0152,-1.3605,-121.0000,-0.0152
10.5186,9.4137,0.8491,-0.1371,-0.0000,0.1200,0.1200,-7.3600,0.0000,-0.0254,-0.0206,-0.0214,996,1502,1502,1477,1000,1000,1505,1000,1000,1505,1503,1407,1505,0.9286,0.2191,-0.0892,-0.0152,0.0195,0.9877,-0.0262,0.0674,-0.0166,-0.0246,0.2204,0.0082,0.0438,0.2204,0.0082,0.0438,0.3000,0.0500,0.0002,0,-1.3605,-121.0000,-0.0152,-1.3605,-121.0000,-0.0152
10.4941,9.3851,0.8427,0.0000,-0.0686,0.1200,0.1200,-7.3600,0.0000,-0.0254,-0.0205,-0.0215,996,1502,1502,1477,1000,1000,1505,1000,1000,1505,1503,1407,1505,1.0866,0.0983,-0.0821,-0.0164,0.0177,0.9893,-0.0264,0.0674,-0.0166,-0.0244,0.2204,0.0082,0.0438,0.2204,0.0082,0.0438,0.3000,0.0500,0.0002,0,-1.3605,-121.0000,-0.0152,-1.3605,-121.0000,-0.0152
10.4709,9.3547,0.8358,0.0000,-0.0000,0.1200,0.1200,-7.3600,0.0000,-0.0254,-0.0204,-0.0213,996,1502,1502,1477,1000,1000,1505,1000,1000,1505,1503,1407,1505,1.3154,0.0039,-0.1479,-0.0150,0.0163,0.9890,-0.0264,0.0671,-0.0162,-0.0245,0.2204,0.0082,0.0438,0.2204,0.0082,0.0438,0.3000,0.0500,0.0002,0,-1.3605,-121.0000,-0.0152,-1.3605,-121.0000,-0.0152
10.4496,9.3230,0.8282,-0.1371,-0.0000,0.1200,0.1200,-7.3600,0.0000,-0.0255,-0.0202,-0.0211,996,1502,1502,1477,1000,1000,1505,1000,1000,1505,1503,1407,1505,1.5001,-0.1916,-0.2252,-0.0165,0.0177,0.9891,-0.0264,0.0668,-0.0158,-0.0246,0.2204,0.0082,0.0438,0.2204,0.0082,0.0438,0.3000,0.0500,0.0002,0,-1.3605,-121.0000,-0.0152,-1.3605,-121.0000,-0.0152
10.4309,9.2903,0.8202,-0.0686,-0.0000,0.1200,0.1200,-4.8000,0.0000,-0.0255,-0.0201,-0.0137,996,1502,1502,1485,1000,1000,1505,1000,1000,1505,1503,1407,1505,1.7070,-0.1549,-0.1800,-0.0137,0.0189,0.9868,-0.0190,0.0593,-0.0083,-0.0320,0.2204,0.0082,0.0438,0.2204,0.0082,0.0438,0.3000,0.0500,0.0002,0,-1.3605,-121.0000,-0.0152,-1.3605,-121.0000,-0.0152
10.4138,9.2583,0.8118,-0.1371,-0.1371,0.2400,0.2400,-1.2800,0.0300,-0.0253,-0.0199,0.0058,1030,1503,1503,1495,1000,1000,1505,1000,1000,1505,1503,1407,1505,1.9292,-0.0569,-0.2532,-0.0168,0.0180,0.9872,0.0304,0.0693,0.0413,-0.0210,0.2204,0.0082,0.0438,0.2204,0.0082,0.0438,0.3000,0.0500,0.0002,0,-1.3605,-121.0000,-0.0152,-1.3605,-121.0000,-0.0152
10.3982,9.2271,0.8031,-0.0686,-0.0686,0.1200,0.1200,-0.9600,0.0400,-0.0255,-0.0201,-0.0018,1040,1502,1502,1497,1000,1000,1505,1000,1000,1505,1503,1407,1505,1.8766,0.0843,-0.3105,-0.0133,0.0231,0.9903,0.0328,0.0874,0.0437,-0.0039,0.2204,0.0082,0.0438,0.2204,0.0082,0.0438,0.3000,0.0500,0.0002,0,-1.3605,-121.0000,-0.0152,-1.3605,-121.0000,-0.0152
10.3827,9.1973,0.7950,-0.0686,-0.0686,0.1200,0.1200,-0.9600,0.0860,-0.0255,-0.0201,-0.0018,1086,1502,1502,1497,1000,1000,1505,1000,1000,1505,1503,1407,1505,1.8436,0.2111,-0.2796,-0.0118,0.0244,0.9921,0.0788,0.1334,0.0896,0.0422,0.2204,0.0082,0.0438,0.2204,0.0082,0.0438,0.3000,0.0500,0.0002,0,-1.3605,-121.0000,-0.0152,-1.3605,-121.0000,-0.0152
10.3652,9.1684,0.7875,-0.0686,-0.0000,0.1200,0.1200,-0.9600,0.1000,-0.0253,-0.0201,-0.0021,1100,1502,1502,1497,1000,1000,1505,1000,1000,1505,1503,1407,1505,1.5598,0.2577,-0.2007,-0.0176,0.0271,0.9862,0.0927,0.1475,0.1031,0.0567,0.2204,0.0082,0.0438,0.2204,0.0082,0.0438,0.3000,0.0500,0.0002,0,-1.3605,-121.0000,-0.0152,-1.3605,-121.0000,-0.0152
10.3456,9.1384,0.7812,-0.0686,-0.0686,0.1200,0.1200,-0.9600,0.1360,-0.0251,-0.0200,-0.0024,1136,1502,1502,1497,1000,1000,1505,1000,1000,1505,1503,1407,1505,1.2498,0.1487,-0.0910,-0.0131,0.0322,0.9827,0.1284,0.1835,0.1387,0.0934,0.2204,0.0082,0.0438,0.2204,0.0082,0.0438,0.3000,0.0500,0.0002,0,-1.3605,-121.0000,-0.0152,-1.3605,-121.0000,-0.0152
10.3224,9.1078,0.7757,-0.1371,-0.0686,0.1200,0.1200,-0.9600,0.1460,-0.0250,-0.0199,-0.0029,1146,1502,1502,1497,1000,1000,1505,1000,1000,1505,1503,1407,1505,0.9581,0.1038,0.0491,-0.0149,0.0291,0.9864,0.1380,0.1937,0.1482,0.1040,0.2204,0.0082,0.0438,0.2204,0.0082,0.0438,0.3000,0.0500,0.0002,0,-1.3605,-121.0000,-0.0152,-1.3605,-121.0000,-0.0152
10.2973,9.0765,0.7712,-0.1371,-0.2057,0.2400,0.2400,-0.3200,0.1790,-0.0246,-0.0195,0.0008,1179,1503,1503,1498,1000,1000,1505,1000,1000,1505,1503,1407,1505,0.7808,0.0661,0.1161,-0.0180,0.0288,0.9856,0.1747,0.2223,0.1848,0.1341,0.2204,0.0082,0.0438,0.2204,0.0082,0.0438,0.3000,0.0500,0.0002,0,-1.3605,-121.0000,-0.0152,-1.3605,-121.0000,-0.0152
10.2704,9.0440,0.7672,-0.0686,-0.0686,0.1200,0.1200,-0.9600,0.1860,-0.0247,-0.0197,-0.0031,1186,1502,1502,1497,1000,1000,1505,1000,1000,1505,1503,1407,1505,0.6973,-0.1071,0.1344,-0.0149,0.0241,0.9863,0.1778,0.2335,0.1880,0.1447,0.2204,0.0082,0.0438,0.2204,0.0082,0.0438,0.3000,0.0500,0.0002,0,-1.3605,-121.0000,-0.0152,-1.3605,-121.0000,-0.0152
10.2425,9.0110,0.7624,-0.2057,-0.1371,0.1200,0.1200,-0.9600,0.1860,-0.0247,-0.0196,-0.0029,1186,1502,1502,1497,1000,1000,1505,1000,1000,1505,1503,1407,1505,0.7101,-0.0876,0.0703,-0.0186,0.0221,0.9865,0.1780,0.2332,0.1882,0.1446,0.2204,0.0082,0.0438,0.2204,0.0082,0.0438,0.3000,0.0500,0.0002,0,-1.3605,-121.0000,-0.0152,-1.3605,-121.0000,-0.0152
10.2152,8.9794,0.7576,-0.0686,-0.0686,0.1200,0.1200,-0.9600,0.1860,-0.0247,-0.0196,-0.0030,1186,1502,1502,1497,1000,1000,1505,1000,1000,1505,1503,1407,1505,0.8278,-0.0356,0.0819,-0.0163,0.0216,0.9878,0.1779,0.2332,0.1881,0.1448,0.2204,0.0082,0.0438,0.2204,0.0082,0.0438,0.3000,0.0500,0.0002,0,-1.3605,-121.0000,-0.0152,-1.3605,-121.0000,-0.0152
10.1889,8.9483,0.7520,-0.0686,-0.0000,0.1200,0.1200,-0.9600,0.1860,-0.0246,-0.0195,-0.0025,1186,1502,1502,1497,1000,1000,1505,1000,1000,1505,1503,1407,1505,0.9158,0.0087,-0.0824,-0.0150,0.0212,0.9832,0.1784,0.2327,0.1886,0.1443,0.2204,0.0082,0.0438,0.2204,0.0082,0.0438,0.3000,0.0500,0.0002,0,-1.3605,-121.0000,-0.0152,-1.3605,-121.0000,-0.0152
10.1636,8.9166,0.7453,-0.0686,-0.0000,0.1200,0.1200,-0.9600,0.1860,-0.0246,-0.0194,-0.0023,1186,1502,1502,1497,1000,1000,1505,1000,1000,1505,1503,1407,1505,1.0117,-0.0840,-0.1329,-0.0172,0.0221,0.9865,0.1785,0.2324,0.1889,0.1443,0.2204,0.0082,0.0438,0.2204,0.0082,0.0438,0.3000,0.0500,0.0002,0,-1.3605,-121.0000,-0.0152,-1.3605,-121.0000,-0.0152
10.1396,8.8847,0.7385,0.0000,-0.1371,0.2400,0.2400,-0.3200,0.1880,-0.0244,-0.0191,0.0015,1187,1503,1503,1498,1000,1000,1505,1000,1000,1505,1503,1407,1505,1.2039,-0.1111,-0.1123,-0.0178,0.0228,0.9855,0.1842,0.2300,0.1948,0.1430,0.2204,0.0082,0.0438,0.2204,0.0082,0.0438,0.3000,0.0500,0.0002,0,-1.3605,-121.0000,-0.0152,-1.3605,-121.0000,-0.0152
10.1173,8.8527,0.7308,0.0000,-0.0686,0.1200,0.1200,-0.9600,0.1860,-0.0247,-0.0193,-0.0023,1186,1502,1502,1497,1000,1000,1505,1000,1000,1505,1503,1407,1505,1.3244,-0.0772,-0.1451,-0.0159,0.0264,0.9881,0.1783,0.2323,0.1890,0.1444,0.2204,0.0082,0.0438,0.2204,0.0082,0.0438,0.3000,0.0500,0.0002,0,-1.3605,-121.0000,-0.0152,-1.3605,-121.0000,-0.0152
10.0959,8.8206,0.7232,-0.0686,-0.0686,0.1200,0.1200,-0.9600,0.1860,-0.0246,-0.0192,-0.0022,1186,1502,1502,1497,1000,1000,1505,1000,1000,1505,1503,1407,1505,1.3031,-0.0625,-0.1980,-0.0150,0.0234,0.9880,0.1785,0.2320,0.1892,0.1443,0.2204,0.0082,0.0438,0.2204,0.0082,0.0438,0.3000,0.0500,0.0002,0,-1.3605,-121.0000,-0.0152,-1.3605,-121.0000,-0.0152
10.0736,8.7895,0.7161,-0.0686,-0.0686,0.1200,0.1200,-0.9600,0.1860,-0.0245,-0.0193,-0.0023,1186,1502,1502,1497,1000,1000,1505,1000,1000,1505,1503,1407,1505,1.1907,0.0967,-0.1323,-0.0166,0.0276,0.9895,0.1784,0.2321,0.1889,0.1446,0.2204,0.0082,0.0438,0.2204,0.0082,0.0438,0.3000,0.0500,0.0002,0,-1.3605,-121.0000,-0.0152,-1.3605,-121.0000,-0.0152
10.0499,8.7584,0.7105,-0.0686,-0.0686,0.1200,0.1200,-0.9600,0.1860,-0.0244,-0.0192,-0.0029,1186,1502,1502,1497,1000,1000,1505,1000,1000,1505,1503,1407,1505,0.9758,0.0080,0.0589,-0.0150,0.0288,0.9863,0.1779,0.2324,0.1883,0.1454,0.2204,0.0082,0.0438,0.2204,0.0082,0.0438,0.3000,0.0500,0.0002,0,-1.3605,-121.0000,-0.0152,-1.3605,-121.0000,-0.0152
10.0240,8.7269,0.7061,-0.0686,-0.1371,0.1200,0.1200,-0.9600,0.1860,-0.0242,-0.0191,-0.0032,1186,1502,1502,1497,1000,1000,1505,1000,1000,1505,1503,1407,1505,0.7102,0.0307,0.1314,-0.0169,0.0288,0.9890,0.1777,0.2325,0.1879,0.1459,0.2204,0.0082,0.0438,0.2204,0.0082,0.0438,0.3000,0.0500,0.0002,0,-1.3605,-121.0000,-0.0152,-1.3605,-121.0000,-0.0152
9.9952,8.6955,0.7013,-0.0686,-0.0000,0.2400,0.2400,-0.3200,0.1880,-0.0238,-0.0188,0.0007,1187,1503,1503,1498,1000,1000,1505,1000,1000,1505,1503,1407,1505,0.4907,0.0282,0.1070,-0.0184,0.0271,0.9858,0.1837,0.2299,0.1937,0.1448,0.2204,0.0082,0.0438,0.2204,0.0082,0.0438,0.3000,0.0500,0.0002,0,-1.3605,-121.0000,-0.0152,-1.3605,-121.0000,-0.0152
9.9647,8.6633,0.6968,-0.1371,-0.0686,0.1200,0.1200,-0.9600,0.1890,-0.0239,-0.0189,-0.0028,1189,1502,1502,1497,1000,1000,1505,1000,1000,1505,1503,1407,1505,0.3857,-0.0533,0.0288,-0.0171,0.0292,0.9860,0.1812,0.2347,0.1912,0.1490,0.2204,0.0082,0.0438,0.2204,0.0082,0.0438,0.3000,0.0500,0.0002,0,-1.3605,-121.0000,-0.0152,-1.3605,-121.0000,-0.0152
9.9331,8.6310,0.6919,-0.0686,-0.1371,0.1200,0.1200,-0.9600,0.1900,-0.0238,-0.0189,-0.0029,1190,1502,1502,1497,1000,1000,1505,1000,1000,1505,1503,1407,1505,0.2652,-0.0576,0.0322,-0.0157,0.0261,0.9902,0.1822,0.2355,0.1921,0.1502,0.2204,0.0082,0.0438,0.2204,0.0082,0.0438,0.3000,0.0500,0.0002,0,-1.3605,-121.0000,-0.0152,-1.3605,-121.0000,-0.0152
9.8997,8.5989,0.6866,-0.0686,-0.0000,0.1200,0.1200,-0.9600,0.1950,-0.0237,-0.0188,-0.0031,1195,1502,1502,1497,1000,1000,1505,1000,1000,1505,1503,1407,1505,0.1254,-0.0404,0.1037,-0.0150,0.0246,0.9922,0.1870,0.2406,0.1967,0.1556,0.2204,0.0082,0.0438,0.2204,0.0082,0.0438,0.3000,0.0500,0.0002,0,-1.3605,-121.0000,-0.0152,-1.3605,-121.0000,-0.0152
9.8659,8.5672,0.6821,-0.0686,-0.0686,0.1200,0.1200,-0.9600,0.1960,-0.0236,-0.0188,-0.0028,1196,1502,1502,1497,1000,1000,1505,1000,1000,1505,1503,1407,1505,0.1616,-0.0095,0.0092,-0.0170,0.0226,0.9895,0.1884,0.2412,0.1980,0.1564,0.2204,0.0082,0.0438,0.2204,0.0082,0.0438,0.3000,0.0500,0.0002,0,-1.3605,-121.0000,-0.0152,-1.3605,-121.0000,-0.0152
9.8319,8.5367,0.6769,-0.0686,-0.0000,0.1200,0.1200,-0.9600,0.1960,-0.0235,-0.0187,-0.0028,1196,1502,1502,1497,1000,1000,1505,1000,1000,1505,1503,1407,1505,0.1577,0.0812,-0.0062,-0.0161,0.0253,0.9863,0.1885,0.2410,0.1980,0.1565,0.2204,0.0082,0.0438,0.2204,0.0082,0.0438,0.3000,0.0500,0.0002,0,-1.3605,-121.0000,-0.0152,-1.3605,-121.0000,-0.0152
9.7979,8.5068,0.6715,0.0000,-0.1371,0.2400,0.1200,-0.3200,0.1970,-0.0231,-0.0187,0.0011,1196,1503,1502,1498,1000,1000,1505,1000,1000,1505,1503,1407,1505,0.0740,0.1447,-0.0149,-0.0173,0.0277,0.9900,0.1937,0.2378,0.2025,0.1540,0.2204,0.0082,0.0438,0.2204,0.0082,0.0438,0.3000,0.0500,0.0002,0,-1.3605,-121.0000,-0.0152,-1.3605,-121.0000,-0.0152
9.7640,8.4767,0.6662,-0.0686,-0.0686,0.1200,0.1200,-0.9600,0.1960,-0.0234,-0.0187,-0.0028,1196,1502,1502,1497,1000,1000,1505,1000,1000,1505,1503,1407,1505,0.1095,0.1577,-0.0137,-0.0172,0.0283,0.9894,0.1885,0.2408,0.1979,0.1568,0.2204,0.0082,0.0438,0.2204,0.0082,0.0438,0.3000,0.0500,0.0002,0,-1.3605,-121.0000,-0.0152,-1.3605,-121.0000,-0.0152
9.7300,8.4443,0.6639,0.0000,-0.0686,0.1200,0.1200,-0.9600,0.1960,-0.0232,-0.0185,-0.0069,1196,1502,1502,1497,1000,1000,1505,1000,1000,1505,1503,1407,1505,-0.0116,-0.1205,1.2430,-0.0175,0.0409,0.9785,0.1843,0.2446,0.1938,0.1612,0.2204,0.0082,0.0438,0.2204,0.0082,0.0438,0.3000,0.0500,0.0002,0,-1.3605,-121.0000,-0.0152,-1.3605,-121.0000,-0.0152
9.6952,8.4112,0.6812,-0.1371,-0.1371,0.1200,0.1200,-0.9600,0.1960,-0.0230,-0.0188,-0.0082,1196,1502,1502,1497,1000,1000,1505,1000,1000,1505,1503,1407,1505,-0.3857,0.6871,1.9353,-0.0336,0.0218,0.9860,0.1836,0.2460,0.1920,0.1625,0.2204,0.0082,0.0438,0.2204,0.0082,0.0438,0.3000,0.0500,0.0002,0,-1.3605,-121.0000,-0.0152,-1.3605,-121.0000,-0.0152
9.6571,8.3821,0.6706,-0.1371,-0.0686,0.1200,0.1200,-0.9600,0.1960,-0.0229,-0.0184,0.0073,1196,1502,1502,1497,1000,1000,1505,1000,1000,1505,1503,1407,1505,-0.3923,-0.0628,-3.0937,-0.0220,0.0170,0.9918,0.1987,0.2300,0.2078,0.1475,0.2204,0.0082,0.0438,0.2204,0.0082,0.0438,0.3000,0.0500,0.0002,0,-1.3605,-121.0000,-0.0152,-1.3605,-121.0000,-0.0152
9.6022,8.3655,0.6078,-0.2057,-0.1371,0.1200,0.1200,-0.9600,0.1960,-0.0227,-0.0184,0.0161,1196,1502,1502,1497,1000,1000,1505,1000,1000,1505,1503,1407,1505,-0.4603,0.0749,-6.4290,-0.0204,-0.0096,0.9808,0.2077,0.2211,0.2164,0.1388,0.2204,0.0082,0.0438,0.2204,0.0082,0.0438,0.3000,0.0500,0.0002,0,-1.3605,-121.0000,-0.0152,-1.3605,-121.0000,-0.0152
9.5537,8.3373,0.5791,0.0000,-0.0686,0.2400,0.2400,-0.3200,0.1980,-0.0221,-0.0181,-0.0056,1197,1503,1503,1498,1000,1000,1505,1000,1000,1505,1503,1407,1505,-1.1949,0.0522,1.9480,0.0159,0.0224,0.9930,0.1884,0.2438,0.1963,0.1635,0.2204,0.0082,0.0438,0.2204,0.0082,0.0438,0.3000,0.0500,0.0002,0,-1.3605,-121.0000,-0.0152,-1.3605,-121.0000,-0.0152
9.5176,8.2987,0.6169,0.0000,-0.1371,0.1200,0.1200,-0.9600,0.1990,-0.0225,-0.0178,-0.0152,1199,1502,1502,1497,1000,1000,1505,1000,1000,1505,1503,1407,1505,-0.6754,-0.9249,4.2244,-0.0156,0.0656,0.9851,0.1792,0.2545,0.1885,0.1739,0.2204,0.0082,0.0438,0.2204,0.0082,0.0438,0.3000,0.0500,0.0002,0,-1.3605,-121.0000,-0.0152,-1.3605,-121.0000,-0.0152
9.4856,8.2607,0.6324,-0.1371,-0.0000,0.1200,0.1200,-0.9600,0.2000,-0.0229,-0.0185,-0.0006,1200,1502,1502,1497,1000,1000,1505,1000,1000,1505,1503,1407,1505,0.3745,0.7911,-0.5078,-0.0206,0.0737,0.9871,0.1951,0.2419,0.2038,0.1592,0.2204,0.0082,0.0438,0.2204,0.0082,0.0438,0.3000,0.0500,0.0002,0,-1.3605,-121.0000,-0.0152,-1.3605,-121.0000,-0.0152
9.4470,8.2302,0.6211,0.0000,-0.0686,0.1200,0.1200,-0.9600,0.2000,-0.0224,-0.0183,-0.0048,1200,1502,1502,1497,1000,1000,1505,1000,1000,1505,1503,1407,1505,-0.3746,0.5504,0.4788,-0.0301,0.0325,0.9838,0.1911,0.2456,0.1993,0.1640,0.2204,0.0082,0.0438,0.2204,0.0082,0.0438,0.3000,0.0500,0.0002,0,-1.3605,-121.0000,-0.0152,-1.3605,-121.0000,-0.0152
9.4115,8.1981,0.6398,-0.0686,-0.0686,0.1200,0.1200,-0.9600,0.2000,-0.0223,-0.0181,-0.0141,1200,1502,1502,1497,1000,1000,1505,1000,1000,1505,1503,1407,1505,-0.4519,0.0616,3.6780,-0.0158,0.0184,0.9910,0.1816,0.2545,0.1902,0.1737,0.2204,0.0082,0.0438,0.2204,0.0082,0.0438,0.3000,0.0500,0.0002,0,-1.3605,-121.0000,-0.0152,-1.3605,-121.0000,-0.0152
9.3713,8.1632,0.6592,0.0000,-0.0686,0.1200,0.1200,-0.9600,0.2000,-0.0220,-0.0180,-0.0029,1200,1502,1502,1497,1000,1000,1505,1000,1000,1505,1503,1407,1505,-0.9700,0.0684,0.1834,-0.0094,0.0033,0.9920,0.1931,0.2429,0.2011,0.1629,0.2204,0.0082,0.0438,0.2204,0.0082,0.0438,0.3000,0.0500,0.0002,0,-1.3605,-121.0000,-0.0152,-1.3605,-121.0000,-0.0152
9.3215,8.1374,0.6412,-0.1371,-0.1371,0.2400,0.2400,-0.3200,0.2050,-0.0215,-0.0176,0.0067,1205,1503,1503,1498,1000,1000,1505,1000,1000,1505,1503,1407,1505,-1.2983,-0.1527,-1.9068,-0.0210,-0.0001,0.9916,0.2078,0.2374,0.2156,0.1593,0.2204,0.0082,0.0438,0.2204,0.0082,0.0438,0.3000,0.0500,0.0002,0,-1.3605,-121.0000,-0.0152,-1.3605,-121.0000,-0.0152
9.2665,8.1106,0.6302,0.0000,-0.0686,0.1200,0.1200,-0.9600,0.2060,-0.0214,-0.0181,-0.0051,1206,1502,1502,1497,1000,1000,1505,1000,1000,1505,1503,1407,1505,-1.9211,0.5902,0.6555,-0.0270,0.0127,0.9903,0.1977,0.2506,0.2042,0.1716,0.2204,0.0082,0.0438,0.2204,0.0082,0.0438,0.3000,0.0500,0.0002,0,-1.3605,-121.0000,-0.0152,-1.3605,-121.0000,-0.0152
9.2169,8.0761,0.6367,-0.0686,-0.2057,0.1200,0.1200,-0.9600,0.2110,-0.0215,-0.0178,-0.0047,1211,1502,1502,1497,1000,1000,1505,1000,1000,1505,1503,1407,1505,-1.3319,0.1077,0.7140,-0.0184,0.0321,0.9710,0.2027,0.2550,0.2100,0.1763,0.2204,0.0082,0.0438,0.2204,0.0082,0.0438,0.3000,0.0500,0.0002,0,-1.3605,-121.0000,-0.0152,-1.3605,-121.0000,-0.0152
9.1688,8.0447,0.6188,-0.0686,-0.0686,0.1200,0.1200,-0.9600,0.2110,-0.0215,-0.0177,0.0053,1211,1502,1502,1497,1000,1000,1505,1000,1000,1505,1503,1407,1505,-1.0572,-0.1849,-2.6421,-0.0098,0.0251,0.9825,0.2125,0.2449,0.2202,0.1665,0.2204,0.0082,0.0438,0.2204,0.0082,0.0438,0.3000,0.0500,0.0002,0,-1.3605,-121.0000,-0.0152,-1.3605,-121.0000,-0.0152
9.1244,8.0171,0.5900,-0.1371,-0.2057,0.1200,0.1200,-0.9600,0.2140,-0.0217,-0.0177,-0.0004,1214,1502,1502,1497,1000,1000,1505,1000,1000,1505,1503,1407,1505,-0.4694,-0.0131,-1.0216,-0.0158,0.0293,0.9904,0.2096,0.2537,0.2176,0.1750,0.2204,0.0082,0.0438,0.2204,0.0082,0.0438,0.3000,0.0500,0.0002,0,-1.3605,-121.0000,-0.0152,-1.3605,-121.0000,-0.0152
9.0881,7.9853,0.5913,-0.0686,-0.0000,0.1200,0.1200,-0.9600,0.2150,-0.0217,-0.0177,-0.0075,1215,1502,1502,1497,1000,1000,1505,1000,1000,1505,1503,1407,1505,-0.3191,0.1094,1.4958,-0.0276,0.0319,0.9852,0.2035,0.2618,0.2115,0.1831,0.2204,0.0082,0.0438,0.2204,0.0082,0.0438,0.3000,0.0500,0.0002,0,-1.3605,-121.0000,-0.0152,-1.3605,-121.0000,-0.0152
9.0541,7.9508,0.5951,-0.0686,-0.0000,0.2400,0.2400,-0.3200,0.2240,-0.0216,-0.0172,0.0023,1224,1503,1503,1498,1000,1000,1505,1000,1000,1505,1503,1407,1505,0.2951,-0.0942,-0.3275,-0.0147,0.0110,0.9830,0.2220,0.2605,0.2307,0.1828,0.2204,0.0082,0.0438,0.2204,0.0082,0.0438,0.3000,0.0500,0.0002,0,-1.3605,-121.0000,-0.0152,-1.3605,-121.0000,-0.0152
9.0179,7.9218,0.5829,-0.0686,-0.1371,0.1200,0.1200,-0.9600,0.2260,-0.0215,-0.0175,-0.0021,1226,1502,1502,1497,1000,1000,1505,1000,1000,1505,1503,1407,1505,-0.3157,0.0040,-0.3467,-0.0095,0.0091,0.9956,0.2199,0.2671,0.2279,0.1891,0.2204,0.0082,0.0438,0.2204,0.0082,0.0438,0.3000,0.0500,0.0002,0,-1.3605,-121.0000,-0.0152,-1.3605,-121.0000,-0.0152
8.9804,7.8901,0.5884,-0.0686,-0.0000,0.1200,0.1200,-0.9600,0.2260,-0.0215,-0.0176,-0.0097,1226,1502,1502,1497,1000,1000,1505,1000,1000,1505,1503,1407,1505,-0.1434,0.4335,2.1586,-0.0209,0.0326,0.9927,0.2124,0.2748,0.2202,0.1965,0.2204,0.0082,0.0438,0.2204,0.0082,0.0438,0.3000,0.0500,0.0002,0,-1.3605,-121.0000,-0.0152,-1.3605,-121.0000,-0.0152
8.9429,7.8562,0.6031,-0.0686,-0.1371,0.1200,0.1200,-0.9600,0.2260,-0.0213,-0.0172,-0.0044,1226,1502,1502,1497,1000,1000,1505,1000,1000,1505,1503,1407,1505,-0.3674,-0.3125,0.6851,-0.0203,0.0173,0.9824,0.2175,0.2690,0.2257,0.1919,0.2204,0.0082,0.0438,0.2204,0.0082,0.0438,0.3000,0.0500,0.0002,0,-1.3605,-121.0000,-0.0152,-1.3605,-121.0000,-0.0152
8.9056,7.8245,0.5919,0.0000,-0.2057,0.1200,0.1200,-0.9600,0.2260,-0.0213,-0.0172,0.0010,1226,1502,1502,1497,1000,1000,1505,1000,1000,1505,1503,1407,1505,-0.2193,-0.1586,-1.2863,-0.0125,0.0147,0.9989,0.2229,0.2636,0.2311,0.1865,0.2204,0.0082,0.0438,0.2204,0.0082,0.0438,0.3000,0.0500,0.0002,0,-1.3605,-121.0000,-0.0152,-1.3605,-121.0000,-0.0152
8.8649,7.7923,0.5797,-0.1371,-0.0686,0.1200,0.1200,-0.9600,0.2260,-0.0212,-0.0172,-0.0039,1226,1502,1502,1497,1000,1000,1505,1000,1000,1505,1503,1407,1505,-0.2335,-0.0685,0.2497,-0.0201,0.0225,0.9882,0.2181,0.2683,0.2261,0.1914,0.2204,0.0082,0.0438,0.2204,0.0082,0.0438,0.3000,0.0500,0.0002,0,-1.3605,-121.0000,-0.0152,-1.3605,-121.0000,-0.0152
8.8303,7.7581,0.5814,0.0000,-0.2057,0.2400,0.2400,-0.3200,0.2270,-0.0209,-0.0168,-0.0006,1226,1503,1503,1498,1000,1000,1505,1000,1000,1505,1503,1407,1505,-0.0776,-0.3156,0.5465,-0.0113,0.0445,0.9894,0.2222,0.2654,0.2305,0.1899,0.2204,0.0082,0.0438,0.2204,0.0082,0.0438,0.3000,0.0500,0.0002,0,-1.3605,-121.0000,-0.0152,-1.3605,-121.0000,-0.0152
8.7925,7.7271,0.5722,0.0000,-0.1371,0.1200,0.1200,-0.9600,0.2260,-0.0212,-0.0170,0.0008,1226,1502,1502,1497,1000,1000,1505,1000,1000,1505,1503,1407,1505,0.1355,-0.2830,-1.1745,-0.0090,0.0121,0.9903,0.2226,0.2634,0.2310,0.1870,0.2204,0.0082,0.0438,0.2204,0.0082,0.0438,0.3000,0.0500,0.0002,0,-1.3605,-121.0000,-0.0152,-1.3605,-121.0000,-0.0152
8.7532,7.6964,0.5561,-0.0686,-0.0686,0.1200,0.1200,-0.9600,0.2260,-0.0209,-0.0170,-0.0015,1226,1502,1502,1497,1000,1000,1505,1000,1000,1505,1503,1407,1505,-0.3103,-0.0960,-0.5755,-0.0196,0.0029,0.9865,0.2205,0.2655,0.2284,0.1896,0.2204,0.0082,0.0438,0.2204,0.0082,0.0438,0.3000,0.0500,0.0002,0,-1.3605,-121.0000,-0.0152,-1.3605,-121.0000,-0.0152
8.7173,7.6661,0.5561,-0.1371,-0.0686,0.1200,0.1200,-0.9600,0.2260,-0.0208,-0.0170,-0.0059,1226,1502,1502,1497,1000,1000,1505,1000,1000,1505,1503,1407,1505,-0.4254,0.1364,0.9878,-0.0202,0.0251,0.9858,0.2163,0.2698,0.2239,0.1941,0.2204,0.0082,0.0438,0.2204,0.0082,0.0438,0.3000,0.0500,0.0002,0,-1.3605,-121.0000,-0.0152,-1.3605,-121.0000,-0.0152
8.6816,7.6327,0.5588,0.0000,-0.1371,0.1200,0.1200,-0.9600,0.2260,-0.0209,-0.0170,-0.0027,1226,1502,1502,1497,1000,1000,1505,1000,1000,1505,1503,1407,1505,-0.0005,0.1587,0.0164,-0.0145,0.0379,0.9906,0.2193,0.2667,0.2272,0.1908,0.2204,0.0082,0.0438,0.2204,0.0082,0.0438,0.3000,0.0500,0.0002,0,-1.3605,-121.0000,-0.0152,-1.3605,-121.0000,-0.0152
8.6438,7.6036,0.5480,-0.0686,-0.2057,0.1200,0.1200,-0.9600,0.2260,-0.0209,-0.0169,-0.0014,1226,1502,1502,1497,1000,1000,1505,1000,1000,1505,1503,1407,1505,0.1468,-0.0037,-0.5472,-0.0094,0.0266,0.9949,0.2206,0.2652,0.2286,0.1896,0.2204,0.0082,0.0438,0.2204,0.0082,0.0438,0.3000,0.0500,0.0002,0,-1.3605,-121.0000,-0.0152,-1.3605,-121.0000,-0.0152
8.6073,7.5735,0.5433,-0.1371,-0.0686,0.2400,0.2400,-0.3200,0.2280,-0.0205,-0.0166,-0.0013,1227,1503,1503,1498,1000,1000,1505,1000,1000,1505,1503,1407,1505,0.1320,0.1310,0.6568,-0.0270,0.0134,0.9792,0.2227,0.2665,0.2306,0.1922,0.2204,0.0082,0.0438,0.2204,0.0082,0.0438,0.3000,0.0500,0.0002,0,-1.3605,-121.0000,-0.0152,-1.3605,-121.0000,-0.0152
8.5733,7.5417,0.5459,-0.0686,-0.0686,0.1200,0.1200,-0.9600,0.2260,-0.0207,-0.0167,-0.0033,1226,1502,1502,1497,1000,1000,1505,1000,1000,1505,1503,1407,1505,0.1137,-0.0830,0.1568,-0.0172,0.0192,0.9916,0.2186,0.2668,0.2267,0.1919,0.2204,0.0082,0.0438,0.2204,0.0082,0.0438,0.3000,0.0500,0.0002,0,-1.3605,-121.0000,-0.0152,-1.3605,-121.0000,-0.0152
8.5379,7.5123,0.5384,0.0000,-0.0686,0.1200,0.1200,-0.9600,0.2260,-0.0206,-0.0167,-0.0003,1226,1502,1502,1497,1000,1000,1505,1000,1000,1505,1503,1407,1505,-0.0585,0.1449,-0.8773,0.0012,0.0152,0.9893,0.2219,0.2636,0.2296,0.1890,0.2204,0.0082,0.0438,0.2204,0.0082,0.0438,0.3000,0.0500,0.0002,0,-1.3605,-121.0000,-0.0152,-1.3605,-121.0000,-0.0152
8.5006,7.4847,0.5311,-0.1371,-0.0686,0.1200,0.1200,-0.9600,0.2260,-0.0204,-0.0166,-0.0038,1226,1502,1502,1497,1000,1000,1505,1000,1000,1505,1503,1407,1505,-0.1736,-0.0224,0.2668,0.0006,0.0257,0.9833,0.2184,0.2668,0.2261,0.1927,0.2204,0.0082,0.0438,0.2204,0.0082,0.0438,0.3000,0.0500,0.0002,0,-1.3605,-121.0000,-0.0152,-1.3605,-121.0000,-0.0152
8.4630,7.4552,0.5330,0.0000,-0.1371,0.1200,0.1200,-0.9600,0.2260,-0.0203,-0.0166,-0.0056,1226,1502,1502,1497,1000,1000,1505,1000,1000,1505,1503,1407,1505,-0.2362,0.0521,0.9242,-0.0212,0.0261,0.9873,0.2166,0.2686,0.2241,0.1947,0.2204,0.0082,0.0438,0.2204,0.0082,0.0438,0.3000,0.0500,0.0002,0,-1.3605,-121.0000,-0.0152,-1.3605,-121.0000,-0.0152
8.4266,7.4240,0.5303,-0.0686,-0.0686,0.1200,0.1200,-0.9600,0.2260,-0.0203,-0.0166,-0.0021,1226,1502,1502,1497,1000,1000,1505,1000,1000,1505,1503,1407,1505,-0.1023,0.1329,-0.2537,-0.0177,0.0193,0.9908,0.2202,0.2650,0.2277,0.1912,0.2204,0.0082,0.0438,0.2204,0.0082,0.0438,0.3000,0.0500,0.0002,0,-1.3605,-121.0000,-0.0152,-1.3605,-121.0000,-0.0152
8.3892,7.3950,0.5189,0.0000,-0.0686,0.2400,0.2400,-0.3200,0.2280,-0.0199,-0.0162,0.0021,1227,1503,1503,1498,1000,1000,1505,1000,1000,1505,1503,1407,1505,-0.2756,-0.0418,-0.4819,-0.0018,0.0168,0.9943,0.2264,0.2620,0.2338,0.1899,0.2204,0.0082,0.0438,0.2204,0.0082,0.0438,0.3000,0.0500,0.0002,0,-1.3605,-121.0000,-0.0152,-1.3605,-121.0000,-0.0152
8.3524,7.3648,0.5145,-0.0686,-0.0686,0.1200,0.1200,-0.9600,0.2260,-0.0201,-0.0163,-0.0043,1226,1502,1502,1497,1000,1000,1505,1000,1000,1505,1503,1407,1505,-0.2892,-0.2505,0.4092,-0.0039,0.0255,0.9925,0.2179,0.2667,0.2254,0.1940,0.2204,0.0082,0.0438,0.2204,0.0082,0.0438,0.3000,0.0500,0.0002,0,-1.3605,-121.0000,-0.0152,-1.3605,-121.0000,-0.0152
8.3175,7.3325,0.5136,0.0000,-0.2057,0.1200,0.1200,-0.9600,0.2260,-0.0200,-0.0162,-0.0033,1226,1502,1502,1497,1000,1000,1505,1000,1000,1505,1503,1407,1505,-0.2440,-0.2924,0.0986,-0.0091,0.0301,0.9934,0.2189,0.2655,0.2265,0.1931,0.2204,0.0082,0.0438,0.2204,0.0082,0.0438,0.3000,0.0500,0.0002,0,-1.3605,-121.0000,-0.0152,-1.3605,-121.0000,-0.0152
8.2808,7.3019,0.5070,-0.2743,-0.0000,0.1200,0.1200,-0.9600,0.2260,-0.0200,-0.0162,-0.0019,1226,1502,1502,1497,1000,1000,1505,1000,1000,1505,1503,1407,1505,-0.0861,-0.2317,-0.3713,-0.0175,0.0253,0.9965,0.2203,0.2640,0.2280,0.1917,0.2204,0.0082,0.0438,0.2204,0.0082,0.0438,0.3000,0.0500,0.0002,0,-1.3605,-121.0000,-0.0152,-1.3605,-121.0000,-0.0152
8.2438,7.2705,0.4999,0.0000,-0.1371,0.1200,0.1200,-0.9600,0.2260,-0.0199,-0.0161,-0.0041,1226,1502,1502,1497,1000,1000,1505,1000,1000,1505,1503,1407,1505,-0.1244,-0.1406,0.2929,-0.0213,0.0242,0.9973,0.2181,0.2661,0.2257,0.1941,0.2204,0.0082,0.0438,0.2204,0.0082,0.0438,0.3000,0.0500,0.0002,0,-1.3605,-121.0000,-0.0152,-1.3605,-121.0000,-0.0152
8.2085,7.2384,0.5002,-0.0686,-0.0686,0.1200,0.1200,-0.9600,0.2260,-0.0199,-0.0161,-0.0049,1226,1502,1502,1497,1000,1000,1505,1000,1000,1505,1503,1407,1505,0.1354,-0.0152,0.6406,-0.0256,0.0264,0.9917,0.2173,0.2670,0.2249,0.1948,0.2204,0.0082,0.0438,0.2204,0.0082,0.0438,0.3000,0.0500,0.0002,0,-1.3605,-121.0000,-0.0152,-1.3605,-121.0000,-0.0152
8.1741,7.2077,0.4981,-0.2057,-0.0686,0.2400,0.1200,-0.3200,0.2280,-0.0195,-0.0162,0.0015,1227,1503,1502,1498,1000,1000,1505,1000,1000,1505,1503,1407,1505,0.0107,0.1920,-0.1315,-0.0268,0.0178,0.9869,0.2261,0.2622,0.2328,0.1909,0.2204,0.0082,0.0438,0.2204,0.0082,0.0438,0.3000,0.0500,0.0002,0,-1.3605,-121.0000,-0.0152,-1.3605,-121.0000,-0.0152
8.1381,7.1782,0.4895,-0.2057,-0.2057,0.1200,0.1200,-0.9600,0.2260,-0.0197,-0.0161,-0.0016,1226,1502,1502,1497,1000,1000,1505,1000,1000,1505,1503,1407,1505,0.0207,0.2917,-0.4397,-0.0287,0.0053,0.9821,0.2208,0.2635,0.2280,0.1917,0.2204,0.0082,0.0438,0.2204,0.0082,0.0438,0.3000,0.0500,0.0002,0,-1.3605,-121.0000,-0.0152,-1.3605,-121.0000,-0.0152
8.1042,7.1485,0.4847,-0.0686,-0.0686,0.1200,0.1200,-0.9600,0.2260,-0.0197,-0.0161,-0.0038,1226,1502,1502,1497,1000,1000,1505,1000,1000,1505,1503,1407,1505,0.0119,0.3862,0.2549,-0.0337,0.0101,0.9822,0.2187,0.2656,0.2257,0.1940,0.2204,0.0082,0.0438,0.2204,0.0082,0.0438,0.3000,0.0500,0.0002,0,-1.3605,-121.0000,-0.0152,-1.3605,-121.0000,-0.0152
8.0720,7.1169,0.4836,0.0000,-0.1371,0.1200,0.1200,-0.9600,0.2260,-0.0197,-0.0160,-0.0035,1226,1502,1502,1497,1000,1000,1505,1000,1000,1505,1503,1407,1505,0.3623,0.2453,0.1715,-0.0252,0.0330,0.9845,0.2187,0.2653,0.2262,0.1938,0.2204,0.0082,0.0438,0.2204,0.0082,0.0438,0.3000,0.0500,0.0002,0,-1.3605,-121.0000,-0.0152,-1.3605,-121.0000,-0.0152
8.0425,7.0858,0.4765,-0.0686,-0.1371,0.1200,0.1200,-0.9600,0.2260,-0.0199,-0.0159,-0.0015,1226,1502,1502,1497,1000,1000,1505,1000,1000,1505,1503,1407,1505,0.8154,0.2436,-0.4949,-0.0193,0.0487,0.9878,0.2205,0.2633,0.2284,0.1917,0.2204,0.0082,0.0438,0.2204,0.0082,0.0438,0.3000,0.0500,0.0002,0,-1.3605,-121.0000,-0.0152,-1.3605,-121.0000,-0.0152
8.0138,7.0540,0.4682,-0.0686,-0.2057,0.1200,0.1200,-0.9600,0.2260,-0.0198,-0.0157,-0.0031,1226,1502,1502,1497,1000,1000,1505,1000,1000,1505,1503,1407,1505,0.8581,-0.0892,-0.0144,-0.0089,0.0434,0.9886,0.2188,0.2647,0.2270,0.1936,0.2204,0.0082,0.0438,0.2204,0.0082,0.0438,0.3000,0.0500,0.0002,0,-1.3605,-121.0000,-0.0152,-1.3605,-121.0000,-0.0152
7.9854,7.0210,0.4669,-0.0686,-0.0686,0.2400,0.2400,-0.3200,0.2280,-0.0194,-0.0153,-0.0004,1227,1503,1503,1498,1000,1000,1505,1000,1000,1505,1503,1407,1505,0.6514,-0.2992,0.3684,-0.0035,0.0255,0.9886,0.2235,0.2631,0.2317,0.1937,0.2204,0.0082,0.0438,0.2204,0.0082,0.0438,0.3000,0.0500,0.0002,0,-1.3605,-121.0000,-0.0152,-1.3605,-121.0000,-0.0152
7.9552,6.9893,0.4620,0.0686,-0.1371,0.1200,0.1200,-0.9600,0.2260,-0.0195,-0.0155,-0.0022,1226,1502,1502,1497,1000,1000,1505,1000,1000,1505,1503,1407,1505,0.4689,-0.2819,-0.2761,0.0046,0.0090,0.9874,0.2198,0.2632,0.2279,0.1931,0.2204,0.0082,0.0438,0.2204,0.0082,0.0438,0.3000,0.0500,0.0002,0,-1.3605,-121.0000,-0.0152,-1.3605,-121.0000,-0.0152
7.9240,6.9585,0.4538,-0.0686,-0.0686,0.1200,0.1200,-0.9600,0.2260,-0.0194,-0.0155,-0.0026,1226,1502,1502,1497,1000,1000,1505,1000,1000,1505,1503,1407,1505,0.2776,-0.1671,-0.1342,-0.0134,0.0255,0.9845,0.2195,0.2635,0.2273,0.1938,0.2204,0.0082,0.0438,0.2204,0.0082,0.0438,0.3000,0.0500,0.0002,0,-1.3605,-121.0000,-0.0152,-1.3605,-121.0000,-0.0152
7.8898,6.9303,0.4492,-0.0686,-0.0686,0.1200,0.1200,-0.9600,0.2260,-0.0193,-0.0155,-0.0022,1226,1502,1502,1497,1000,1000,1505,1000,1000,1505,1503,1407,1505,0.3064,0.0047,-0.2052,-0.0087,0.0511,0.9948,0.2200,0.2630,0.2276,0.1933,0.2204,0.0082,0.0438,0.2204,0.0082,0.0438,0.3000,0.0500,0.0002,0,-1.3605,-121.0000,-0.0152,-1.3605,-121.0000,-0.0152
7.8536,6.9051,0.4230,-0.2743,-0.0686,0.1200,0.1200,-0.9600,0.2260,-0.0193,-0.0154,0.0091,1226,1502,1502,1497,1000,1000,1505,1000,1000,1505,1503,1407,1505,0.4548,-0.2124,-3.8770,-0.0209,0.0363,0.9899,0.2312,0.2516,0.2390,0.1822,0.2204,0.0082,0.0438,0.2204,0.0082,0.0438,0.3000,0.0500,0.0002,0,-1.3605,-121.0000,-0.0152,-1.3605,-121.0000,-0.0152
7.8153,6.8801,0.3662,-0.0686,-0.0686,0.1200,0.1200,-0.9600,0.2260,-0.0190,-0.0153,0.0114,1226,1502,1502,1497,1000,1000,1505,1000,1000,1505,1503,1407,1505,0.0704,-0.1734,-4.7868,-0.0183,0.1117,0.9816,0.2337,0.2490,0.2411,0.1802,0.2204,0.0082,0.0438,0.2204,0.0082,0.0438,0.3000,0.0500,0.0002,0,-1.3605,-121.0000,-0.0152,-1.3605,-121.0000,-0.0152
7.7670,6.8427,0.3269,0.0686,-0.0000,0.2400,0.2400,-0.3200,0.2280,-0.0182,-0.0144,0.0056,1227,1503,1503,1498,1000,1000,1505,1000,1000,1505,1503,1407,1505,-0.9457,-1.4604,-1.6522,-0.0520,0.0306,0.9818,0.2298,0.2551,0.2374,0.1898,0.2204,0.0082,0.0438,0.2204,0.0082,0.0438,0.3000,0.0500,0.0002,0,-1.3605,-121.0000,-0.0152,-1.3605,-121.0000,-0.0152
7.7158,6.7858,0.3046,0.0686,-0.0000,0.1200,0.1200,-0.9600,0.2260,-0.0178,-0.0134,-0.0002,1226,1502,1502,1497,1000,1000,1505,1000,1000,1505,1503,1407,1505,-2.2716,-4.1422,-1.1262,-0.0238,-0.0430,1.0139,0.2214,0.2574,0.2302,0.1950,0.2204,0.0082,0.0438,0.2204,0.0082,0.0438,0.3000,0.0500,0.0002,0,-1.3605,-121.0000,-0.0152,-1.3605,-121.0000,-0.0152
7.6633,6.6983,0.2824,0.0000,-0.2057,0.1200,0.1200,-0.9600,0.2260,-0.0182,-0.0121,-0.0038,1226,1502,1502,1497,1000,1000,1505,1000,1000,1505,1503,1407,1505,-1.0731,-6.7373,0.1096,0.0062,-0.0038,1.0005,0.2161,0.2601,0.2284,0.1995,0.2204,0.0082,0.0438,0.2204,0.0082,0.0438,0.3000,0.0500,0.0002,0,-1.3605,-121.0000,-0.0152,-1.3605,-121.0000,-0.0152
7.6228,6.5914,0.2819,-0.0686,-0.1371,0.1200,0.1200,-0.9600,0.2260,-0.0180,-0.0111,-0.0099,1226,1502,1502,1497,1000,1000,1505,1000,1000,1505,1503,1407,1505,-1.3247,-8.3955,2.3222,-0.0081,0.0158,0.9953,0.2093,0.2650,0.2230,0.2067,0.2204,0.0082,0.0438,0.2204,0.0082,0.0438,0.3000,0.0500,0.0002,0,-1.3605,-121.0000,-0.0152,-1.3605,-121.0000,-0.0152
7.5894,6.4674,0.2993,-0.2057,-0.2057,0.1200,0.1200,-0.9600,0.2260,-0.0187,-0.0111,-0.0153,1226,1502,1502,1497,1000,1000,1505,1000,1000,1505,1503,1407,1505,0.3269,-7.7598,3.8810,0.0260,0.0132,0.9812,0.2032,0.2711,0.2182,0.2115,0.2204,0.0082,0.0438,0.2204,0.0082,0.0438,0.3000,0.0500,0.0002,0,-1.3605,-121.0000,-0.0152,-1.3605,-121.0000,-0.0152
7.5662,6.3611,0.3344,-0.1371,-0.1371,0.1200,0.1200,-0.9600,0.2260,-0.0184,-0.0120,-0.0186,1226,1502,1502,1497,1000,1000,1505,1000,1000,1505,1503,1407,1505,-0.1743,-5.3224,5.1060,-0.0107,-0.0157,0.9986,0.2010,0.2749,0.2138,0.2142,0.2204,0.0082,0.0438,0.2204,0.0082,0.0438,0.3000,0.0500,0.0002,0,-1.3605,-121.0000,-0.0152,-1.3605,-121.0000,-0.0152
7.5351,6.2784,0.3775,-0.1371,-0.1371,0.2400,0.2400,-0.3200,0.2280,-0.0184,-0.0126,-0.0142,1227,1503,1503,1498,1000,1000,1505,1000,1000,1505,1503,1407,1505,0.6653,-2.8794,4.9938,0.0126,0.0331,0.9752,0.2080,0.2732,0.2197,0.2112,0.2204,0.0082,0.0438,0.2204,0.0082,0.0438,0.3000,0.0500,0.0002,0,-1.3605,-121.0000,-0.0152,-1.3605,-121.0000,-0.0152
7.5126,6.2385,0.4227,-0.0686,-0.1371,0.1200,0.1200,-0.9600,0.2260,-0.0180,-0.0148,-0.0147,1226,1502,1502,1497,1000,1000,1505,1000,1000,1505,1503,1407,1505,-0.7683,1.6888,3.8650,-0.0487,0.0043,0.9887,0.2080,0.2735,0.2145,0.2079,0.2204,0.0082,0.0438,0.2204,0.0082,0.0438,0.3000,0.0500,0.0002,0,-1.3605,-121.0000,-0.0152,-1.3605,-121.0000,-0.0152
7.4766,6.2163,0.4498,-0.2057,-0.2057,0.1200,0.1200,-0.9600,0.2260,-0.0189,-0.0154,-0.0102,1226,1502,1502,1497,1000,1000,1505,1000,1000,1505,1503,1407,1505,1.4353,3.1102,2.5661,0.0296,0.0223,0.9389,0.2123,0.2705,0.2193,0.2020,0.2204,0.0082,0.0438,0.2204,0.0082,0.0438,0.3000,0.0500,0.0002,0,-1.3605,-121.0000,-0.0152,-1.3605,-121.0000,-0.0152
7.4497,6.2344,0.4707,-0.0686,-0.2057,0.1200,0.1200,-0.9600,0.2260,-0.0180,-0.0164,-0.0052,1226,1502,1502,1497,1000,1000,1505,1000,1000,1505,1503,1407,1505,-0.3798,5.4371,0.6694,-0.0447,0.0219,1.0182,0.2192,0.2657,0.2224,0.1967,0.2204,0.0082,0.0438,0.2204,0.0082,0.0438,0.3000,0.0500,0.0002,0,-1.3605,-121.0000,-0.0152,-1.3605,-121.0000,-0.0152
7.4246,6.2456,0.4660,-0.0686,-0.3429,0.1200,0.1200,-0.9600,0.2260,-0.0192,-0.0161,-0.0017,1226,1502,1502,1497,1000,1000,1505,1000,1000,1505,1503,1407,1505,2.3487,4.6865,-0.4817,0.1258,0.0624,0.9658,0.2213,0.2630,0.2274,0.1924,0.2204,0.0082,0.0438,0.2204,0.0082,0.0438,0.3000,0.0500,0.0002,0,-1.3605,-121.0000,-0.0152,-1.3605,-121.0000,-0.0152
7.3954,6.2916,0.4598,0.0000,-0.1371,0.1200,0.1200,-0.9600,0.2260,-0.0184,-0.0156,0.0068,1226,1502,1502,1497,1000,1000,1505,1000,1000,1505,1503,1407,1505,0.7703,3.2637,-2.9190,-0.1063,-0.0273,0.9810,0.2300,0.2532,0.2356,0.1851,0.2204,0.0082,0.0438,0.2204,0.0082,0.0438,0.3000,0.0500,0.0002,0,-1.3605,-121.0000,-0.0152,-1.3605,-121.0000,-0.0152
7.3925,6.3009,0.4386,0.0000,-0.2057,0.2400,0.2400,-0.3200,0.2280,-0.0187,-0.0170,0.0047,1227,1503,1503,1498,1000,1000,1505,1000,1000,1505,1503,1407,1505,2.0923,6.9924,-1.3343,-0.1017,0.0368,1.0113,0.2310,0.2591,0.2344,0.1876,0.2204,0.0082,0.0438,0.2204,0.0082,0.0438,0.3000,0.0500,0.0002,0,-1.3605,-121.0000,-0.0152,-1.3605,-121.0000,-0.0152
7.3764,6.3414,0.4080,-0.0686,-0.2057,0.1200,0.1200,-0.9600,0.2260,-0.0201,-0.0148,0.0087,1226,1502,1502,1497,1000,1000,1505,1000,1000,1505,1503,1407,1505,4.6373,1.1091,-4.2423,0.1255,0.0118,1.0112,0.2294,0.2522,0.2400,0.1825,0.2204,0.0082,0.0438,0.2204,0.0082,0.0438,0.3000,0.0500,0.0002,0,-1.3605,-121.0000,-0.0152,-1.3605,-121.0000,-0.0152
7.3768,6.3632,0.3793,0.0000,-0.1371,0.1200,0.1200,-0.9600,0.2260,-0.0192,-0.0168,0.0063,1226,1502,1502,1497,1000,1000,1505,1000,1000,1505,1503,1407,1505,2.6787,5.6384,-3.0092,0.0553,0.0158,1.0283,0.2299,0.2558,0.2347,0.1837,0.2204,0.0082,0.0438,0.2204,0.0082,0.0438,0.3000,0.0500,0.0002,0,-1.3605,-121.0000,-0.0152,-1.3605,-121.0000,-0.0152
7.3700,6.3852,0.3430,-0.0686,-0.1371,0.1200,0.1200,-0.9600,0.2260,-0.0201,-0.0157,0.0011,1226,1502,1502,1497,1000,1000,1505,1000,1000,1505,1503,1407,1505,4.6202,2.8658,-1.5835,-0.0783,0.0610,1.0149,0.2227,0.2606,0.2315,0.1892,0.2204,0.0082,0.0438,0.2204,0.0082,0.0438,0.3000,0.0500,0.0002,0,-1.3605,-121.0000,-0.0152,-1.3605,-121.0000,-0.0152
7.3521,6.4055,0.3343,-0.0686,-0.0686,0.1200,0.1200,-0.9600,0.2260,-0.0188,-0.0155,0.0033,1226,1502,1502,1497,1000,1000,1505,1000,1000,1505,1503,1407,1505,1.8725,2.3198,-1.9499,-0.1910,-0.0098,0.8923,0.2259,0.2570,0.2326,0.1885,0.2204,0.0082,0.0438,0.2204,0.0082,0.0438,0.3000,0.0500,0.0002,0,-1.3605,-121.0000,-0.0152,-1.3605,-121.0000,-0.0152
7.3293,6.3876,0.3249,-0.0686,-0.1371,0.1200,0.1200,-0.9600,0.2260,-0.0180,-0.0151,-0.0051,1226,1502,1502,1497,1000,1000,1505,1000,1000,1505,1503,1407,1505,0.0816,1.5162,0.7230,0.0456,0.0711,1.0650,0.2180,0.2642,0.2238,0.1981,0.2204,0.0082,0.0438,0.2204,0.0082,0.0438,0.3000,0.0500,0.0002,0,-1.3605,-121.0000,-0.0152,-1.3605,-121.0000,-0.0152
7.2754,6.3656,0.3233,-0.1371,-0.1371,0.2400,0.1200,-0.3200,0.2280,-0.0166,-0.0127,0.0028,1227,1503,1502,1498,1000,1000,1505,1000,1000,1505,1503,1407,1505,-2.2135,-3.7353,-0.6448,0.0782,0.0720,0.9256,0.2270,0.2545,0.2347,0.1958,0.2204,0.0082,0.0438,0.2204,0.0082,0.0438,0.3000,0.0500,0.0002,0,-1.3605,-121.0000,-0.0152,-1.3605,-121.0000,-0.0152
7.2091,6.3070,0.3290,-0.0686,-0.2057,0.1200,0.1200,-0.9600,0.2260,-0.0158,-0.0130,-0.0105,1226,1502,1502,1497,1000,1000,1505,1000,1000,1505,1503,1407,1505,-4.1831,-2.8523,2.2506,-0.0113,-0.0071,1.0950,0.2127,0.2654,0.2183,0.2077,0.2204,0.0082,0.0438,0.2204,0.0082,0.0438,0.3000,0.0500,0.0002,0,-1.3605,-121.0000,-0.0152,-1.3605,-121.0000,-0.0152
7.1254,6.2220,0.3266,-0.0686,-0.2057,0.1200,0.1200,-0.9600,0.2260,-0.0152,-0.0127,-0.0051,1226,1502,1502,1497,1000,1000,1505,1000,1000,1505,1503,1407,1505,-5.2218,-3.0485,0.5442,0.0180,0.0448,0.9144,0.2184,0.2590,0.2234,0.2032,0.2204,0.0082,0.0438,0.2204,0.0082,0.0438,0.3000,0.0500,0.0002,0,-1.3605,-121.0000,-0.0152,-1.3605,-121.0000,-0.0152
7.0136,6.1583,0.3360,-0.2057,-0.1371,0.1200,0.1200,-0.9600,0.2260,-0.0137,-0.0107,-0.0053,1226,1502,1502,1497,1000,1000,1505,1000,1000,1505,1503,1407,1505,-8.0065,-7.3591,0.7892,-0.0716,-0.0341,1.0188,0.2177,0.2558,0.2237,0.2068,0.2204,0.0082,0.0438,0.2204,0.0082,0.0438,0.3000,0.0500,0.0002,0,-1.3605,-121.0000,-0.0152,-1.3605,-121.0000,-0.0152
6.8963,6.0775,0.3376,-0.2057,-0.2057,0.1200,0.1200,-0.9600,0.2260,-0.0123,-0.0139,-0.0063,1226,1502,1502,1497,1000,1000,1505,1000,1000,1505,1503,1407,1505,-10.6505,0.2888,1.0795,-0.0806,0.0003,0.9069,0.2213,0.2585,0.2181,0.2061,0.2204,0.0082,0.0438,0.2204,0.0082,0.0438,0.3000,0.0500,0.0002,0,-1.3605,-121.0000,-0.0152,-1.3605,-121.0000,-0.0152
6.7327,6.0086,0.3381,-0.2743,-0.2743,0.1200,0.1200,-0.9600,0.2260,-0.0119,-0.0107,-0.0033,1226,1502,1502,1497,1000,1000,1505,1000,1000,1505,1503,1407,1505,-10.8085,-6.6908,0.0344,0.0568,0.0306,0.9772,0.2215,0.2519,0.2239,0.2068,0.2204,0.0082,0.0438,0.2204,0.0082,0.0438,0.3000,0.0500,0.0002,0,-1.3605,-121.0000,-0.0152,-1.3605,-121.0000,-0.0152
6.5692,5.9765,0.3444,-0.4114,-0.2057,0.2400,0.2400,-0.3200,0.2280,-0.0094,-0.0135,-0.0018,1227,1503,1503,1498,1000,1000,1505,1000,1000,1505,1503,1407,1505,-15.1434,0.5489,0.6645,0.0326,-0.0755,1.0624,0.2303,0.2527,0.2220,0.2069,0.2204,0.0082,0.0438,0.2204,0.0082,0.0438,0.3000,0.0500,0.0002,0,-1.3605,-121.0000,-0.0152,-1.3605,-121.0000,-0.0152
6.3881,5.9251,0.3382,-0.4800,-0.2057,0.1200,0.1200,-0.9600,0.2260,-0.0097,-0.0130,-0.0060,1226,1502,1502,1497,1000,1000,1505,1000,1000,1505,1503,1407,1505,-14.0448,-1.0210,0.5470,0.0706,0.0728,0.9710,0.2233,0.2547,0.2167,0.2093,0.2204,0.0082,0.0438,0.2204,0.0082,0.0438,0.3000,0.0500,0.0002,0,-1.3605,-121.0000,-0.0152,-1.3605,-121.0000,-0.0152
6.1857,5.9336,0.3440,-0.4800,-0.0686,0.1200,0.1200,-0.9600,0.2260,-0.0086,-0.0137,-0.0009,1226,1502,1502,1497,1000,1000,1505,1000,1000,1505,1503,1407,1505,-15.4932,0.5219,-0.5578,-0.2123,-0.0606,0.9503,0.2302,0.2492,0.2200,0.2046,0.2204,0.0082,0.0438,0.2204,0.0082,0.0438,0.3000,0.0500,0.0002,0,-1.3605,-121.0000,-0.0152,-1.3605,-121.0000,-0.0152
5.9941,5.8996,0.3392,-0.4800,-0.0686,0.1200,0.1200,-0.9600,0.2260,-0.0074,-0.0149,-0.0057,1226,1502,1502,1497,1000,1000,1505,1000,1000,1505,1503,1407,1505,-17.3623,3.4286,1.0451,0.0092,0.0419,1.0203,0.2278,0.2540,0.2127,0.2094,0.2204,0.0082,0.0438,0.2204,0.0082,0.0438,0.3000,0.0500,0.0002,0,-1.3605,-121.0000,-0.0152,-1.3605,-121.0000,-0.0152
5.7864,5.9199,0.3427,-0.5486,0.0686,0.1200,0.1200,-0.9600,0.2260,-0.0085,-0.0149,0.0002,1226,1502,1502,1497,1000,1000,1505,1000,1000,1505,1503,1407,1505,-13.7643,3.3142,-1.1004,0.0029,0.0212,0.8990,0.2326,0.2492,0.2198,0.2024,0.2204,0.0082,0.0438,0.2204,0.0082,0.0438,0.3000,0.0500,0.0002,0,-1.3605,-121.0000,-0.0152,-1.3605,-121.0000,-0.0152
5.5988,5.9324,0.3462,-0.6857,-0.0000,0.1200,0.1200,-0.9600,0.2260,-0.0079,-0.0153,-0.0071,1226,1502,1502,1497,1000,1000,1505,1000,1000,1505,1503,1407,1505,-14.2049,4.1411,1.2390,0.0657,-0.1169,1.1568,0.2263,0.2563,0.2115,0.2099,0.2204,0.0082,0.0438,0.2204,0.0082,0.0438,0.3000,0.0500,0.0002,0,-1.3605,-121.0000,-0.0152,-1.3605,-121.0000,-0.0152
5.4492,5.9539,0.3493,-0.6171,0.0686,0.2400,0.2400,-0.3200,0.2280,-0.0100,-0.0151,-0.0011,1227,1503,1503,1498,1000,1000,1505,1000,1000,1505,1503,1407,1505,-7.9993,4.1300,0.2780,-0.0491,-0.1356,0.8748,0.2320,0.2542,0.2219,0.2039,0.2204,0.0082,0.0438,0.2204,0.0082,0.0438,0.3000,0.0500,0.0002,0,-1.3605,-121.0000,-0.0152,-1.3605,-121.0000,-0.0152
5.3237,5.9697,0.3552,-0.6857,-0.0000,0.1200,0.1200,-0.9600,0.2260,-0.0107,-0.0139,-0.0016,1226,1502,1502,1497,1000,1000,1505,1000,1000,1505,1503,1407,1505,-6.5296,0.7821,-0.3514,-0.0785,-0.1030,1.1007,0.2276,0.2522,0.2211,0.2030,0.2204,0.0082,0.0438,0.2204,0.0082,0.0438,0.3000,0.0500,0.0002,0,-1.3605,-121.0000,-0.0152,-1.3605,-121.0000,-0.0152
5.2523,5.9609,0.3603,-0.6171,0.1371,0.1200,0.1200,-0.9600,0.2260,-0.0115,-0.0151,-0.0068,1226,1502,1502,1497,1000,1000,1505,1000,1000,1505,1503,1407,1505,-4.1940,3.4567,1.5309,-0.0167,0.0098,0.9435,0.2228,0.2594,0.2157,0.2062,0.2204,0.0082,0.0438,0.2204,0.0082,0.0438,0.3000,0.0500,0.0002,0,-1.3605,-121.0000,-0.0152,-1.3605,-121.0000,-0.0152
5.1730,5.9491,0.3544,-0.6171,0.0686,0.1200,0.1200,-0.9600,0.2260,-0.0128,-0.0118,-0.0027,1226,1502,1502,1497,1000,1000,1505,1000,1000,1505,1503,1407,1505,-0.7774,-3.9258,-0.4453,-0.0072,-0.0310,0.9895,0.2223,0.2533,0.2244,0.2040,0.2204,0.0082,0.0438,0.2204,0.0082,0.0438,0.3000,0.0500,0.0002,0,-1.3605,-121.0000,-0.0152,-1.3605,-121.0000,-0.0152
5.1231,5.9078,0.3559,-0.5486,0.1371,0.1200,0.1200,-0.9600,0.2260,-0.0109,-0.0138,-0.0039,1226,1502,1502,1497,1000,1000,1505,1000,1000,1505,1503,1407,1505,-4.9299,0.9046,0.3727,-0.1267,-0.0348,1.0381,0.2250,0.2547,0.2191,0.2052,0.2204,0.0082,0.0438,0.2204,0.0082,0.0438,0.3000,0.0500,0.0002,0,-1.3605,-121.0000,-0.0152,-1.3605,-121.0000,-0.0152
5.0688,5.8375,0.3372,-0.5486,-0.0686,0.1200,0.1200,-0.9600,0.2260,-0.0114,-0.0105,0.0004,1226,1502,1502,1497,1000,1000,1505,1000,1000,1505,1503,1407,1505,-3.6053,-6.3167,-1.4331,-0.0424,0.0472,0.9321,0.2255,0.2476,0.2272,0.2037,0.2204,0.0082,0.0438,0.2204,0.0082,0.0438,0.3000,0.0500,0.0002,0,-1.3605,-121.0000,-0.0152,-1.3605,-121.0000,-0.0152
4.9932,5.7734,0.3337,-0.5486,0.0686,0.2400,0.1200,-0.3200,0.2280,-0.0103,-0.0116,0.0040,1227,1503,1502,1498,1000,1000,1505,1000,1000,1505,1503,1407,1505,-5.1959,-3.5371,-0.6819,-0.0376,0.0139,1.0314,0.2333,0.2459,0.2306,0.2022,0.2204,0.0082,0.0438,0.2204,0.0082,0.0438,0.3000,0.0500,0.0002,0,-1.3605,-121.0000,-0.0152,-1.3605,-121.0000,-0.0152
4.9271,5.6819,0.3134,-0.5486,-0.1371,0.1200,0.1200,-0.9600,0.2260,-0.0100,-0.0111,-0.0047,1226,1502,1502,1497,1000,1000,1505,1000,1000,1505,1503,1407,1505,-6.0776,-4.2966,0.2439,0.0733,0.1502,0.9390,0.2224,0.2518,0.2202,0.2097,0.2204,0.0082,0.0438,0.2204,0.0082,0.0438,0.3000,0.0500,0.0002,0,-1.3605,-121.0000,-0.0152,-1.3605,-121.0000,-0.0152
4.8186,5.6261,0.3121,-0.5486,-0.0686,0.1200,0.1200,-0.9600,0.2260,-0.0101,-0.0104,-0.0004,1226,1502,1502,1497,1000,1000,1505,1000,1000,1505,1503,1407,1505,-5.2054,-5.5271,-0.8115,0.0746,-0.0045,0.9884,0.2259,0.2470,0.2253,0.2058,0.2204,0.0082,0.0438,0.2204,0.0082,0.0438,0.3000,0.0500,0.0002,0,-1.3605,-121.0000,-0.0152,-1.3605,-121.0000,-0.0152
4.7180,5.5679,0.3080,-0.4800,-0.0000,0.1200,0.1200,-0.9600,0.2260,-0.0079,-0.0132,-0.0043,1226,1502,1502,1497,1000,1000,1505,1000,1000,1505,1503,1407,1505,-9.7716,1.1024,0.3501,-0.1525,-0.0198,0.9752,0.2270,0.2515,0.2163,0.2092,0.2204,0.0082,0.0438,0.2204,0.0082,0.0438,0.3000,0.0500,0.0002,0,-1.3605,-121.0000,-0.0152,-1.3605,-121.0000,-0.0152
4.5822,5.5254,0.3106,-0.5486,-0.0000,0.1200,0.1200,-0.9600,0.2260,-0.0078,-0.0118,-0.0044,1226,1502,1502,1497,1000,1000,1505,1000,1000,1505,1503,1407,1505,-9.2596,-1.9412,0.4668,0.0793,0.0240,0.9289,0.2256,0.2500,0.2177,0.2108,0.2204,0.0082,0.0438,0.2204,0.0082,0.0438,0.3000,0.0500,0.0002,0,-1.3605,-121.0000,-0.0152,-1.3605,-121.0000,-0.0152
4.4311,5.5124,0.3175,-0.5486,0.0686,0.1200,0.1200,-0.9600,0.2260,-0.0060,-0.0135,-0.0061,1226,1502,1502,1497,1000,1000,1505,1000,1000,1505,1503,1407,1505,-12.6081,2.0493,0.8661,0.0199,0.0108,1.0789,0.2274,0.2516,0.2124,0.2126,0.2204,0.0082,0.0438,0.2204,0.0082,0.0438,0.3000,0.0500,0.0002,0,-1.3605,-121.0000,-0.0152,-1.3605,-121.0000,-0.0152
4.2634,5.4869,0.3204,-0.6857,-0.0000,0.2400,0.2400,-0.3200,0.2280,-0.0052,-0.0130,-0.0031,1227,1503,1503,1498,1000,1000,1505,1000,1000,1505,1503,1407,1505,-13.1558,1.6694,0.8971,0.0637,-0.0437,0.9353,0.2328,0.2493,0.2170,0.2129,0.2204,0.0082,0.0438,0.2204,0.0082,0.0438,0.3000,0.0500,0.0002,0,-1.3605,-121.0000,-0.0152,-1.3605,-121.0000,-0.0152
4.0831,5.4970,0.3295,-0.6857,0.1371,0.1200,0.1200,-0.9600,0.2260,-0.0044,-0.0132,-0.0001,1226,1502,1502,1497,1000,1000,1505,1000,1000,1505,1503,1407,1505,-14.5915,1.3678,-0.7247,-0.1323,-0.0592,1.0508,0.2347,0.2436,0.2172,0.2085,0.2204,0.0082,0.0438,0.2204,0.0082,0.0438,0.3000,0.0500,0.0002,0,-1.3605,-121.0000,-0.0152,-1.3605,-121.0000,-0.0152
3.9104,5.4768,0.3302,-0.6171,0.0686,0.1200,0.1200,-0.9600,0.2260,-0.0028,-0.0135,-0.0076,1226,1502,1502,1497,1000,1000,1505,1000,1000,1505,1503,1407,1505,-17.4196,2.1004,1.5133,-0.0246,0.1174,0.9183,0.2291,0.2498,0.2078,0.2173,0.2204,0.0082,0.0438,0.2204,0.0082,0.0438,0.3000,0.0500,0.0002,0,-1.3605,-121.0000,-0.0152,-1.3605,-121.0000,-0.0152
3.6960,5.4680,0.3280,-0.6171,0.1371,0.1200,0.1200,-0.9600,0.2260,-0.0032,-0.0122,-0.0031,1226,1502,1502,1497,1000,1000,1505,1000,1000,1505,1503,1407,1505,-15.3648,-0.8280,-0.2596,0.0372,-0.0642,0.9813,0.2319,0.2445,0.2139,0.2137,0.2204,0.0082,0.0438,0.2204,0.0082,0.0438,0.3000,0.0500,0.0002,0,-1.3605,-121.0000,-0.0152,-1.3605,-121.0000,-0.0152
3.5149,5.4484,0.3281,-0.6857,0.1371,0.1200,0.1200,-0.9600,0.2260,-0.0028,-0.0132,-0.0035,1226,1502,1502,1497,1000,1000,1505,1000,1000,1505,1503,1407,1505,-15.3177,1.6470,0.1516,-0.1627,-0.1171,0.9726,0.2329,0.2456,0.2121,0.2135,0.2204,0.0082,0.0438,0.2204,0.0082,0.0438,0.3000,0.0500,0.0002,0,-1.3605,-121.0000,-0.0152,-1.3605,-121.0000,-0.0152
3.3492,5.4082,0.3216,-0.6171,0.1371,0.1200,0.1200,-0.9600,0.2260,-0.0054,-0.0120,-0.0024,1226,1502,1502,1497,1000,1000,1505,1000,1000,1505,1503,1407,1505,-8.4941,-1.0070,-0.3121,-0.0017,-0.1364,0.9060,0.2301,0.2458,0.2171,0.2110,0.2204,0.0082,0.0438,0.2204,0.0082,0.0438,0.3000,0.0500,0.0002,0,-1.3605,-121.0000,-0.0152,-1.3605,-121.0000,-0.0152
3.2495,5.3959,0.3262,-0.6857,-0.0000,0.2400,0.2400,-0.3200,0.2280,-0.0072,-0.0119,-0.0018,1227,1503,1503,1498,1000,1000,1505,1000,1000,1505,1503,1407,1505,-3.4510,-0.5557,0.9201,-0.0049,-0.0906,1.0275,0.2309,0.2489,0.2215,0.2108,0.2204,0.0082,0.0438,0.2204,0.0082,0.0438,0.3000,0.0500,0.0002,0,-1.3605,-121.0000,-0.0152,-1.3605,-121.0000,-0.0152
3.2216,5.3580,0.3181,-0.6171,0.1371,0.1200,0.1200,-0.9600,0.2260,-0.0110,-0.0128,-0.0060,1226,1502,1502,1497,1000,1000,1505,1000,1000,1505,1503,1407,1505,4.7920,1.1740,0.4670,0.1349,-0.1168,0.9896,0.2218,0.2558,0.2181,0.2082,0.2204,0.0082,0.0438,0.2204,0.0082,0.0438,0.3000,0.0500,0.0002,0,-1.3605,-121.0000,-0.0152,-1.3605,-121.0000,-0.0152
3.2329,5.3571,0.3208,-0.6857,-0.0686,0.1200,0.1200,-0.9600,0.2260,-0.0122,-0.0118,0.0011,1226,1502,1502,1497,1000,1000,1505,1000,1000,1505,1503,1407,1505,7.4631,-1.0806,-1.1437,-0.1794,-0.1847,0.9788,0.2267,0.2490,0.2274,0.2009,0.2204,0.0082,0.0438,0.2204,0.0082,0.0438,0.3000,0.0500,0.0002,0,-1.3605,-121.0000,-0.0152,-1.3605,-121.0000,-0.0152
3.2976,5.3155,0.3087,-0.4800,0.1371,0.1200,0.1200,-0.9600,0.2260,-0.0124,-0.0137,-0.0018,1226,1502,1502,1497,1000,1000,1505,1000,1000,1505,1503,1407,1505,7.7364,3.3191,-0.4172,-0.0309,0.0003,1.0284,0.2254,0.2540,0.2229,0.2017,0.2204,0.0082,0.0438,0.2204,0.0082,0.0438,0.3000,0.0500,0.0002,0,-1.3605,-121.0000,-0.0152,-1.3605,-121.0000,-0.0152
3.3409,5.3141,0.2944,-0.6171,0.0686,0.1200,0.1200,-0.9600,0.2260,-0.0134,-0.0113,0.0047,1226,1502,1502,1497,1000,1000,1505,1000,1000,1505,1503,1407,1505,9.7356,-2.2301,-2.6661,0.0370,-0.0275,0.9387,0.2286,0.2459,0.2329,0.1966,0.2204,0.0082,0.0438,0.2204,0.0082,0.0438,0.3000,0.0500,0.0002,0,-1.3605,-121.0000,-0.0152,-1.3605,-121.0000,-0.0152
3.4014,5.2800,0.2725,-0.5486,0.0686,0.1200,0.1200,-0.9600,0.2260,-0.0122,-0.0131,0.0003,1226,1502,1502,1497,1000,1000,1505,1000,1000,1505,1503,1407,1505,6.7699,2.1452,-1.2313,-0.0312,0.0547,1.1266,0.2271,0.2511,0.2254,0.2004,0.2204,0.0082,0.0438,0.2204,0.0082,0.0438,0.3000,0.0500,0.0002,0,-1.3605,-121.0000,-0.0152,-1.3605,-121.0000,-0.0152
3.4551,5.2452,0.2513,-0.5486,0.0686,0.2400,0.2400,-0.3200,0.2280,-0.0124,-0.0111,0.0082,1227,1503,1503,1498,1000,1000,1505,1000,1000,1505,1503,1407,1505,7.5092,-1.6298,-2.4538,-0.0188,0.0215,0.8290,0.2348,0.2434,0.2375,0.1963,0.2204,0.0082,0.0438,0.2204,0.0082,0.0438,0.3000,0.0500,0.0002,0,-1.3605,-121.0000,-0.0152,-1.3605,-121.0000,-0.0152
3.4897,5.2178,0.2372,-0.5486,-0.0000,0.1200,0.1200,-0.9600,0.2260,-0.0110,-0.0116,-0.0017,1226,1502,1502,1497,1000,1000,1505,1000,1000,1505,1503,1407,1505,3.4995,-1.0923,-0.4295,0.0137,0.0971,1.1234,0.2248,0.2503,0.2237,0.2052,0.2204,0.0082,0.0438,0.2204,0.0082,0.0438,0.3000,0.0500,0.0002,0,-1.3605,-121.0000,-0.0152,-1.3605,-121.0000,-0.0152
3.5050,5.1798,0.2257,-0.5486,-0.0000,0.1200,0.1200,-0.9600,0.2260,-0.0112,-0.0124,-0.0050,1226,1502,1502,1497,1000,1000,1505,1000,1000,1505,1503,1407,1505,3.8570,1.0473,0.3108,0.1075,0.0177,0.9177,0.2222,0.2546,0.2198,0.2074,0.2204,0.0082,0.0438,0.2204,0.0082,0.0438,0.3000,0.0500,0.0002,0,-1.3605,-121.0000,-0.0152,-1.3605,-121.0000,-0.0152
3.4846,5.1688,0.2216,-0.6171,-0.0000,0.1200,0.1200,-0.9600,0.2260,-0.0097,-0.0113,-0.0003,1226,1502,1502,1497,1000,1000,1505,1000,1000,1505,1503,1407,1505,0.4958,-1.3479,-0.9351,-0.1073,-0.0354,1.0488,0.2273,0.2474,0.2240,0.2053,0.2204,0.0082,0.0438,0.2204,0.0082,0.0438,0.3000,0.0500,0.0002,0,-1.3605,-121.0000,-0.0152,-1.3605,-121.0000,-0.0152
3.4538,5.1280,0.2259,-0.6171,-0.0686,0.1200,0.1200,-0.9600,0.2260,-0.0081,-0.0125,-0.0074,1226,1502,1502,1497,1000,1000,1505,1000,1000,1505,1503,1407,1505,-2.8580,1.4435,1.5560,-0.0362,-0.0328,0.9386,0.2229,0.2541,0.2142,0.2128,0.2204,0.0082,0.0438,0.2204,0.0082,0.0438,0.3000,0.0500,0.0002,0,-1.3605,-121.0000,-0.0152,-1.3605,-121.0000,-0.0152
3.3827,5.1087,0.2252,-0.6171,-0.0686,0.1200,0.1200,-0.9600,0.2260,-0.0078,-0.0108,-0.0021,1226,1502,1502,1497,1000,1000,1505,1000,1000,1505,1503,1407,1505,-3.2701,-2.3444,-0.4338,0.0187,0.0390,1.0443,0.2268,0.2467,0.2209,0.2096,0.2204,0.0082,0.0438,0.2204,0.0082,0.0438,0.3000,0.0500,0.0002,0,-1.3605,-121.0000,-0.0152,-1.3605,-121.0000,-0.0152
3.3098,5.0843,0.2342,-0.6171,-0.0000,0.2400,0.2400,-0.3200,0.2280,-0.0061,-0.0125,-0.0046,1227,1503,1503,1498,1000,1000,1505,1000,1000,1505,1503,1407,1505,-6.2855,2.3203,1.5961,-0.0569,-0.0634,1.0063,0.2298,0.2512,0.2169,0.2141,0.2204,0.0082,0.0438,0.2204,0.0082,0.0438,0.3000,0.0500,0.0002,0,-1.3605,-121.0000,-0.0152,-1.3605,-121.0000,-0.0152
3.2246,5.0532,0.2285,-0.5486,0.0686,0.1200,0.1200,-0.9600,0.2260,-0.0064,-0.0121,0.0001,1226,1502,1502,1497,1000,1000,1505,1000,1000,1505,1503,1407,1505,-5.7033,1.0048,-1.1519,-0.0488,0.0535,0.9365,0.2318,0.2445,0.2203,0.2074,0.2204,0.0082,0.0438,0.2204,0.0082,0.0438,0.3000,0.0500,0.0002,0,-1.3605,-121.0000,-0.0152,-1.3605,-121.0000,-0.0152
3.1372,5.0374,0.2365,-0.5486,0.0686,0.1200,0.1200,-0.9600,0.2260,-0.0057,-0.0115,-0.0053,1226,1502,1502,1497,1000,1000,1505,1000,1000,1505,1503,1407,1505,-6.9063,-0.4192,0.8695,0.0145,0.0175,0.9801,0.2265,0.2485,0.2149,0.2142,0.2204,0.0082,0.0438,0.2204,0.0082,0.0438,0.3000,0.0500,0.0002,0,-1.3605,-121.0000,-0.0152,-1.3605,-121.0000,-0.0152
3.0576,5.0120,0.2297,-0.6171,0.0686,0.1200,0.1200,-0.9600,0.2260,-0.0070,-0.0129,-0.0041,1226,1502,1502,1497,1000,1000,1505,1000,1000,1505,1503,1407,1505,-3.5084,2.9957,0.0102,0.0664,0.0207,0.9864,0.2279,0.2500,0.2160,0.2101,0.2204,0.0082,0.0438,0.2204,0.0082,0.0438,0.3000,0.0500,0.0002,0,-1.3605,-121.0000,-0.0152,-1.3605,-121.0000,-0.0152
2.9767,5.0099,0.2358,-0.5486,0.0686,0.1200,0.1200,-0.9600,0.2260,-0.0073,-0.0107,-0.0043,1226,1502,1502,1497,1000,1000,1505,1000,1000,1505,1503,1407,1505,-2.3308,-2.1647,0.4536,-0.0509,-0.0917,0.9515,0.2250,0.2483,0.2184,0.2123,0.2204,0.0082,0.0438,0.2204,0.0082,0.0438,0.3000,0.0500,0.0002,0,-1.3605,-121.0000,-0.0152,-1.3605,-121.0000,-0.0152
2.9299,4.9833,0.2397,-0.6171,0.1371,0.1200,0.1200,-0.9600,0.2350,-0.0075,-0.0135,-0.0046,1235,1502,1502,1497,1000,1000,1505,1000,1000,1505,1503,1407,1505,-1.6895,4.5103,0.4995,-0.1027,-0.0717,0.9978,0.2365,0.2606,0.2244,0.2185,0.2204,0.0082,0.0438,0.2204,0.0082,0.0438,0.3000,0.0500,0.0002,0,-1.3605,-121.0000,-0.0152,-1.3605,-121.0000,-0.0152
2.8803,4.9697,0.2434,-0.6171,0.0686,0.2400,0.2400,-0.3200,0.2590,-0.0085,-0.0092,-0.0023,1259,1503,1503,1498,1000,1000,1505,1000,1000,1505,1503,1407,1505,1.4342,-4.7014,0.8108,0.0236,-0.0535,0.9543,0.2574,0.2790,0.2560,0.2436,0.2204,0.0082,0.0438,0.2204,0.0082,0.0438,0.3000,0.0500,0.0002,0,-1.3605,-121.0000,-0.0152,-1.3605,-121.0000,-0.0152
2.8595,4.9470,0.2501,-0.6171,0.0686,0.1200,0.1200,-0.9600,0.2660,-0.0084,-0.0129,-0.0044,1266,1502,1502,1497,1000,1000,1505,1000,1000,1505,1503,1407,1505,0.6107,3.1460,0.3885,0.0070,-0.0748,1.1144,0.2661,0.2916,0.2571,0.2492,0.2204,0.0082,0.0438,0.2204,0.0082,0.0438,0.3000,0.0500,0.0002,0,-1.3605,-121.0000,-0.0152,-1.3605,-121.0000,-0.0152
2.8443,4.9181,0.2425,-0.6171,0.2057,0.1200,0.1200,-0.9600,0.2890,-0.0093,-0.0101,-0.0032,1289,1502,1502,1497,1000,1000,1505,1000,1000,1505,1503,1407,1505,2.9358,-2.9855,-0.1883,-0.0508,-0.0472,0.8778,0.2866,0.3116,0.2850,0.2727,0.2204,0.0082,0.0438,0.2204,0.0082,0.0438,0.3000,0.0500,0.0002,0,-1.3605,-121.0000,-0.0152,-1.3605,-121.0000,-0.0152
2.8330,4.8950,0.2376,-0.7543,-0.0000,0.1200,0.1200,-0.9600,0.2960,-0.0088,-0.0113,0.0044,1296,1502,1502,1497,1000,1000,1505,1000,1000,1505,1503,1407,1505,1.7303,-0.1504,-2.1347,-0.0784,-0.0331,1.0777,0.3029,0.3117,0.2978,0.2715,0.2204,0.0082,0.0438,0.2204,0.0082,0.0438,0.3000,0.0500,0.0002,0,-1.3605,-121.0000,-0.0152,-1.3605,-121.0000,-0.0152
2.8366,4.8643,0.2088,-0.6171,-0.0000,0.1200,0.1200,-0.9600,0.3010,-0.0089,-0.0104,0.0009,1301,1502,1502,1497,1000,1000,1505,1000,1000,1505,1503,1407,1505,1.9639,-2.0275,-1.4068,0.0236,0.0044,0.9190,0.3035,0.3194,0.3004,0.2807,0.2204,0.0082,0.0438,0.2204,0.0082,0.0438,0.3000,0.0500,0.0002,0,-1.3605,-121.0000,-0.0152,-1.3605,-121.0000,-0.0152
2.8230,4.8241,0.1875,-0.6171,-0.0686,0.1200,0.1200,-0.9600,0.3050,-0.0097,-0.0105,0.0030,1305,1502,1502,1497,1000,1000,1505,1000,1000,1505,1503,1407,1505,3.8458,-1.7304,-2.1801,0.0328,-0.0488,1.0458,0.3088,0.3222,0.3072,0.2818,0.2204,0.0082,0.0438,0.2204,0.0082,0.0438,0.3000,0.0500,0.0002,0,-1.3605,-121.0000,-0.0152,-1.3605,-121.0000,-0.0152
2.8316,4.7933,0.1771,-0.4800,-0.0000,0.2400,0.1200,-0.3200,0.3160,-0.0082,-0.0097,-0.0033,1316,1503,1502,1498,1000,1000,1505,1000,1000,1505,1503,1407,1505,1.0424,-3.3535,1.1572,0.0420,-0.1527,1.0716,0.3141,0.3372,0.3112,0.3014,0.2204,0.0082,0.0438,0.2204,0.0082,0.0438,0.3000,0.0500,0.0002,0,-1.3605,-121.0000,-0.0152,-1.3605,-121.0000,-0.0152
2.8222,4.7400,0.1785,-0.4800,-0.0686,0.1200,0.1200,-0.9600,0.3240,-0.0090,-0.0106,-0.0061,1324,1502,1502,1497,1000,1000,1505,1000,1000,1505,1503,1407,1505,2.2683,-1.1366,0.8849,0.0836,-0.1006,1.0219,0.3195,0.3496,0.3164,0.3105,0.2204,0.0082,0.0438,0.2204,0.0082,0.0438,0.3000,0.0500,0.0002,0,-1.3605,-121.0000,-0.0152,-1.3605,-121.0000,-0.0152
2.7926,4.7219,0.1922,-0.4800,-0.0686,0.1200,0.1200,-0.9600,0.3260,-0.0089,-0.0083,-0.0060,1326,1502,1502,1497,1000,1000,1505,1000,1000,1505,1503,1407,1505,2.1550,-6.1309,1.0435,0.0060,-0.0634,1.0016,0.3194,0.3492,0.3205,0.3148,0.2204,0.0082,0.0438,0.2204,0.0082,0.0438,0.3000,0.0500,0.0002,0,-1.3605,-121.0000,-0.0152,-1.3605,-121.0000,-0.0152
2.7813,4.6683,0.2028,-0.5486,0.0686,0.1200,0.1200,-0.9600,0.3260,-0.0075,-0.0115,-0.0080,1326,1502,1502,1497,1000,1000,1505,1000,1000,1505,1503,1407,1505,-0.9798,1.3093,1.4433,-0.0457,-0.1236,0.9852,0.3220,0.3530,0.3140,0.3151,0.2204,0.0082,0.0438,0.2204,0.0082,0.0438,0.3000,0.0500,0.0002,0,-1.3605,-121.0000,-0.0152,-1.3605,-121.0000,-0.0152
2.7457,4.6448,0.2110,-0.4800,-0.0686,0.1200,0.1200,-0.9600,0.3260,-0.0074,-0.0105,-0.0064,1326,1502,1502,1497,1000,1000,1505,1000,1000,1505,1503,1407,1505,-0.9163,-0.7090,1.1020,-0.0862,-0.0963,0.9723,0.3227,0.3504,0.3165,0.3144,0.2204,0.0082,0.0438,0.2204,0.0082,0.0438,0.3000,0.0500,0.0002,0,-1.3605,-121.0000,-0.0152,-1.3605,-121.0000,-0.0152
2.6840,4.6361,0.2056,-0.5486,-0.0686,0.1200,0.1200,-0.9600,0.3260,-0.0071,-0.0107,-0.0077,1326,1502,1502,1497,1000,1000,1505,1000,1000,1505,1503,1407,1505,-1.2977,-0.2525,1.3237,-0.1062,-0.2015,0.8731,0.3219,0.3516,0.3147,0.3159,0.2204,0.0082,0.0438,0.2204,0.0082,0.0438,0.3000,0.0500,0.0002,0,-1.3605,-121.0000,-0.0152,-1.3605,-121.0000,-0.0152
2.6007,4.6175,0.1943,-0.4800,-0.1371,0.2400,0.2400,-0.3200,0.3280,-0.0051,-0.0111,0.0023,1327,1503,1503,1498,1000,1000,1505,1000,1000,1505,1503,1407,1505,-4.8551,1.3203,-1.1716,-0.0055,-0.4435,0.9898,0.3363,0.3420,0.3243,0.3095,0.2204,0.0082,0.0438,0.2204,0.0082,0.0438,0.3000,0.0500,0.0002,0,-1.3605,-121.0000,-0.0152,-1.3605,-121.0000,-0.0152
2.5146,4.6020,0.1917,-0.4800,-0.0686,0.1200,0.1200,-0.9600,0.3260,-0.0060,-0.0100,-0.0066,1326,1502,1502,1497,1000,1000,1505,1000,1000,1505,1503,1407,1505,-2.9789,-1.7127,1.0675,-0.0337,-0.1704,0.9474,0.3234,0.3487,0.3154,0.3166,0.2204,0.0082,0.0438,0.2204,0.0082,0.0438,0.3000,0.0500,0.0002,0,-1.3605,-121.0000,-0.0152,-1.3605,-121.0000,-0.0152
2.4411,4.5841,0.1860,-0.4114,-0.0000,0.1200,0.1200,-0.9600,0.3260,-0.0053,-0.0105,-0.0009,1326,1502,1502,1497,1000,1000,1505,1000,1000,1505,1503,1407,1505,-4.3278,-0.4312,-0.4556,-0.2025,-0.0496,0.9132,0.3304,0.3427,0.3198,0.3111,0.2204,0.0082,0.0438,0.2204,0.0082,0.0438,0.3000,0.0500,0.0002,0,-1.3605,-121.0000,-0.0152,-1.3605,-121.0000,-0.0152
2.3798,4.5488,0.1799,-0.5486,-0.0686,0.1200,0.1200,-0.9600,0.3260,-0.0039,-0.0110,-0.0055,1326,1502,1502,1497,1000,1000,1505,1000,1000,1505,1503,1407,1505,-7.0752,0.8846,0.5405,0.0367,-0.0110,0.9847,0.3276,0.3465,0.3134,0.3165,0.2204,0.0082,0.0438,0.2204,0.0082,0.0438,0.3000,0.0500,0.0002,0,-1.3605,-121.0000,-0.0152,-1.3605,-121.0000,-0.0152
2.3160,4.5274,0.1777,-0.4800,-0.0000,0.1200,0.1200,-0.9600,0.3260,-0.0047,-0.0108,-0.0033,1326,1502,1502,1497,1000,1000,1505,1000,1000,1505,1503,1407,1505,-5.0074,0.4660,0.2288,0.0559,0.2805,1.0466,0.3289,0.3448,0.3166,0.3137,0.2204,0.0082,0.0438,0.2204,0.0082,0.0438,0.3000,0.0500,0.0002,0,-1.3605,-121.0000,-0.0152,-1.3605,-121.0000,-0.0152
2.2427,4.5190,0.1759,-0.6171,-0.0000,0.1200,0.1200,-0.9600,0.3260,-0.0054,-0.0101,-0.0017,1326,1502,1502,1497,1000,1000,1505,1000,1000,1505,1503,1407,1505,-2.9897,-1.2111,-0.8882,0.0337,0.0520,0.9652,0.3290,0.3432,0.3197,0.3122,0.2204,0.0082,0.0438,0.2204,0.0082,0.0438,0.3000,0.0500,0.0002,0,-1.3605,-121.0000,-0.0152,-1.3605,-121.0000,-0.0152
2.1758,4.5173,0.1816,-0.7543,0.0686,0.2400,0.2400,-0.3200,0.3280,-0.0051,-0.0106,-0.0025,1327,1503,1503,1498,1000,1000,1505,1000,1000,1505,1503,1407,1505,-2.8251,0.6055,0.9994,-0.1524,-0.3255,0.9506,0.3310,0.3462,0.3199,0.3149,0.2204,0.0082,0.0438,0.2204,0.0082,0.0438,0.3000,0.0500,0.0002,0,-1.3605,-121.0000,-0.0152,-1.3605,-121.0000,-0.0152
2.1254,4.4938,0.1875,-0.6171,0.0686,0.1200,0.1200,-0.9600,0.3260,-0.0049,-0.0117,-0.0070,1326,1502,1502,1497,1000,1000,1505,1000,1000,1505,1503,1407,1505,-3.5769,2.6535,0.9145,0.0423,-0.1303,1.0212,0.3258,0.3496,0.3122,0.3164,0.2204,0.0082,0.0438,0.2204,0.0082,0.0438,0.3000,0.0500,0.0002,0,-1.3605,-121.0000,-0.0152,-1.3605,-121.0000,-0.0152
2.1005,4.4841,0.1976,-0.5486,-0.0686,0.1200,0.1200,-0.9600,0.3260,-0.0050,-0.0115,-0.0055,1326,1502,1502,1497,1000,1000,1505,1000,1000,1505,1503,1407,1505,-3.2528,2.1739,1.0030,-0.0001,0.0361,1.0228,0.3270,0.3480,0.3140,0.3151,0.2204,0.0082,0.0438,0.2204,0.0082,0.0438,0.3000,0.0500,0.0002,0,-1.3605,-121.0000,-0.0152,-1.3605,-121.0000,-0.0152
2.0801,4.4848,0.2066,-0.5486,-0.0000,0.1200,0.1200,-0.9600,0.3260,-0.0056,-0.0102,-0.0038,1326,1502,1502,1497,1000,1000,1505,1000,1000,1505,1503,1407,1505,-1.7212,-0.7658,0.2208,-0.0070,0.0949,0.9878,0.3268,0.3456,0.3176,0.3140,0.2204,0.0082,0.0438,0.2204,0.0082,0.0438,0.3000,0.0500,0.0002,0,-1.3605,-121.0000,-0.0152,-1.3605,-121.0000,-0.0152
2.0585,4.4858,0.2134,-0.5486,-0.1371,0.1200,0.1200,-0.9600,0.3260,-0.0068,-0.0105,-0.0092,1326,1502,1502,1497,1000,1000,1505,1000,1000,1505,1503,1407,1505,1.0721,-0.1816,1.7642,-0.1427,-0.1845,0.9336,0.3205,0.3524,0.3132,0.3179,0.2204,0.0082,0.0438,0.2204,0.0082,0.0438,0.3000,0.0500,0.0002,0,-1.3605,-121.0000,-0.0152,-1.3605,-121.0000,-0.0152
2.0396,4.4623,0.2134,-0.4800,-0.0686,0.1200,0.1200,-0.9600,0.3260,-0.0075,-0.0108,-0.0036,1326,1502,1502,1497,1000,1000,1505,1000,1000,1505,1503,1407,1505,2.8860,0.7327,-0.2777,0.0141,-0.0775,0.9684,0.3256,0.3480,0.3191,0.3113,0.2204,0.0082,0.0438,0.2204,0.0082,0.0438,0.3000,0.0500,0.0002,0,-1.3605,-121.0000,-0.0152,-1.3605,-121.0000,-0.0152
2.0382,4.4332,0.2100,-0.6171,-0.1371,0.2400,0.1200,-0.3200,0.3280,-0.0064,-0.0105,0.0040,1327,1503,1502,1498,1000,1000,1505,1000,1000,1505,1503,1407,1505,0.9136,0.1288,-0.9146,0.0319,0.0958,1.0386,0.3361,0.3409,0.3280,0.3070,0.2204,0.0082,0.0438,0.2204,0.0082,0.0438,0.3000,0.0500,0.0002,0,-1.3605,-121.0000,-0.0152,-1.3605,-121.0000,-0.0152
2.0314,4.4038,0.1976,-0.5486,0.0686,0.1200,0.1200,-0.9600,0.3260,-0.0067,-0.0086,0.0005,1326,1502,1502,1497,1000,1000,1505,1000,1000,1505,1503,1407,1505,0.9742,-4.0609,-1.4880,0.0370,0.0002,0.9422,0.3284,0.3408,0.3246,0.3102,0.2204,0.0082,0.0438,0.2204,0.0082,0.0438,0.3000,0.0500,0.0002,0,-1.3605,-121.0000,-0.0152,-1.3605,-121.0000,-0.0152
2.0194,4.3818,0.1850,-0.5486,-0.0000,0.1200,0.1200,-0.9600,0.3260,-0.0059,-0.0091,0.0003,1326,1502,1502,1497,1000,1000,1505,1000,1000,1505,1503,1407,1505,-0.7073,-2.8630,-1.2033,-0.1684,-0.2954,0.9931,0.3295,0.3407,0.3232,0.3107,0.2204,0.0082,0.0438,0.2204,0.0082,0.0438,0.3000,0.0500,0.0002,0,-1.3605,-121.0000,-0.0152,-1.3605,-121.0000,-0.0152
2.0218,4.3395,0.1697,-0.5486,0.0686,0.1200,0.1200,-0.9600,0.3260,-0.0057,-0.0117,-0.0002,1326,1502,1502,1497,1000,1000,1505,1000,1000,1505,1503,1407,1505,-1.1485,3.2758,-1.0751,-0.0243,-0.1024,1.0358,0.3317,0.3437,0.3198,0.3088,0.2204,0.0082,0.0438,0.2204,0.0082,0.0438,0.3000,0.0500,0.0002,0,-1.3605,-121.0000,-0.0152,-1.3605,-121.0000,-0.0152
2.0197,4.3123,0.1572,-0.5486,-0.0000,0.1200,0.1200,-0.9600,0.3260,-0.0059,-0.0106,-0.0007,1326,1502,1502,1497,1000,1000,1505,1000,1000,1505,1503,1407,1505,-0.8189,0.8605,-0.7222,0.0678,0.1712,1.0307,0.3300,0.3432,0.3206,0.3103,0.2204,0.0082,0.0438,0.2204,0.0082,0.0438,0.3000,0.0500,0.0002,0,-1.3605,-121.0000,-0.0152,-1.3605,-121.0000,-0.0152
2.0078,4.2969,0.1475,-0.5486,-0.0686,0.1200,0.1200,-0.9600,0.3260,-0.0076,-0.0087,-0.0052,1326,1502,1502,1497,1000,1000,1505,1000,1000,1505,1503,1407,1505,3.2456,-3.2509,0.2484,0.0429,-0.0356,0.9508,0.3219,0.3476,0.3197,0.3148,0.2204,0.0082,0.0438,0.2204,0.0082,0.0438,0.3000,0.0500,0.0002,0,-1.3605,-121.0000,-0.0152,-1.3605,-121.0000,-0.0152
1.9818,4.2882,0.1450,-0.4800,-0.0686,0.2400,0.2400,-0.3200,0.3280,-0.0077,-0.0091,0.0006,1327,1503,1503,1498,1000,1000,1505,1000,1000,1505,1503,1407,1505,4.0842,-1.7707,-0.1976,0.0069,-0.2128,1.0195,0.3301,0.3441,0.3272,0.3106,0.2204,0.0082,0.0438,0.2204,0.0082,0.0438,0.3000,0.0500,0.0002,0,-1.3605,-121.0000,-0.0152,-1.3605,-121.0000,-0.0152
1.9758,4.2613,0.1485,-0.4800,-0.0686,0.1200,0.1200,-0.9600,0.3260,-0.0064,-0.0115,-0.0059,1326,1502,1502,1497,1000,1000,1505,1000,1000,1505,1503,1407,1505,0.5518,3.1925,0.8248,-0.1058,0.0305,0.9612,0.3252,0.3497,0.3150,0.3140,0.2204,0.0082,0.0438,0.2204,0.0082,0.0438,0.3000,0.0500,0.0002,0,-1.3605,-121.0000,-0.0152,-1.3605,-121.0000,-0.0152
1.9657,4.2476,0.1535,-0.5486,-0.0000,0.1200,0.1200,-0.9600,0.3260,-0.0050,-0.0110,-0.0037,1326,1502,1502,1497,1000,1000,1505,1000,1000,1505,1503,1407,1505,-2.4919,2.0902,0.1035,0.0864,0.1045,0.9736,0.3282,0.3457,0.3163,0.3137,0.2204,0.0082,0.0438,0.2204,0.0082,0.0438,0.3000,0.0500,0.0002,0,-1.3605,-121.0000,-0.0152,-1.3605,-121.0000,-0.0152
1.9448,4.2421,0.1599,-0.6171,0.0686,0.1200,0.1200,-0.9600,0.3260,-0.0049,-0.0098,-0.0058,1326,1502,1502,1497,1000,1000,1505,1000,1000,1505,1503,1407,1505,-2.7324,-0.5080,0.7554,-0.0199,-0.1914,1.0059,0.3252,0.3465,0.3153,0.3171,0.2204,0.0082,0.0438,0.2204,0.0082,0.0438,0.3000,0.0500,0.0002,0,-1.3605,-121.0000,-0.0152,-1.3605,-121.0000,-0.0152
1.9225,4.2313,0.1638,-0.5486,0.0686,0.1200,0.1200,-0.9600,0.3260,-0.0053,-0.0099,-0.0054,1326,1502,1502,1497,1000,1000,1505,1000,1000,1505,1503,1407,1505,-1.6561,-0.2668,0.6791,0.0460,-0.1617,1.0835,0.3252,0.3466,0.3160,0.3162,0.2204,0.0082,0.0438,0.2204,0.0082,0.0438,0.3000,0.0500,0.0002,0,-1.3605,-121.0000,-0.0152,-1.3605,-121.0000,-0.0152
1.9037,4.2348,0.1697,-0.6171,0.0686,0.1200,0.1200,-0.9600,0.3260,-0.0049,-0.0106,-0.0046,1326,1502,1502,1497,1000,1000,1505,1000,1000,1505,1503,1407,1505,-2.4074,1.3291,0.5437,-0.1363,0.0768,0.9015,0.3271,0.3461,0.3157,0.3150,0.2204,0.0082,0.0438,0.2204,0.0082,0.0438,0.3000,0.0500,0.0002,0,-1.3605,-121.0000,-0.0152,-1.3605,-121.0000,-0.0152
1.8724,4.2233,0.1700,-0.5486,-0.0000,0.2400,0.2400,-0.3200,0.3280,-0.0048,-0.0109,-0.0002,1327,1503,1503,1498,1000,1000,1505,1000,1000,1505,1503,1407,1505,-1.9329,2.5930,0.1196,0.0535,0.0796,0.9906,0.3339,0.3439,0.3217,0.3125,0.2204,0.0082,0.0438,0.2204,0.0082,0.0438,0.3000,0.0500,0.0002,0,-1.3605,-121.0000,-0.0152,-1.3605,-121.0000,-0.0152
1.8293,4.2218,0.1677,-0.5486,-0.0686,0.1200,0.1200,-0.9600,0.3260,-0.0059,-0.0099,-0.0032,1326,1502,1502,1497,1000,1000,1505,1000,1000,1505,1503,1407,1505,0.2427,-0.3473,-0.1239,0.1235,-0.1553,1.0568,0.3267,0.3450,0.3188,0.3134,0.2204,0.0082,0.0438,0.2204,0.0082,0.0438,0.3000,0.0500,0.0002,0,-1.3605,-121.0000,-0.0152,-1.3605,-121.0000,-0.0152
1.7801,4.2217,0.1648,-0.5486,0.0686,0.1200,0.1200,-0.9600,0.3260,-0.0048,-0.0091,-0.0053,1326,1502,1502,1497,1000,1000,1505,1000,1000,1505,1503,1407,1505,-2.0676,-2.0197,0.2677,-0.0452,0.0386,0.9260,0.3251,0.3452,0.3164,0.3173,0.2204,0.0082,0.0438,0.2204,0.0082,0.0438,0.3000,0.0500,0.0002,0,-1.3605,-121.0000,-0.0152,-1.3605,-121.0000,-0.0152
1.7454,4.2167,0.1655,-0.5486,-0.0000,0.1200,0.1200,-0.9600,0.3260,-0.0027,-0.0100,-0.0001,1326,1502,1502,1497,1000,1000,1505,1000,1000,1505,1503,1407,1505,-6.6904,-0.0824,-0.9090,-0.1306,0.0247,0.9037,0.3332,0.3388,0.3186,0.3134,0.2204,0.0082,0.0438,0.2204,0.0082,0.0438,0.3000,0.0500,0.0002,0,-1.3605,-121.0000,-0.0152,-1.3605,-121.0000,-0.0152
1.7059,4.1821,0.1692,-0.5486,0.0686,0.1200,0.1200,-0.9600,0.3260,-0.0027,-0.0113,-0.0026,1326,1502,1502,1497,1000,1000,1505,1000,1000,1505,1503,1407,1505,-6.5544,3.0366,-0.1959,-0.0644,-0.1410,1.0083,0.3320,0.3426,0.3148,0.3147,0.2204,0.0082,0.0438,0.2204,0.0082,0.0438,0.3000,0.0500,0.0002,0,-1.3605,-121.0000,-0.0152,-1.3605,-121.0000,-0.0152
1.6642,4.1664,0.1723,-0.6857,-0.0000,0.1200,0.1200,-0.9600,0.3260,-0.0046,-0.0102,-0.0089,1326,1502,1502,1497,1000,1000,1505,1000,1000,1505,1503,1407,1505,-2.0157,0.7027,1.6942,0.1258,-0.1216,1.0186,0.3227,0.3497,0.3114,0.3201,0.2204,0.0082,0.0438,0.2204,0.0082,0.0438,0.3000,0.0500,0.0002,0,-1.3605,-121.0000,-0.0152,-1.3605,-121.0000,-0.0152
1.6187,4.1639,0.1773,-0.6171,-0.0000,0.2400,0.1200,-0.3200,0.3300,-0.0050,-0.0087,-0.0034,1330,1503,1502,1498,1000,1000,1505,1000,1000,1505,1503,1407,1505,-0.3100,-2.8187,1.3360,0.0147,0.1815,0.9677,0.3303,0.3471,0.3228,0.3198,0.2204,0.0082,0.0438,0.2204,0.0082,0.0438,0.3000,0.0500,0.0002,0,-1.3605,-121.0000,-0.0152,-1.3605,-121.0000,-0.0152
1.5866,4.1603,0.1793,-0.7543,-0.0000,0.1200,0.1200,-0.9600,0.3300,-0.0049,-0.0095,-0.0023,1330,1502,1502,1497,1000,1000,1505,1000,1000,1505,1503,1407,1505,-0.7910,-0.9066,-0.5339,-0.0219,-0.1587,0.9624,0.3322,0.3468,0.3231,0.3179,0.2204,0.0082,0.0438,0.2204,0.0082,0.0438,0.3000,0.0500,0.0002,0,-1.3605,-121.0000,-0.0152,-1.3605,-121.0000,-0.0152
1.5621,4.1448,0.1784,-0.6171,0.0686,0.1200,0.1200,-0.9600,0.3300,-0.0062,-0.0108,-0.0015,1330,1502,1502,1497,1000,1000,1505,1000,1000,1505,1503,1407,1505,2.1722,2.1504,-0.8218,-0.1788,-0.0548,1.0342,0.3331,0.3485,0.3239,0.3145,0.2204,0.0082,0.0438,0.2204,0.0082,0.0438,0.3000,0.0500,0.0002,0,-1.3605,-121.0000,-0.0152,-1.3605,-121.0000,-0.0152
1.5438,4.1278,0.1769,-0.6857,-0.0686,0.1200,0.1200,-0.9600,0.3290,-0.0055,-0.0107,-0.0026,1329,1502,1502,1497,1000,1000,1505,1000,1000,1505,1503,1407,1505,0.6962,2.0010,-0.0657,0.1350,-0.0164,0.9919,0.3316,0.3478,0.3212,0.3154,0.2204,0.0082,0.0438,0.2204,0.0082,0.0438,0.3000,0.0500,0.0002,0,-1.3605,-121.0000,-0.0152,-1.3605,-121.0000,-0.0152
1.5378,4.1209,0.1709,-0.4800,-0.0686,0.1200,0.1200,-0.9600,0.3290,-0.0046,-0.0089,-0.0023,1329,1502,1502,1497,1000,1000,1505,1000,1000,1505,1503,1407,1505,-1.2111,-2.0142,-0.2651,-0.0322,0.0573,1.0389,0.3310,0.3449,0.3224,0.3177,0.2204,0.0082,0.0438,0.2204,0.0082,0.0438,0.3000,0.0500,0.0002,0,-1.3605,-121.0000,-0.0152,-1.3605,-121.0000,-0.0152
1.5312,4.1138,0.1651,-0.4800,-0.0000,0.1200,0.1200,-0.9600,0.3300,-0.0053,-0.0088,-0.0027,1330,1502,1502,1497,1000,1000,1505,1000,1000,1505,1503,1407,1505,0.2493,-2.3620,-0.6049,0.0003,-0.3119,0.9999,0.3308,0.3467,0.3238,0.3186,0.2204,0.0082,0.0438,0.2204,0.0082,0.0438,0.3000,0.0500,0.0002,0,-1.3605,-121.0000,-0.0152,-1.3605,-121.0000,-0.0152
1.5352,4.0832,0.1597,-0.4800,-0.0686,0.2400,0.1200,-0.3200,0.3290,-0.0048,-0.0098,0.0017,1329,1503,1502,1498,1000,1000,1505,1000,1000,1505,1503,1407,1505,-0.1569,0.1298,-0.3109,-0.1693,0.1512,0.9314,0.3357,0.3419,0.3258,0.3126,0.2204,0.0082,0.0438,0.2204,0.0082,0.0438,0.3000,0.0500,0.0002,0,-1.3605,-121.0000,-0.0152,-1.3605,-121.0000,-0.0152
1.5280,4.0445,0.1514,-0.4800,-0.0000,0.1200,0.1200,-0.9600,0.3290,-0.0058,-0.0097,-0.0014,1329,1502,1502,1497,1000,1000,1505,1000,1000,1505,1503,1407,1505,1.4215,0.0396,-0.6541,0.1110,0.0828,0.9598,0.3316,0.3458,0.3237,0.3149,0.2204,0.0082,0.0438,0.2204,0.0082,0.0438,0.3000,0.0500,0.0002,0,-1.3605,-121.0000,-0.0152,-1.3605,-121.0000,-0.0152
1.5133,4.0182,0.1440,-0.4800,0.0686,0.1200,0.1200,-0.9600,0.3290,-0.0067,-0.0080,-0.0030,1329,1502,1502,1497,1000,1000,1505,1000,1000,1505,1503,1407,1505,3.5749,-3.6592,-0.4335,0.0784,-0.2327,1.0339,0.3274,0.3467,0.3247,0.3173,0.2204,0.0082,0.0438,0.2204,0.0082,0.0438,0.3000,0.0500,0.0002,0,-1.3605,-121.0000,-0.0152,-1.3605,-121.0000,-0.0152
1.4957,3.9977,0.1386,-0.4800,-0.0000,0.1200,0.1200,-0.9600,0.3290,-0.0057,-0.0082,-0.0068,1329,1502,1502,1497,1000,1000,1505,1000,1000,1505,1503,1407,1505,1.4724,-3.0290,0.8787,-0.0090,0.0591,1.0226,0.3247,0.3498,0.3196,0.3219,0.2204,0.0082,0.0438,0.2204,0.0082,0.0438,0.3000,0.0500,0.0002,0,-1.3605,-121.0000,-0.0152,-1.3605,-121.0000,-0.0152
1.4965,3.9843,0.1397,-0.5486,0.0686,0.1200,0.1200,-0.9600,0.3300,-0.0039,-0.0099,0.0001,1330,1502,1502,1497,1000,1000,1505,1000,1000,1505,1503,1407,1505,-2.6899,0.7636,-1.1417,-0.1006,0.0571,0.9989,0.3361,0.3437,0.3241,0.3161,0.2204,0.0082,0.0438,0.2204,0.0082,0.0438,0.3000,0.0500,0.0002,0,-1.3605,-121.0000,-0.0152,-1.3605,-121.0000,-0.0152
1.4920,3.9519,0.1448,-0.5486,0.0686,0.1200,0.1200,-0.9600,0.3300,-0.0041,-0.0110,-0.0031,1330,1502,1502,1497,1000,1000,1505,1000,1000,1505,1503,1407,1505,-2.2104,3.4023,-0.0975,-0.0631,-0.1074,0.9843,0.3337,0.3482,0.3200,0.3181,0.2204,0.0082,0.0438,0.2204,0.0082,0.0438,0.3000,0.0500,0.0002,0,-1.3605,-121.0000,-0.0152,-1.3605,-121.0000,-0.0152
1.4799,3.9364,0.1439,-0.5486,-0.0686,0.2400,0.1200,-0.3200,0.3300,-0.0051,-0.0100,-0.0027,1330,1503,1502,1498,1000,1000,1505,1000,1000,1505,1503,1407,1505,0.7784,1.1892,0.9767,0.1354,-0.1753,1.0288,0.3322,0.3478,0.3225,0.3176,0.2204,0.0082,0.0438,0.2204,0.0082,0.0438,0.3000,0.0500,0.0002,0,-1.3605,-121.0000,-0.0152,-1.3605,-121.0000,-0.0152
1.4486,3.9441,0.1388,-0.4800,-0.0000,0.1200,0.1200,-0.9600,0.3300,-0.0056,-0.0083,-0.0039,1330,1502,1502,1497,1000,1000,1505,1000,1000,1505,1503,1407,1505,1.3333,-2.7697,0.3308,0.0098,0.1192,0.9370,0.3288,0.3477,0.3234,0.3200,0.2204,0.0082,0.0438,0.2204,0.0082,0.0438,0.3000,0.0500,0.0002,0,-1.3605,-121.0000,-0.0152,-1.3605,-121.0000,-0.0152
1.4161,3.9393,0.1313,-0.5486,-0.0686,0.1200,0.1200,-0.9600,0.3300,-0.0047,-0.0090,-0.0037,1330,1502,1502,1497,1000,1000,1505,1000,1000,1505,1503,1407,1505,-0.3992,-1.1349,-0.5369,-0.0260,-0.1155,0.9539,0.3305,0.3474,0.3221,0.3200,0.2204,0.0082,0.0438,0.2204,0.0082,0.0438,0.3000,0.0500,0.0002,0,-1.3605,-121.0000,-0.0152,-1.3605,-121.0000,-0.0152
1.3873,3.9204,0.1288,-0.4800,-0.0686,0.1200,0.1200,-0.9600,0.3300,-0.0053,-0.0102,0.0010,1330,1502,1502,1497,1000,1000,1505,1000,1000,1505,1503,1407,1505,0.9377,1.7510,-1.5090,-0.0959,-0.0119,1.0385,0.3359,0.3444,0.3261,0.3135,0.2204,0.0082,0.0438,0.2204,0.0082,0.0438,0.3000,0.0500,0.0002,0,-1.3605,-121.0000,-0.0152,-1.3605,-121.0000,-0.0152
1.3508,3.8952,0.1262,-0.4800,-0.0000,0.1200,0.1200,-0.9600,0.3300,-0.0044,-0.0106,-0.0015,1330,1502,1502,1497,1000,1000,1505,1000,1000,1505,1503,1407,1505,-0.8318,2.7986,-0.4187,0.0719,0.0194,0.9176,0.3347,0.3465,0.3223,0.3165,0.2204,0.0082,0.0438,0.2204,0.0082,0.0438,0.3000,0.0500,0.0002,0,-1.3605,-121.0000,-0.0152,-1.3605,-121.0000,-0.0152
1.3183,3.8949,0.1190,-0.5486,-0.0686,0.1200,0.1200,-0.9600,0.3290,-0.0038,-0.0087,-0.0034,1329,1502,1502,1497,1000,1000,1505,1000,1000,1505,1503,1407,1505,-2.0314,-1.4374,-0.1543,0.0428,-0.0919,1.0264,0.3306,0.3449,0.3207,0.3198,0.2204,0.0082,0.0438,0.2204,0.0082,0.0438,0.3000,0.0500,0.0002,0,-1.3605,-121.0000,-0.0152,-1.3605,-121.0000,-0.0152
1.2938,3.8947,0.1174,-0.6171,0.0686,0.2400,0.2400,-0.3200,0.3300,-0.0037,-0.0092,-0.0025,1330,1503,1503,1498,1000,1000,1505,1000,1000,1505,1503,1407,1505,-1.5253,0.2511,0.7279,-0.0517,-0.1647,1.0043,0.3330,0.3454,0.3220,0.3195,0.2204,0.0082,0.0438,0.2204,0.0082,0.0438,0.3000,0.0500,0.0002,0,-1.3605,-121.0000,-0.0152,-1.3605,-121.0000,-0.0152
1.2954,3.8832,0.1237,-0.6171,-0.0000,0.1200,0.1200,-0.9600,0.3300,-0.0038,-0.0096,-0.0044,1330,1502,1502,1497,1000,1000,1505,1000,1000,1505,1503,1407,1505,-1.9151,0.5286,0.2790,-0.1038,0.0099,0.9969,0.3314,0.3478,0.3198,0.3210,0.2204,0.0082,0.0438,0.2204,0.0082,0.0438,0.3000,0.0500,0.0002,0,-1.3605,-121.0000,-0.0152,-1.3605,-121.0000,-0.0152
1.2784,3.8623,0.1304,-0.6171,-0.0000,0.1200,0.1200,-0.9600,0.3290,-0.0062,-0.0095,-0.0046,1329,1502,1502,1497,1000,1000,1505,1000,1000,1505,1503,1407,1505,3.6665,0.4178,0.3082,0.0719,0.0308,0.8806,0.3277,0.3493,0.3211,0.3179,0.2204,0.0082,0.0438,0.2204,0.0082,0.0438,0.3000,0.0500,0.0002,0,-1.3605,-121.0000,-0.0152,-1.3605,-121.0000,-0.0152
1.2548,3.8410,0.1332,-0.5486,-0.0000,0.1200,0.1200,-0.9600,0.3290,-0.0061,-0.0085,-0.0047,1329,1502,1502,1497,1000,1000,1505,1000,1000,1505,1503,1407,1505,3.6172,-1.7918,0.3106,0.1276,-0.0403,1.0648,0.3267,0.3483,0.3220,0.3191,0.2204,0.0082,0.0438,0.2204,0.0082,0.0438,0.3000,0.0500,0.0002,0,-1.3605,-121.0000,-0.0152,-1.3605,-121.0000,-0.0152
1.2444,3.8159,0.1308,-0.5486,-0.1371,0.1200,0.1200,-0.9600,0.3290,-0.0058,-0.0084,-0.0046,1329,1502,1502,1497,1000,1000,1505,1000,1000,1505,1503,1407,1505,2.8537,-1.7802,0.4128,0.0125,-0.0443,0.9717,0.3271,0.3478,0.3217,0.3194,0.2204,0.0082,0.0438,0.2204,0.0082,0.0438,0.3000,0.0500,0.0002,0,-1.3605,-121.0000,-0.0152,-1.3605,-121.0000,-0.0152
1.2356,3.7959,0.1246,-0.5486,-0.1371,0.1200,0.1200,-0.9600,0.3290,-0.0040,-0.0083,-0.0019,1329,1502,1502,1497,1000,1000,1505,1000,1000,1505,1503,1407,1505,-1.0745,-2.0750,-0.8456,-0.0508,-0.0000,0.9265,0.3313,0.3432,0.3229,0.3186,0.2204,0.0082,0.0438,0.2204,0.0082,0.0438,0.3000,0.0500,0.0002,0,-1.3605,-121.0000,-0.0152,-1.3605,-121.0000,-0.0152
1.2428,3.7547,0.1200,-0.5486,-0.0686,0.2400,0.2400,-0.3200,0.3290,-0.0038,-0.0100,0.0062,1329,1503,1503,1498,1000,1000,1505,1000,1000,1505,1503,1407,1505,-1.0284,2.7011,-1.7908,-0.0733,-0.1181,1.0711,0.3414,0.3366,0.3290,0.3090,0.2204,0.0082,0.0438,0.2204,0.0082,0.0438,0.3000,0.0500,0.0002,0,-1.3605,-121.0000,-0.0152,-1.3605,-121.0000,-0.0152
1.2438,3.7171,0.1114,-0.4114,-0.0000,0.1200,0.1200,-0.9600,0.3300,-0.0059,-0.0093,-0.0023,1330,1502,1502,1497,1000,1000,1505,1000,1000,1505,1503,1407,1505,3.1919,0.7402,-0.2895,0.0133,-0.0693,1.0007,0.3312,0.3475,0.3243,0.3170,0.2204,0.0082,0.0438,0.2204,0.0082,0.0438,0.3000,0.0500,0.0002,0,-1.3605,-121.0000,-0.0152,-1.3605,-121.0000,-0.0152
1.2566,3.7028,0.1021,-0.4800,-0.1371,0.1200,0.1200,-0.9600,0.3300,-0.0058,-0.0080,-0.0025,1330,1502,1502,1497,1000,1000,1505,1000,1000,1505,1503,1407,1505,2.7320,-2.2282,-0.2240,0.0307,0.1069,0.8748,0.3298,0.3462,0.3253,0.3187,0.2204,0.0082,0.0438,0.2204,0.0082,0.0438,0.3000,0.0500,0.0002,0,-1.3605,-121.0000,-0.0152,-1.3605,-121.0000,-0.0152
1.2655,3.6915,0.0927,-0.4800,-0.0000,0.1200,0.1200,-0.9600,0.3290,-0.0055,-0.0082,-0.0064,1329,1502,1502,1497,1000,1000,1505,1000,1000,1505,1503,1407,1505,2.1988,-1.7312,0.5031,-0.0589,-0.1134,1.0503,0.3253,0.3491,0.3200,0.3216,0.2204,0.0082,0.0438,0.2204,0.0082,0.0438,0.3000,0.0500,0.0002,0,-1.3605,-121.0000,-0.0152,-1.3605,-121.0000,-0.0152
1.2720,3.6598,0.0869,-0.4800,-0.0686,0.1200,0.1200,-0.9600,0.3290,-0.0057,-0.0088,-0.0007,1329,1502,1502,1497,1000,1000,1505,1000,1000,1505,1503,1407,1505,2.5810,-0.2626,-1.2342,0.0571,-0.0163,0.9141,0.3314,0.3442,0.3253,0.3152,0.2204,0.0082,0.0438,0.2204,0.0082,0.0438,0.3000,0.0500,0.0002,0,-1.3605,-121.0000,-0.0152,-1.3605,-121.0000,-0.0152
1.2746,3.6410,0.0876,-0.5486,-0.0000,0.1200,0.1200,-0.9600,0.3300,-0.0052,-0.0092,0.0009,1330,1502,1502,1497,1000,1000,1505,1000,1000,1505,1503,1407,1505,1.3845,0.6832,-1.2166,-0.0833,0.0727,0.9036,0.3348,0.3435,0.3269,0.3148,0.2204,0.0082,0.0438,0.2204,0.0082,0.0438,0.3000,0.0500,0.0002,0,-1.3605,-121.0000,-0.0152,-1.3605,-121.0000,-0.0152
1.2650,3.6222,0.0852,-0.5486,-0.0000,0.2400,0.1200,-0.3200,0.3300,-0.0048,-0.0080,0.0008,1330,1503,1502,1498,1000,1000,1505,1000,1000,1505,1503,1407,1505,1.0231,-1.8504,-0.2056,0.1104,-0.2020,1.1086,0.3340,0.3420,0.3276,0.3164,0.2204,0.0082,0.0438,0.2204,0.0082,0.0438,0.3000,0.0500,0.0002,0,-1.3605,-121.0000,-0.0152,-1.3605,-121.0000,-0.0152
1.2606,3.6081,0.0820,-0.5486,0.0686,0.1200,0.1200,-0.9600,0.3300,-0.0043,-0.0087,-0.0052,1330,1502,1502,1497,1000,1000,1505,1000,1000,1505,1503,1407,1505,-0.5838,-0.2956,0.6896,-0.0419,-0.0251,0.9832,0.3291,0.3482,0.3204,0.3223,0.2204,0.0082,0.0438,0.2204,0.0082,0.0438,0.3000,0.0500,0.0002,0,-1.3605,-121.0000,-0.0152,-1.3605,-121.0000,-0.0152
1.2605,3.5853,0.0771,-0.5486,-0.0000,0.1200,0.1200,-0.9600,0.3290,-0.0027,-0.0090,-0.0039,1329,1502,1502,1497,1000,1000,1505,1000,1000,1505,1503,1407,1505,-4.2154,0.5468,-0.0825,-0.0448,-0.0078,0.9465,0.3314,0.3446,0.3188,0.3212,0.2204,0.0082,0.0438,0.2204,0.0082,0.0438,0.3000,0.0500,0.0002,0,-1.3605,-121.0000,-0.0152,-1.3605,-121.0000,-0.0152
1.2445,3.5635,0.0734,-0.4800,-0.0000,0.1200,0.1200,-0.9600,0.3290,-0.0044,-0.0093,0.0003,1329,1502,1502,1497,1000,1000,1505,1000,1000,1505,1503,1407,1505,-0.2783,1.3071,-1.2440,0.0284,-0.0408,1.0356,0.3342,0.3424,0.3244,0.3150,0.2204,0.0082,0.0438,0.2204,0.0082,0.0438,0.3000,0.0500,0.0002,0,-1.3605,-121.0000,-0.0152,-1.3605,-121.0000,-0.0152
1.1982,3.5514,0.0727,-0.4800,-0.0686,0.1200,0.1200,-0.9600,0.3300,-0.0059,-0.0088,-0.0041,1330,1502,1502,1497,1000,1000,1505,1000,1000,1505,1503,1407,1505,3.2654,0.1823,0.0012,0.1372,-0.0090,0.9387,0.3288,0.3487,0.3230,0.3195,0.2204,0.0082,0.0438,0.2204,0.0082,0.0438,0.3000,0.0500,0.0002,0,-1.3605,-121.0000,-0.0152,-1.3605,-121.0000,-0.0152
1.1602,3.5554,0.0733,-0.5486,-0.0000,0.1200,0.1200,-0.9600,0.3300,-0.0047,-0.0083,-0.0037,1330,1502,1502,1497,1000,1000,1505,1000,1000,1505,1503,1407,1505,0.8373,-0.8264,0.3545,-0.0242,0.0586,0.9639,0.3299,0.3467,0.3227,0.3207,0.2204,0.0082,0.0438,0.2204,0.0082,0.0438,0.3000,0.0500,0.0002,0,-1.3605,-121.0000,-0.0152,-1.3605,-121.0000,-0.0152
1.1303,3.5577,0.0746,-0.6171,0.0686,0.2400,0.2400,-0.3200,0.3290,-0.0022,-0.0085,-0.0029,1329,1503,1503,1498,1000,1000,1505,1000,1000,1505,1503,1407,1505,-4.0995,0.1794,0.7516,0.0198,-0.1271,0.9894,0.3324,0.3426,0.3198,0.3212,0.2204,0.0082,0.0438,0.2204,0.0082,0.0438,0.3000,0.0500,0.0002,0,-1.3605,-121.0000,-0.0152,-1.3605,-121.0000,-0.0152
1.1045,3.5494,0.0782,-0.5486,0.0686,0.1200,0.1200,-0.9600,0.3290,-0.0023,-0.0097,-0.0031,1329,1502,1502,1497,1000,1000,1505,1000,1000,1505,1503,1407,1505,-4.3792,2.2876,-0.4533,0.0109,-0.0738,1.0087,0.3332,0.3441,0.3185,0.3202,0.2204,0.0082,0.0438,0.2204,0.0082,0.0438,0.3000,0.0500,0.0002,0,-1.3605,-121.0000,-0.0152,-1.3605,-121.0000,-0.0152
1.0899,3.5361,0.0854,-0.6171,0.1371,0.1200,0.1200,-0.9600,0.3290,-0.0024,-0.0099,-0.0021,1329,1502,1502,1497,1000,1000,1505,1000,1000,1505,1503,1407,1505,-4.1542,2.8771,-0.0034,-0.0973,0.1921,0.9294,0.3345,0.3433,0.3194,0.3188,0.2204,0.0082,0.0438,0.2204,0.0082,0.0438,0.3000,0.0500,0.0002,0,-1.3605,-121.0000,-0.0152,-1.3605,-121.0000,-0.0152
1.0585,3.5325,0.0916,-0.6171,0.0686,0.1200,0.1200,-0.9600,0.3290,-0.0046,-0.0083,-0.0055,1329,1502,1502,1497,1000,1000,1505,1000,1000,1505,1503,1407,1505,1.0586,-0.8278,0.6729,0.0069,-0.1922,1.0151,0.3272,0.3473,0.3198,0.3216,0.2204,0.0082,0.0438,0.2204,0.0082,0.0438,0.3000,0.0500,0.0002,0,-1.3605,-121.0000,-0.0152,-1.3605,-121.0000,-0.0152
1.0376,3.5360,0.0963,-0.5486,0.0686,0.1200,0.1200,-0.9600,0.3290,-0.0050,-0.0087,-0.0117,1329,1502,1502,1497,1000,1000,1505,1000,1000,1505,1503,1407,1505,2.0857,-0.0023,2.4925,0.0828,-0.0619,1.0187,0.3210,0.3544,0.3136,0.3271,0.2204,0.0082,0.0438,0.2204,0.0082,0.0438,0.3000,0.0500,0.0002,0,-1.3605,-121.0000,-0.0152,-1.3605,-121.0000,-0.0152
1.0372,3.5228,0.0977,-0.6857,-0.1371,0.1200,0.1200,-0.9600,0.3290,-0.0037,-0.0091,-0.0041,1329,1502,1502,1497,1000,1000,1505,1000,1000,1505,1503,1407,1505,-0.8142,1.0418,-0.0403,-0.0537,0.0203,0.9878,0.3303,0.3459,0.3195,0.3203,0.2204,0.0082,0.0438,0.2204,0.0082,0.0438,0.3000,0.0500,0.0002,0,-1.3605,-121.0000,-0.0152,-1.3605,-121.0000,-0.0152
1.0289,3.5192,0.1030,-0.5486,-0.0000,0.2400,0.2400,-0.3200,0.3290,-0.0043,-0.0082,0.0037,1329,1503,1503,1498,1000,1000,1505,1000,1000,1505,1503,1407,1505,1.1479,-0.3067,-1.0805,-0.0435,-0.1959,0.9764,0.3367,0.3378,0.3288,0.3127,0.2204,0.0082,0.0438,0.2204,0.0082,0.0438,0.3000,0.0500,0.0002,0,-1.3605,-121.0000,-0.0152,-1.3605,-121.0000,-0.0152
1.0198,3.4987,0.1072,-0.6171,-0.0686,0.1200,0.1200,-0.9600,0.3290,-0.0053,-0.0089,-0.0046,1329,1502,1502,1497,1000,1000,1505,1000,1000,1505,1503,1407,1505,2.8239,0.6229,0.2426,0.0361,0.0606,0.9592,0.3280,0.3478,0.3208,0.3195,0.2204,0.0082,0.0438,0.2204,0.0082,0.0438,0.3000,0.0500,0.0002,0,-1.3605,-121.0000,-0.0152,-1.3605,-121.0000,-0.0152
1.0238,3.4954,0.1077,-0.4800,-0.0000,0.1200,0.1200,-0.9600,0.3290,-0.0045,-0.0081,-0.0038,1329,1502,1502,1497,1000,1000,1505,1000,1000,1505,1503,1407,1505,1.0195,-1.0180,0.3922,-0.0830,0.0598,0.9893,0.3288,0.3454,0.3215,0.3202,0.2204,0.0082,0.0438,0.2204,0.0082,0.0438,0.3000,0.0500,0.0002,0,-1.3605,-121.0000,-0.0152,-1.3605,-121.0000,-0.0152
1.0325,3.4646,0.1042,-0.6171,-0.0000,0.1200,0.1200,-0.9600,0.3290,-0.0039,-0.0084,-0.0048,1329,1502,1502,1497,1000,1000,1505,1000,1000,1505,1503,1407,1505,-0.2997,-0.2298,0.0864,-0.0888,-0.2415,0.9791,0.3287,0.3461,0.3197,0.3214,0.2204,0.0082,0.0438,0.2204,0.0082,0.0438,0.3000,0.0500,0.0002,0,-1.3605,-121.0000,-0.0152,-1.3605,-121.0000,-0.0152
1.0474,3.4312,0.0997,-0.5486,0.0686,0.1200,0.1200,-0.9600,0.3300,-0.0040,-0.0076,-0.0026,1330,1502,1502,1497,1000,1000,1505,1000,1000,1505,1503,1407,1505,-0.2590,-1.9616,-0.4984,0.0584,-0.0143,1.0769,0.3310,0.3442,0.3238,0.3210,0.2204,0.0082,0.0438,0.2204,0.0082,0.0438,0.3000,0.0500,0.0002,0,-1.3605,-121.0000,-0.0152,-1.3605,-121.0000,-0.0152
1.0463,3.3965,0.0924,-0.5486,0.0686,0.1200,0.1200,-0.9600,0.3300,-0.0055,-0.0080,0.0007,1330,1502,1502,1497,1000,1000,1505,1000,1000,1505,1503,1407,1505,3.3219,-0.8184,-1.4071,0.0464,0.1325,0.9494,0.3331,0.3429,0.3282,0.3158,0.2204,0.0082,0.0438,0.2204,0.0082,0.0438,0.3000,0.0500,0.0002,0,-1.3605,-121.0000,-0.0152,-1.3605,-121.0000,-0.0152
1.0260,3.3724,0.0840,-0.5486,-0.0000,0.2400,0.1200,-0.3200,0.3290,-0.0056,-0.0069,0.0038,1329,1503,1502,1498,1000,1000,1505,1000,1000,1505,1503,1407,1505,4.1457,-3.2081,-1.0717,-0.0062,-0.0392,1.0241,0.3341,0.3377,0.3315,0.3127,0.2204,0.0082,0.0438,0.2204,0.0082,0.0438,0.3000,0.0500,0.0002,0,-1.3605,-121.0000,-0.0152,-1.3605,-121.0000,-0.0152
1.0148,3.3525,0.0781,-0.5486,-0.0000,0.1200,0.1200,-0.9600,0.3300,-0.0051,-0.0081,-0.0062,1330,1502,1502,1497,1000,1000,1505,1000,1000,1505,1503,1407,1505,2.3688,-0.4778,0.6517,-0.0056,-0.1584,0.9523,0.3268,0.3494,0.3208,0.3231,0.2204,0.0082,0.0438,0.2204,0.0082,0.0438,0.3000,0.0500,0.0002,0,-1.3605,-121.0000,-0.0152,-1.3605,-121.0000,-0.0152
1.0127,3.3388,0.0786,-0.4800,-0.0000,0.1200,0.1200,-0.9600,0.3300,-0.0019,-0.0088,-0.0035,1330,1502,1502,1497,1000,1000,1505,1000,1000,1505,1503,1407,1505,-4.8018,1.3197,-0.0475,0.0480,0.1893,1.0102,0.3334,0.3442,0.3196,0.3228,0.2204,0.0082,0.0438,0.2204,0.0082,0.0438,0.3000,0.0500,0.0002,0,-1.3605,-121.0000,-0.0152,-1.3605,-121.0000,-0.0152
1.0076,3.3281,0.0854,-0.4800,0.0686,0.1200,0.1200,-0.9600,0.3290,-0.0020,-0.0095,-0.0030,1329,1502,1502,1497,1000,1000,1505,1000,1000,1505,1503,1407,1505,-4.6583,2.8653,-0.2208,-0.0529,-0.1542,0.9539,0.3336,0.3434,0.3185,0.3205,0.2204,0.0082,0.0438,0.2204,0.0082,0.0438,0.3000,0.0500,0.0002,0,-1.3605,-121.0000,-0.0152,-1.3605,-121.0000,-0.0152
0.9829,3.3240,0.0908,-0.4800,-0.0000,0.1200,0.1200,-0.9600,0.3290,-0.0045,-0.0086,-0.0064,1329,1502,1502,1497,1000,1000,1505,1000,1000,1505,1503,1407,1505,1.1417,0.7883,0.8904,0.0168,-0.0923,1.0532,0.3267,0.3485,0.3184,0.3224,0.2204,0.0082,0.0438,0.2204,0.0082,0.0438,0.3000,0.0500,0.0002,0,-1.3605,-121.0000,-0.0152,-1.3605,-121.0000,-0.0152
0.9498,3.3408,0.0924,-0.6171,0.1371,0.1200,0.1200,-0.9600,0.3290,-0.0041,-0.0089,-0.0057,1329,1502,1502,1497,1000,1000,1505,1000,1000,1505,1503,1407,1505,0.4402,1.3745,0.8320,0.0436,0.1604,0.9719,0.3281,0.3476,0.3185,0.3217,0.2204,0.0082,0.0438,0.2204,0.0082,0.0438,0.3000,0.0500,0.0002,0,-1.3605,-121.0000,-0.0152,-1.3605,-121.0000,-0.0152
0.9123,3.3486,0.0913,-0.6171,0.0686,0.2400,0.2400,-0.3200,0.3300,-0.0029,-0.0086,-0.0027,1330,1503,1503,1498,1000,1000,1505,1000,1000,1505,1503,1407,1505,-1.4050,1.3651,0.4764,-0.1393,-0.2131,0.9523,0.3330,0.3442,0.3216,0.3211,0.2204,0.0082,0.0438,0.2204,0.0082,0.0438,0.3000,0.0500,0.0002,0,-1.3605,-121.0000,-0.0152,-1.3605,-121.0000,-0.0152
0.8874,3.3357,0.0949,-0.6171,0.0686,0.1200,0.1200,-0.9600,0.3300,-0.0029,-0.0090,-0.0021,1330,1502,1502,1497,1000,1000,1505,1000,1000,1505,1503,1407,1505,-1.8405,1.6480,-0.5998,0.0804,-0.0824,1.0434,0.3340,0.3440,0.3219,0.3202,0.2204,0.0082,0.0438,0.2204,0.0082,0.0438,0.3000,0.0500,0.0002,0,-1.3605,-121.0000,-0.0152,-1.3605,-121.0000,-0.0152
0.8677,3.3278,0.0974,-0.6171,0.0686,0.1200,0.1200,-0.9600,0.3290,-0.0027,-0.0081,-0.0011,1329,1502,1502,1497,1000,1000,1505,1000,1000,1505,1503,1407,1505,-2.2027,-0.2766,-0.8026,-0.0238,0.0375,0.9661,0.3333,0.3410,0.3225,0.3193,0.2204,0.0082,0.0438,0.2204,0.0082,0.0438,0.3000,0.0500,0.0002,0,-1.3605,-121.0000,-0.0152,-1.3605,-121.0000,-0.0152
0.8378,3.3122,0.0925,-0.6857,0.0686,0.1200,0.1200,-0.9600,0.3290,-0.0040,-0.0069,-0.0019,1329,1502,1502,1497,1000,1000,1505,1000,1000,1505,1503,1407,1505,0.9384,-2.9352,-0.4464,-0.0515,-0.1030,0.9697,0.3300,0.3419,0.3242,0.3199,0.2204,0.0082,0.0438,0.2204,0.0082,0.0438,0.3000,0.0500,0.0002,0,-1.3605,-121.0000,-0.0152,-1.3605,-121.0000,-0.0152
0.8166,3.2840,0.0849,-0.5486,0.0686,0.1200,0.1200,-0.9600,0.3290,-0.0040,-0.0080,-0.0064,1329,1502,1502,1497,1000,1000,1505,1000,1000,1505,1503,1407,1505,1.0271,-0.2495,0.8594,-0.0032,-0.0608,1.0300,0.3266,0.3474,0.3186,0.3233,0.2204,0.0082,0.0438,0.2204,0.0082,0.0438,0.3000,0.0500,0.0002,0,-1.3605,-121.0000,-0.0152,-1.3605,-121.0000,-0.0152
0.8133,3.2518,0.0805,-0.6171,-0.0686,0.1200,0.1200,-0.9600,0.3290,-0.0037,-0.0078,-0.0039,1329,1502,1502,1497,1000,1000,1505,1000,1000,1505,1503,1407,1505,0.1688,-0.7435,-0.0745,-0.0313,0.0112,0.9789,0.3292,0.3443,0.3210,0.3215,0.2204,0.0082,0.0438,0.2204,0.0082,0.0438,0.3000,0.0500,0.0002,0,-1.3605,-121.0000,-0.0152,-1.3605,-121.0000,-0.0152
0.8112,3.2209,0.0791,-0.4800,-0.1371,0.2400,0.2400,-0.3200,0.3290,-0.0040,-0.0075,0.0008,1329,1503,1503,1498,1000,1000,1505,1000,1000,1505,1503,1407,1505,1.4731,-0.5872,-0.5142,0.1609,-0.1196,0.9672,0.3333,0.3397,0.3262,0.3168,0.2204,0.0082,0.0438,0.2204,0.0082,0.0438,0.3000,0.0500,0.0002,0,-1.3605,-121.0000,-0.0152,-1.3605,-121.0000,-0.0152
0.7996,3.1957,0.0783,-0.4800,-0.0686,0.1200,0.1200,-0.9600,0.3290,-0.0049,-0.0063,-0.0018,1329,1502,1502,1497,1000,1000,1505,1000,1000,1505,1503,1407,1505,3.1249,-3.7853,-0.5908,-0.0072,-0.0097,1.0694,0.3286,0.3421,0.3258,0.3196,0.2204,0.0082,0.0438,0.2204,0.0082,0.0438,0.3000,0.0500,0.0002,0,-1.3605,-121.0000,-0.0152,-1.3605,-121.0000,-0.0152
0.7777,3.1723,0.0781,-0.5486,-0.1371,0.1200,0.1200,-0.9600,0.3290,-0.0041,-0.0073,-0.0043,1329,1502,1502,1497,1000,1000,1505,1000,1000,1505,1503,1407,1505,1.3720,-1.4466,0.3748,-0.0047,-0.0157,0.8519,0.3279,0.3447,0.3216,0.3219,0.2204,0.0082,0.0438,0.2204,0.0082,0.0438,0.3000,0.0500,0.0002,0,-1.3605,-121.0000,-0.0152,-1.3605,-121.0000,-0.0152
0.7608,3.1444,0.0741,-0.4800,-0.0000,0.1200,0.1200,-0.9600,0.3300,-0.0017,-0.0084,-0.0061,1330,1502,1502,1497,1000,1000,1505,1000,1000,1505,1503,1407,1505,-3.9698,1.2990,0.5002,-0.1613,0.0002,1.0077,0.3306,0.3462,0.3172,0.3259,0.2204,0.0082,0.0438,0.2204,0.0082,0.0438,0.3000,0.0500,0.0002,0,-1.3605,-121.0000,-0.0152,-1.3605,-121.0000,-0.0152
0.7497,3.1192,0.0709,-0.5486,0.0686,0.1200,0.1200,-0.9600,0.3300,-0.0014,-0.0094,-0.0008,1330,1502,1502,1497,1000,1000,1505,1000,1000,1505,1503,1407,1505,-4.6586,3.7297,-0.9262,0.1706,-0.1942,1.0791,0.3372,0.3416,0.3211,0.3200,0.2204,0.0082,0.0438,0.2204,0.0082,0.0438,0.3000,0.0500,0.0002,0,-1.3605,-121.0000,-0.0152,-1.3605,-121.0000,-0.0152
0.7221,3.1112,0.0685,-0.5486,0.1371,0.1200,0.1200,-0.9600,0.3290,-0.0022,-0.0072,-0.0036,1329,1502,1502,1497,1000,1000,1505,1000,1000,1505,1503,1407,1505,-2.6872,-1.2868,0.0320,-0.0300,0.0131,0.9462,0.3305,0.3420,0.3204,0.3231,0.2204,0.0082,0.0438,0.2204,0.0082,0.0438,0.3000,0.0500,0.0002,0,-1.3605,-121.0000,-0.0152,-1.3605,-121.0000,-0.0152
0.6780,3.1057,0.0677,-0.5486,-0.0686,0.2400,0.2400,-0.3200,0.3290,-0.0031,-0.0062,-0.0008,1329,1503,1503,1498,1000,1000,1505,1000,1000,1505,1503,1407,1505,0.1620,-3.0268,0.1977,0.0192,0.0334,0.8135,0.3313,0.3391,0.3251,0.3205,0.2204,0.0082,0.0438,0.2204,0.0082,0.0438,0.3000,0.0500,0.0002,0,-1.3605,-121.0000,-0.0152,-1.3605,-121.0000,-0.0152
0.5968,3.0984,0.0696,-0.5486,-0.0000,0.1200,0.1200,-0.9600,0.3290,-0.0024,-0.0079,-0.0070,1329,1502,1502,1497,1000,1000,1505,1000,1000,1505,1503,1407,1505,-1.6435,0.3134,1.0240,-0.0823,-0.0616,1.1008,0.3275,0.3463,0.3164,0.3257,0.2204,0.0082,0.0438,0.2204,0.0082,0.0438,0.3000,0.0500,0.0002,0,-1.3605,-121.0000,-0.0152,-1.3605,-121.0000,-0.0152
0.5257,3.0659,0.0711,-0.4800,-0.0000,0.1200,0.1200,-0.9600,0.3300,0.0004,-0.0092,-0.0058,1330,1502,1502,1497,1000,1000,1505,1000,1000,1505,1503,1407,1505,-7.6143,3.3586,0.3084,0.0567,0.0424,0.8947,0.3338,0.3446,0.3147,0.3270,0.2204,0.0082,0.0438,0.2204,0.0082,0.0438,0.3000,0.0500,0.0002,0,-1.3605,-121.0000,-0.0152,-1.3605,-121.0000,-0.0152
0.4613,3.0518,0.0775,-0.4800,-0.0686,0.1200,0.1200,-0.9600,0.3300,0.0019,-0.0073,-0.0040,1330,1502,1502,1497,1000,1000,1505,1000,1000,1505,1503,1407,1505,-10.8018,-0.9207,0.1336,0.0036,-0.0143,0.9758,0.3352,0.3393,0.3168,0.3286,0.2204,0.0082,0.0438,0.2204,0.0082,0.0438,0.3000,0.0500,0.0002,0,-1.3605,-121.0000,-0.0152,-1.3605,-121.0000,-0.0152
0.3806,3.0442,0.0857,-0.4800,-0.0000,0.1200,0.1200,-0.9600,0.3300,0.0008,-0.0073,-0.0054,1330,1502,1502,1497,1000,1000,1505,1000,1000,1505,1503,1407,1505,-7.8408,-0.8376,0.4311,0.0189,-0.2077,1.1865,0.3327,0.3419,0.3165,0.3289,0.2204,0.0082,0.0438,0.2204,0.0082,0.0438,0.3000,0.0500,0.0002,0,-1.3605,-121.0000,-0.0152,-1.3605,-121.0000,-0.0152
0.2911,3.0292,0.0924,-0.5486,0.0686,0.1200,0.1200,-0.9600,0.3300,0.0006,-0.0071,-0.0063,1330,1502,1502,1497,1000,1000,1505,1000,1000,1505,1503,1407,1505,-6.9221,-1.2693,1.1272,-0.0597,-0.0157,0.8948,0.3313,0.3428,0.3160,0.3299,0.2204,0.0082,0.0438,0.2204,0.0082,0.0438,0.3000,0.0500,0.0002,0,-1.3605,-121.0000,-0.0152,-1.3605,-121.0000,-0.0152
0.1784,3.0151,0.0894,-0.5486,0.0686,0.2400,0.2400,-0.3200,0.3300,0.0011,-0.0078,-0.0056,1330,1503,1503,1498,1000,1000,1505,1000,1000,1505,1503,1407,1505,-6.9557,0.9961,1.3801,-0.1098,0.0150,0.9513,0.3333,0.3422,0.3155,0.3289,0.2204,0.0082,0.0438,0.2204,0.0082,0.0438,0.3000,0.0500,0.0002,0,-1.3605,-121.0000,-0.0152,-1.3605,-121.0000,-0.0152
0.0582,2.9990,0.0887,-0.6171,0.2057,0.1200,0.1200,-0.9600,0.3300,0.0011,-0.0089,-0.0018,1330,1502,1502,1497,1000,1000,1505,1000,1000,1505,1503,1407,1505,-6.9424,3.0394,-0.8093,0.1562,-0.1049,1.0573,0.3382,0.3395,0.3182,0.3240,0.2204,0.0082,0.0438,0.2204,0.0082,0.0438,0.3000,0.0500,0.0002,0,-1.3605,-121.0000,-0.0152,-1.3605,-121.0000,-0.0152
-0.0494,2.9967,0.0916,-0.6171,0.0686,0.1200,0.1200,-0.9600,0.3300,0.0016,-0.0069,-0.0027,1330,1502,1502,1497,1000,1000,1505,1000,1000,1505,1503,1407,1505,-7.4513,-1.5898,-0.2968,-0.1205,-0.0338,0.8216,0.3358,0.3380,0.3189,0.3274,0.2204,0.0082,0.0438,0.2204,0.0082,0.0438,0.3000,0.0500,0.0002,0,-1.3605,-121.0000,-0.0152,-1.3605,-121.0000,-0.0152
-0.1498,2.9951,0.0921,-0.5486,-0.0000,0.1200,0.1200,-0.9600,0.3300,0.0012,-0.0064,-0.0020,1330,1502,1502,1497,1000,1000,1505,1000,1000,1505,1503,1407,1505,-6.0401,-2.6968,-0.5868,0.0807,-0.0912,1.0411,0.3356,0.3371,0.3205,0.3268,0.2204,0.0082,0.0438,0.2204,0.0082,0.0438,0.3000,0.0500,0.0002,0,-1.3605,-121.0000,-0.0152,-1.3605,-121.0000,-0.0152
-0.2460,2.9863,0.0890,-0.6171,-0.0000,0.1200,0.1200,-0.9600,0.3300,0.0016,-0.0073,-0.0045,1330,1502,1502,1497,1000,1000,1505,1000,1000,1505,1503,1407,1505,-6.5969,-0.4915,0.4430,-0.2136,-0.0198,0.9962,0.3344,0.3402,0.3165,0.3288,0.2204,0.0082,0.0438,0.2204,0.0082,0.0438,0.3000,0.0500,0.0002,0,-1.3605,-121.0000,-0.0152,-1.3605,-121.0000,-0.0152
-0.3213,2.9561,0.0856,-0.5486,-0.0000,0.1200,0.1200,-0.9600,0.3300,0.0023,-0.0081,-0.0071,1330,1502,1502,1497,1000,1000,1505,1000,1000,1505,1503,1407,1505,-7.5983,1.3848,0.7110,0.0056,-0.1733,0.9560,0.3333,0.3429,0.3126,0.3312,0.2204,0.0082,0.0438,0.2204,0.0082,0.0438,0.3000,0.0500,0.0002,0,-1.3605,-121.0000,-0.0152,-1.3605,-121.0000,-0.0152
-0.3783,2.9346,0.0889,-0.4800,-0.0000,0.2400,0.2400,-0.3200,0.3300,0.0015,-0.0075,-0.0016,1330,1503,1503,1498,1000,1000,1505,1000,1000,1505,1503,1407,1505,-4.9723,0.8667,0.3968,-0.0082,-0.0203,1.0475,0.3375,0.3376,0.3194,0.3255,0.2204,0.0082,0.0438,0.2204,0.0082,0.0438,0.3000,0.0500,0.0002,0,-1.3605,-121.0000,-0.0152,-1.3605,-121.0000,-0.0152
-0.4332,2.9168,0.0932,-0.6171,0.1371,0.1200,0.1200,-0.9600,0.3300,0.0003,-0.0061,-0.0006,1330,1502,1502,1497,1000,1000,1505,1000,1000,1505,1503,1407,1505,-2.5092,-2.9806,-0.9431,0.0836,0.0454,0.9565,0.3357,0.3364,0.3230,0.3248,0.2204,0.0082,0.0438,0.2204,0.0082,0.0438,0.3000,0.0500,0.0002,0,-1.3605,-121.0000,-0.0152,-1.3605,-121.0000,-0.0152
-0.5056,2.8999,0.0950,-0.5486,-0.0686,0.1200,0.1200,-0.9600,0.3290,-0.0006,-0.0063,-0.0030,1329,1502,1502,1497,1000,1000,1505,1000,1000,1505,1503,1407,1505,-0.2645,-2.5158,-0.0847,-0.1134,-0.1863,0.9995,0.3317,0.3388,0.3203,0.3252,0.2204,0.0082,0.0438,0.2204,0.0082,0.0438,0.3000,0.0500,0.0002,0,-1.3605,-121.0000,-0.0152,-1.3605,-121.0000,-0.0152
-0.5786,2.8703,0.0948,-0.6857,-0.0686,0.1200,0.1200,-0.9600,0.3290,0.0019,-0.0070,-0.0092,1329,1502,1502,1497,1000,1000,1505,1000,1000,1505,1503,1407,1505,-5.5730,-0.5748,1.6209,0.0277,0.0336,0.9691,0.3288,0.3433,0.3109,0.3331,0.2204,0.0082,0.0438,0.2204,0.0082,0.0438,0.3000,0.0500,0.0002,0,-1.3605,-121.0000,-0.0152,-1.3605,-121.0000,-0.0152
-0.6364,2.8479,0.0968,-0.6857,0.0686,0.1200,0.1200,-0.9600,0.3290,0.0040,-0.0079,-0.0045,1329,1502,1502,1497,1000,1000,1505,1000,1000,1505,1503,1407,1505,-9.8876,1.4196,0.2345,-0.0799,-0.1523,0.9532,0.3363,0.3375,0.3126,0.3296,0.2204,0.0082,0.0438,0.2204,0.0082,0.0438,0.3000,0.0500,0.0002,0,-1.3605,-121.0000,-0.0152,-1.3605,-121.0000,-0.0152
