roll_imu,pitch_imu,yaw_imu,alpha,beta,roll_des,pitch_des,yaw_des,throttle_des,roll_pid,pitch_pid,yaw_pid,radio_ch1,radio_ch2,radio_ch3,radio_ch4,radio_ch5,radio_ch6,radio_ch7,radio_ch8,radio_ch9,radio_ch10,radio_ch11,radio_ch12,radio_ch13,GyroX,GyroY,GyroZ,AccX,AccY,AccZ,s1_command,s2_command,s3_command,s4_command,kp_roll,ki_roll,kd_roll,kp_pitch,ki_pitch,kd_pitch,kp_yaw,ki_yaw,kd_yaw,failsafeTriggered,kp_alphaRoll,ki_alphaRoll,kd_alphaRoll,kp_betaPitch,ki_betaPitch,kd_betaPitch
0.0000,0.0000,0.0000,8.9486,-2.9143,0.0000,0.0000,0.0000,0.0000,0.0000,0.0000,0.0000,998,1504,1504,1501,1000,1000,1505,1000,1000,1505,1503,1407,1505,0.0000,0.0000,0.0000,0.0000,0.0000,0.0000,0.0000,0.0000,0.0000,0.0000,0.2204,0.0082,0.0438,0.2204,0.0082,0.0438,0.3000,0.0500,0.0002,0,-0.3000,-100.0000,-0.0010,-0.3000,-100.0000,-0.0010
-37.8814,17.0193,-5.9491,-0.4800,0.2743,0.1200,0.1200,0.0000,0.0000,0.0855,-0.0373,0.0022,996,1502,1502,1500,1000,1000,1505,1000,1000,1505,1503,1407,1505,0.7478,0.0218,-0.2013,-0.0136,-0.0366,0.9474,0.1249,-0.0504,-0.1206,0.0461,0.2204,0.0082,0.0438,0.2204,0.0082,0.0438,0.3000,0.0500,0.0002,0,-1.3605,-121.0000,-0.0152,-1.3605,-121.0000,-0.0152
-37.8379,17.0058,-5.9402,-0.4114,0.2743,0.1200,0.1200,0.0000,0.0000,0.0854,-0.0373,0.0018,996,1502,1502,1500,1000,1000,1505,1000,1000,1505,1503,1407,1505,0.7666,0.1348,-0.0898,-0.0161,-0.0375,0.9859,0.1245,-0.0499,-0.1208,0.0463,0.2204,0.0082,0.0438,0.2204,0.0082,0.0438,0.3000,0.0500,0.0002,0,-1.3605,-121.0000,-0.0152,-1.3605,-121.0000,-0.0152
-37.7935,16.9924,-5.9301,-0.4800,0.2057,0.1200,0.1200,0.0000,0.0000,0.0854,-0.0372,0.0016,996,1502,1502,1500,1000,1000,1505,1000,1000,1505,1503,1407,1505,0.5868,0.0848,0.0110,-0.0161,-0.0367,0.9890,0.1241,-0.0497,-0.1210,0.0466,0.2204,0.0082,0.0438,0.2204,0.0082,0.0438,0.3000,0.0500,0.0002,0,-1.3605,-121.0000,-0.0152,-1.3605,-121.0000,-0.0152
-37.7495,16.9795,-5.9199,-0.5486,0.1371,0.1200,0.1200,0.0000,0.0000,0.0852,-0.0372,0.0018,998,1504,1504,1501,1000,1000,1505,1000,1000,1505,1503,1407,1505,0.6103,0.0815,-0.0658,-0.0176,-0.0404,0.9880,0.1242,-0.0498,-0.1207,0.0463,0.2204,0.0082,0.0438,0.2204,0.0082,0.0438,0.3000,0.0500,0.0002,0,-1.3605,-121.0000,-0.0152,-1.3605,-121.0000,-0.0152
-37.7051,16.9665,-5.9096,-0.4114,0.2743,0.1200,0.1200,0.0000,0.0000,0.0851,-0.0371,0.0016,996,1502,1502,1500,1000,1000,1505,1000,1000,1505,1503,1407,1505,0.6745,-0.0128,0.0034,-0.0179,-0.0420,0.9837,0.1238,-0.0496,-0.1207,0.0464,0.2204,0.0082,0.0438,0.2204,0.0082,0.0438,0.3000,0.0500,0.0002,0,-1.3605,-121.0000,-0.0152,-1.3605,-121.0000,-0.0152
-37.6596,16.9521,-5.8981,-0.6171,0.2057,0.1200,0.1200,0.0000,0.0000,0.0850,-0.0371,0.0015,996,1502,1502,1500,1000,1000,1505,1000,1000,1505,1503,1407,1505,0.8004,-0.0934,0.0138,-0.0184,-0.0438,0.9821,0.1236,-0.0494,-0.1205,0.0464,0.2204,0.0082,0.0438,0.2204,0.0082,0.0438,0.3000,0.0500,0.0002,0,-1.3605,-121.0000,-0.0152,-1.3605,-121.0000,-0.0152
-37.6125,16.9364,-5.8862,-0.4800,0.2743,0.1200,0.1200,0.0000,0.0000,0.0848,-0.0370,0.0018,996,1502,1502,1500,1000,1000,1505,1000,1000,1505,1503,1407,1505,0.9537,-0.2476,-0.0603,-0.0174,-0.0463,0.9885,0.1236,-0.0497,-0.1199,0.0460,0.2204,0.0082,0.0438,0.2204,0.0082,0.0438,0.3000,0.0500,0.0002,0,-1.3605,-121.0000,-0.0152,-1.3605,-121.0000,-0.0152
-37.5640,16.9199,-5.8753,-0.4800,0.2743,0.1200,0.1200,0.0000,0.0000,0.0846,-0.0370,0.0022,996,1502,1502,1500,1000,1000,1505,1000,1000,1505,1503,1407,1505,1.1601,-0.1594,-0.2239,-0.0190,-0.0432,0.9914,0.1238,-0.0499,-0.1193,0.0454,0.2204,0.0082,0.0438,0.2204,0.0082,0.0438,0.3000,0.0500,0.0002,0,-1.3605,-121.0000,-0.0152,-1.3605,-121.0000,-0.0152
-37.5134,16.9036,-5.8653,-0.4800,0.2743,0.1200,0.1200,0.0000,0.0000,0.0844,-0.0370,0.0022,996,1502,1502,1500,1000,1000,1505,1000,1000,1505,1503,1407,1505,1.3294,-0.0557,-0.2089,-0.0152,-0.0412,0.9869,0.1236,-0.0497,-0.1191,0.0452,0.2204,0.0082,0.0438,0.2204,0.0082,0.0438,0.3000,0.0500,0.0002,0,-1.3605,-121.0000,-0.0152,-1.3605,-121.0000,-0.0152
-37.4612,16.8874,-5.8566,-0.4800,0.2743,0.1200,0.1200,0.0000,0.0000,0.0842,-0.0369,0.0024,998,1504,1502,1501,1000,1000,1505,1000,1000,1505,1503,1407,1505,1.5336,-0.0293,-0.2926,-0.0153,-0.0421,0.9827,0.1235,-0.0497,-0.1188,0.0449,0.2204,0.0082,0.0438,0.2204,0.0082,0.0438,0.3000,0.0500,0.0002,0,-1.3605,-121.0000,-0.0152,-1.3605,-121.0000,-0.0152
-37.4073,16.8712,-5.8474,-0.4800,0.2743,0.1200,0.1200,0.0000,0.0000,0.0840,-0.0369,0.0025,996,1502,1502,1500,1000,1000,1505,1000,1000,1505,1503,1407,1505,1.6968,-0.0463,-0.3058,-0.0143,-0.0382,0.9825,0.1234,-0.0496,-0.1184,0.0446,0.2204,0.0082,0.0438,0.2204,0.0082,0.0438,0.3000,0.0500,0.0002,0,-1.3605,-121.0000,-0.0152,-1.3605,-121.0000,-0.0152
-37.3521,16.8555,-5.8383,-0.4114,0.3429,0.1200,0.1200,0.0000,0.0000,0.0839,-0.0369,0.0024,996,1502,1502,1500,1000,1000,1505,1000,1000,1505,1503,1407,1505,1.7428,-0.0037,-0.2504,-0.0181,-0.0391,0.9876,0.1231,-0.0494,-0.1184,0.0446,0.2204,0.0082,0.0438,0.2204,0.0082,0.0438,0.3000,0.0500,0.0002,0,-1.3605,-121.0000,-0.0152,-1.3605,-121.0000,-0.0152
-37.2976,16.8398,-5.8296,-0.5486,0.2057,0.1200,0.1200,0.0000,0.0000,0.0838,-0.0369,0.0023,996,1502,1502,1500,1000,1000,1505,1000,1000,1505,1503,1407,1505,1.5979,0.0413,-0.2468,-0.0148,-0.0391,0.9857,0.1230,-0.0493,-0.1184,0.0446,0.2204,0.0082,0.0438,0.2204,0.0082,0.0438,0.3000,0.0500,0.0002,0,-1.3605,-121.0000,-0.0152,-1.3605,-121.0000,-0.0152
-37.2445,16.8242,-5.8206,-0.4800,0.3429,0.1200,0.1200,0.0000,0.0000,0.0838,-0.0368,0.0023,996,1502,1502,1500,1000,1000,1505,1000,1000,1505,1503,1407,1505,1.3895,-0.0536,-0.2252,-0.0178,-0.0334,0.9849,0.1228,-0.0493,-0.1183,0.0447,0.2204,0.0082,0.0438,0.2204,0.0082,0.0438,0.3000,0.0500,0.0002,0,-1.3605,-121.0000,-0.0152,-1.3605,-121.0000,-0.0152
-37.1936,16.8086,-5.8110,-0.4800,0.2743,0.1200,0.1200,0.0000,0.0000,0.0838,-0.0368,0.0023,996,1502,1502,1500,1000,1000,1505,1000,1000,1505,1503,1407,1505,1.1644,0.0009,-0.2497,-0.0141,-0.0363,0.9870,0.1229,-0.0493,-0.1182,0.0447,0.2204,0.0082,0.0438,0.2204,0.0082,0.0438,0.3000,0.0500,0.0002,0,-1.3605,-121.0000,-0.0152,-1.3605,-121.0000,-0.0152
-37.1449,16.7930,-5.8017,-0.4800,0.2743,0.1200,0.1200,0.0000,0.0000,0.0837,-0.0368,0.0020,998,1504,1504,1501,1000,1000,1505,1000,1000,1505,1503,1407,1505,1.0175,0.0185,-0.1657,-0.0152,-0.0368,0.9882,0.1225,-0.0490,-0.1185,0.0449,0.2204,0.0082,0.0438,0.2204,0.0082,0.0438,0.3000,0.0500,0.0002,0,-1.3605,-121.0000,-0.0152,-1.3605,-121.0000,-0.0152
-37.0976,16.7786,-5.7922,-0.5486,0.3429,0.1200,0.1200,0.0000,0.0000,0.0837,-0.0367,0.0020,996,1502,1502,1500,1000,1000,1505,1000,1000,1505,1503,1407,1505,0.8406,0.0574,-0.1414,-0.0166,-0.0386,0.9863,0.1225,-0.0490,-0.1184,0.0449,0.2204,0.0082,0.0438,0.2204,0.0082,0.0438,0.3000,0.0500,0.0002,0,-1.3605,-121.0000,-0.0152,-1.3605,-121.0000,-0.0152
-37.0518,16.7648,-5.7826,-0.4800,0.2057,0.1200,0.1200,0.0000,0.0000,0.0836,-0.0367,0.0017,996,1502,1502,1500,1000,1000,1505,1000,1000,1505,1503,1407,1505,0.7764,0.1183,-0.0399,-0.0132,-0.0371,0.9856,0.1220,-0.0486,-0.1187,0.0452,0.2204,0.0082,0.0438,0.2204,0.0082,0.0438,0.3000,0.0500,0.0002,0,-1.3605,-121.0000,-0.0152,-1.3605,-121.0000,-0.0152
-37.0064,16.7517,-5.7730,-0.4800,0.2057,0.1200,0.1200,0.0000,0.0000,0.0835,-0.0367,0.0014,996,1502,1502,1500,1000,1000,1505,1000,1000,1505,1503,1407,1505,0.7523,0.2034,0.0549,-0.0190,-0.0384,0.9877,0.1216,-0.0482,-0.1189,0.0454,0.2204,0.0082,0.0438,0.2204,0.0082,0.0438,0.3000,0.0500,0.0002,0,-1.3605,-121.0000,-0.0152,-1.3605,-121.0000,-0.0152
-36.9626,16.7385,-5.7632,-0.4800,0.3429,0.1200,0.1200,0.0000,0.0000,0.0836,-0.0367,0.0018,996,1502,1502,1500,1000,1000,1505,1000,1000,1505,1503,1407,1505,0.4483,0.0783,-0.0532,-0.0137,-0.0376,0.9895,0.1220,-0.0487,-0.1185,0.0452,0.2204,0.0082,0.0438,0.2204,0.0082,0.0438,0.3000,0.0500,0.0002,0,-1.3605,-121.0000,-0.0152,-1.3605,-121.0000,-0.0152
-36.9210,16.7249,-5.7533,-0.4800,0.3429,0.1200,0.1200,0.0000,0.0000,0.0836,-0.0366,0.0018,996,1502,1502,1500,1000,1000,1505,1000,1000,1505,1503,1407,1505,0.2829,0.0762,-0.0590,-0.0158,-0.0376,0.9878,0.1219,-0.0487,-0.1184,0.0452,0.2204,0.0082,0.0438,0.2204,0.0082,0.0438,0.3000,0.0500,0.0002,0,-1.3605,-121.0000,-0.0152,-1.3605,-121.0000,-0.0152
-36.8814,16.7102,-5.7427,-0.4800,0.2743,0.1200,0.1200,0.0000,0.0000,0.0836,-0.0365,0.0017,998,1504,1504,1501,1000,1000,1505,1000,1000,1505,1503,1407,1505,0.0204,-0.0508,-0.0570,-0.0152,-0.0339,0.9839,0.1219,-0.0488,-0.1184,0.0453,0.2204,0.0082,0.0438,0.2204,0.0082,0.0438,0.3000,0.0500,0.0002,0,-1.3605,-121.0000,-0.0152,-1.3605,-121.0000,-0.0152
-36.8442,16.6950,-5.7317,-0.4800,0.2057,0.1200,0.1200,0.0000,0.0000,0.0836,-0.0365,0.0016,996,1502,1502,1500,1000,1000,1505,1000,1000,1505,1503,1407,1505,-0.1866,-0.1064,-0.0250,-0.0189,-0.0351,0.9891,0.1217,-0.0487,-0.1185,0.0455,0.2204,0.0082,0.0438,0.2204,0.0082,0.0438,0.3000,0.0500,0.0002,0,-1.3605,-121.0000,-0.0152,-1.3605,-121.0000,-0.0152
-36.8098,16.6791,-5.7200,-0.4800,0.2057,0.1200,0.1200,0.0000,0.0000,0.0837,-0.0364,0.0017,996,1502,1502,1500,1000,1000,1505,1000,1000,1505,1503,1407,1505,-0.4963,-0.2356,-0.0688,-0.0170,-0.0345,0.9872,0.1218,-0.0490,-0.1183,0.0455,0.2204,0.0082,0.0438,0.2204,0.0082,0.0438,0.3000,0.0500,0.0002,0,-1.3605,-121.0000,-0.0152,-1.3605,-121.0000,-0.0152
-36.7772,16.6642,-5.7080,-0.4800,0.2057,0.1200,0.1200,0.0000,0.0000,0.0837,-0.0364,0.0011,996,1502,1502,1500,1000,1000,1505,1000,1000,1505,1503,1407,1505,-0.6855,-0.0671,0.1663,-0.0135,-0.0370,0.9887,0.1212,-0.0483,-0.1190,0.0462,0.2204,0.0082,0.0438,0.2204,0.0082,0.0438,0.3000,0.0500,0.0002,0,-1.3605,-121.0000,-0.0152,-1.3605,-121.0000,-0.0152
-36.7463,16.6506,-5.6954,-0.4800,0.2057,0.1200,0.1200,0.0000,0.0000,0.0836,-0.0365,0.0010,996,1502,1502,1500,1000,1000,1505,1000,1000,1505,1503,1407,1505,-0.7693,0.0426,0.2103,-0.0147,-0.0349,0.9869,0.1211,-0.0481,-0.1191,0.0462,0.2204,0.0082,0.0438,0.2204,0.0082,0.0438,0.3000,0.0500,0.0002,0,-1.3605,-121.0000,-0.0152,-1.3605,-121.0000,-0.0152
-36.7171,16.6384,-5.6826,-0.4800,0.2057,0.1200,0.1200,0.0000,0.0000,0.0837,-0.0364,0.0008,996,1502,1502,1500,1000,1000,1505,1000,1000,1505,1503,1407,1505,-1.0074,0.0439,0.2738,-0.0147,-0.0392,0.9906,0.1209,-0.0480,-0.1193,0.0465,0.2204,0.0082,0.0438,0.2204,0.0082,0.0438,0.3000,0.0500,0.0002,0,-1.3605,-121.0000,-0.0152,-1.3605,-121.0000,-0.0152
-36.6895,16.6265,-5.6705,-0.4800,0.2743,0.1200,0.1200,0.0000,0.0000,0.0836,-0.0364,0.0011,998,1504,1504,1501,1000,1000,1505,1000,1000,1505,1503,1407,1505,-1.0630,0.1583,0.1518,-0.0143,-0.0371,0.9880,0.1212,-0.0483,-0.1190,0.0461,0.2204,0.0082,0.0438,0.2204,0.0082,0.0438,0.3000,0.0500,0.0002,0,-1.3605,-121.0000,-0.0152,-1.3605,-121.0000,-0.0152
-36.6629,16.6153,-5.6590,-0.4800,0.2743,0.1200,0.1200,0.0000,0.0000,0.0836,-0.0364,0.0008,996,1502,1502,1500,1000,1000,1505,1000,1000,1505,1503,1407,1505,-1.1325,0.1734,0.2720,-0.0182,-0.0404,0.9904,0.1208,-0.0479,-0.1193,0.0464,0.2204,0.0082,0.0438,0.2204,0.0082,0.0438,0.3000,0.0500,0.0002,0,-1.3605,-121.0000,-0.0152,-1.3605,-121.0000,-0.0152
-36.6368,16.6041,-5.6471,-0.4114,0.2057,0.1200,0.1200,0.0000,0.0000,0.0836,-0.0364,0.0011,996,1502,1502,1500,1000,1000,1505,1000,1000,1505,1503,1407,1505,-1.1255,0.1491,0.1908,-0.0145,-0.0441,0.9880,0.1210,-0.0482,-0.1189,0.0461,0.2204,0.0082,0.0438,0.2204,0.0082,0.0438,0.3000,0.0500,0.0002,0,-1.3605,-121.0000,-0.0152,-1.3605,-121.0000,-0.0152
-36.6108,16.5923,-5.6360,-0.4800,0.3429,0.1200,0.1200,0.0000,0.0000,0.0835,-0.0364,0.0009,996,1502,1502,1500,1000,1000,1505,1000,1000,1505,1503,1407,1505,-1.0969,0.2261,0.2078,-0.0152,-0.0409,0.9847,0.1208,-0.0480,-0.1190,0.0462,0.2204,0.0082,0.0438,0.2204,0.0082,0.0438,0.3000,0.0500,0.0002,0,-1.3605,-121.0000,-0.0152,-1.3605,-121.0000,-0.0152
-36.5838,16.5809,-5.6254,-0.4800,0.2057,0.1200,0.1200,0.0000,0.0000,0.0834,-0.0364,0.0011,996,1502,1502,1500,1000,1000,1505,1000,1000,1505,1503,1407,1505,-1.0035,0.2139,0.1696,-0.0162,-0.0423,0.9838,0.1208,-0.0481,-0.1187,0.0460,0.2204,0.0082,0.0438,0.2204,0.0082,0.0438,0.3000,0.0500,0.0002,0,-1.3605,-121.0000,-0.0152,-1.3605,-121.0000,-0.0152
-36.5561,16.5695,-5.6146,-0.4114,0.1371,0.1200,0.1200,0.0000,0.0000,0.0833,-0.0364,0.0011,996,1502,1502,1500,1000,1000,1505,1000,1000,1505,1503,1407,1505,-0.9425,0.2487,0.1672,-0.0157,-0.0398,0.9880,0.1207,-0.0480,-0.1186,0.0459,0.2204,0.0082,0.0438,0.2204,0.0082,0.0438,0.3000,0.0500,0.0002,0,-1.3605,-121.0000,-0.0152,-1.3605,-121.0000,-0.0152
-36.5273,16.5587,-5.6044,-0.4800,0.2057,0.1200,0.1200,0.0000,0.0000,0.0832,-0.0363,0.0013,998,1504,1504,1501,1000,1000,1505,1000,1000,1505,1503,1407,1505,-0.7779,0.2575,0.0947,-0.0174,-0.0417,0.9869,0.1208,-0.0481,-0.1182,0.0455,0.2204,0.0082,0.0438,0.2204,0.0082,0.0438,0.3000,0.0500,0.0002,0,-1.3605,-121.0000,-0.0152,-1.3605,-121.0000,-0.0152
-36.4970,16.5465,-5.5936,-0.4114,0.2057,0.1200,0.1200,0.0000,0.0000,0.0831,-0.0363,0.0014,996,1502,1502,1500,1000,1000,1505,1000,1000,1505,1503,1407,1505,-0.7147,0.1523,0.0702,-0.0150,-0.0412,0.9885,0.1208,-0.0482,-0.1179,0.0454,0.2204,0.0082,0.0438,0.2204,0.0082,0.0438,0.3000,0.0500,0.0002,0,-1.3605,-121.0000,-0.0152,-1.3605,-121.0000,-0.0152
-36.4655,16.5337,-5.5830,-0.4114,0.2057,0.1200,0.1200,0.0000,0.0000,0.0829,-0.0362,0.0013,996,1502,1502,1500,1000,1000,1505,1000,1000,1505,1503,1407,1505,-0.5766,0.0852,0.0731,-0.0174,-0.0424,0.9892,0.1205,-0.0481,-0.1178,0.0454,0.2204,0.0082,0.0438,0.2204,0.0082,0.0438,0.3000,0.0500,0.0002,0,-1.3605,-121.0000,-0.0152,-1.3605,-121.0000,-0.0152
-36.4332,16.5194,-5.5717,-0.4800,0.2743,0.1200,0.1200,0.0000,0.0000,0.0829,-0.0361,0.0015,996,1502,1502,1500,1000,1000,1505,1000,1000,1505,1503,1407,1505,-0.5577,-0.0655,0.0058,-0.0141,-0.0396,0.9879,0.1205,-0.0483,-0.1174,0.0452,0.2204,0.0082,0.0438,0.2204,0.0082,0.0438,0.3000,0.0500,0.0002,0,-1.3605,-121.0000,-0.0152,-1.3605,-121.0000,-0.0152
-36.3996,16.5056,-5.5601,-0.4114,0.2743,0.1200,0.1200,0.0000,0.0000,0.0827,-0.0361,0.0014,996,1502,1502,1500,1000,1000,1505,1000,1000,1505,1503,1407,1505,-0.4629,0.0149,0.0658,-0.0198,-0.0405,0.9886,0.1202,-0.0480,-0.1175,0.0452,0.2204,0.0082,0.0438,0.2204,0.0082,0.0438,0.3000,0.0500,0.0002,0,-1.3605,-121.0000,-0.0152,-1.3605,-121.0000,-0.0152
-36.3659,16.4918,-5.5492,-0.4114,0.3429,0.1200,0.1200,0.0000,0.0000,0.0826,-0.0361,0.0015,996,1502,1502,1500,1000,1000,1505,1000,1000,1505,1503,1407,1505,-0.3940,0.1318,0.0301,-0.0166,-0.0444,0.9885,0.1202,-0.0480,-0.1173,0.0450,0.2204,0.0082,0.0438,0.2204,0.0082,0.0438,0.3000,0.0500,0.0002,0,-1.3605,-121.0000,-0.0152,-1.3605,-121.0000,-0.0152
-36.3307,16.4784,-5.5387,-0.4800,0.3429,0.1200,0.1200,0.0000,0.0000,0.0825,-0.0361,0.0017,998,1504,1504,1501,1000,1000,1505,1000,1000,1505,1503,1407,1505,-0.1980,0.0958,-0.0074,-0.0164,-0.0432,0.9895,0.1202,-0.0480,-0.1169,0.0447,0.2204,0.0082,0.0438,0.2204,0.0082,0.0438,0.3000,0.0500,0.0002,0,-1.3605,-121.0000,-0.0152,-1.3605,-121.0000,-0.0152
-36.2943,16.4650,-5.5282,-0.4114,0.2057,0.1200,0.1200,0.0000,0.0000,0.0824,-0.0361,0.0012,996,1502,1502,1500,1000,1000,1505,1000,1000,1505,1503,1407,1505,-0.1014,0.0983,0.1119,-0.0155,-0.0417,0.9855,0.1196,-0.0475,-0.1172,0.0451,0.2204,0.0082,0.0438,0.2204,0.0082,0.0438,0.3000,0.0500,0.0002,0,-1.3605,-121.0000,-0.0152,-1.3605,-121.0000,-0.0152
-36.2568,16.4514,-5.5178,-0.4114,0.2743,0.1200,0.1200,0.0000,0.0000,0.0822,-0.0360,0.0015,996,1502,1502,1500,1000,1000,1505,1000,1000,1505,1503,1407,1505,-0.0150,0.0698,0.0094,-0.0187,-0.0430,0.9903,0.1198,-0.0477,-0.1167,0.0447,0.2204,0.0082,0.0438,0.2204,0.0082,0.0438,0.3000,0.0500,0.0002,0,-1.3605,-121.0000,-0.0152,-1.3605,-121.0000,-0.0152
-36.2191,16.4381,-5.5079,-0.4800,0.2743,0.1200,0.1200,0.0000,0.0000,0.0821,-0.0360,0.0018,996,1502,1502,1500,1000,1000,1505,1000,1000,1505,1503,1407,1505,0.0154,0.1641,-0.0663,-0.0160,-0.0433,0.9821,0.1200,-0.0479,-0.1164,0.0443,0.2204,0.0082,0.0438,0.2204,0.0082,0.0438,0.3000,0.0500,0.0002,0,-1.3605,-121.0000,-0.0152,-1.3605,-121.0000,-0.0152
-36.1808,16.4243,-5.4985,-0.5486,0.1371,0.1200,0.1200,0.0000,0.0000,0.0820,-0.0360,0.0017,996,1502,1502,1500,1000,1000,1505,1000,1000,1505,1503,1407,1505,0.1134,0.0779,-0.0322,-0.0141,-0.0439,0.9882,0.1196,-0.0477,-0.1163,0.0444,0.2204,0.0082,0.0438,0.2204,0.0082,0.0438,0.3000,0.0500,0.0002,0,-1.3605,-121.0000,-0.0152,-1.3605,-121.0000,-0.0152
-36.1417,16.4106,-5.4886,-0.4800,0.3429,0.1200,0.1200,0.0000,0.0000,0.0819,-0.0360,0.0017,996,1502,1502,1500,1000,1000,1505,1000,1000,1505,1503,1407,1505,0.1141,0.1546,-0.0396,-0.0146,-0.0432,0.9871,0.1196,-0.0477,-0.1162,0.0442,0.2204,0.0082,0.0438,0.2204,0.0082,0.0438,0.3000,0.0500,0.0002,0,-1.3605,-121.0000,-0.0152,-1.3605,-121.0000,-0.0152
-36.1022,16.3963,-5.4792,-0.4800,0.2057,0.1200,0.1200,0.0000,0.0000,0.0818,-0.0359,0.0018,998,1504,1504,1501,1000,1000,1505,1000,1000,1505,1503,1407,1505,0.1603,-0.0006,-0.0821,-0.0160,-0.0429,0.9848,0.1195,-0.0478,-0.1158,0.0441,0.2204,0.0082,0.0438,0.2204,0.0082,0.0438,0.3000,0.0500,0.0002,0,-1.3605,-121.0000,-0.0152,-1.3605,-121.0000,-0.0152
-36.0624,16.3815,-5.4692,-0.4800,0.2057,0.1200,0.1200,0.0000,0.0000,0.0817,-0.0359,0.0017,996,1502,1502,1500,1000,1000,1505,1000,1000,1505,1503,1407,1505,0.1960,0.0323,-0.0421,-0.0162,-0.0422,0.9901,0.1193,-0.0475,-0.1159,0.0442,0.2204,0.0082,0.0438,0.2204,0.0082,0.0438,0.3000,0.0500,0.0002,0,-1.3605,-121.0000,-0.0152,-1.3605,-121.0000,-0.0152
-36.0218,16.3671,-5.4585,-0.4114,0.2743,0.1200,0.1200,0.0000,0.0000,0.0816,-0.0358,0.0017,996,1502,1502,1500,1000,1000,1505,1000,1000,1505,1503,1407,1505,0.2841,0.0084,-0.0469,-0.0169,-0.0444,0.9848,0.1191,-0.0475,-0.1157,0.0441,0.2204,0.0082,0.0438,0.2204,0.0082,0.0438,0.3000,0.0500,0.0002,0,-1.3605,-121.0000,-0.0152,-1.3605,-121.0000,-0.0152
-35.9808,16.3528,-5.4482,-0.4114,0.2743,0.1200,0.1200,0.0000,0.0000,0.0815,-0.0358,0.0015,996,1502,1502,1500,1000,1000,1505,1000,1000,1505,1503,1407,1505,0.3065,0.0555,0.0140,-0.0149,-0.0420,0.9904,0.1188,-0.0472,-0.1158,0.0442,0.2204,0.0082,0.0438,0.2204,0.0082,0.0438,0.3000,0.0500,0.0002,0,-1.3605,-121.0000,-0.0152,-1.3605,-121.0000,-0.0152
-35.9393,16.3390,-5.4383,-0.4114,0.2743,0.1200,0.1200,0.0000,0.0000,0.0814,-0.0358,0.0015,996,1502,1502,1500,1000,1000,1505,1000,1000,1505,1503,1407,1505,0.3055,0.1584,0.0006,-0.0165,-0.0418,0.9881,0.1187,-0.0471,-0.1157,0.0440,0.2204,0.0082,0.0438,0.2204,0.0082,0.0438,0.3000,0.0500,0.0002,0,-1.3605,-121.0000,-0.0152,-1.3605,-121.0000,-0.0152
-35.8981,16.3258,-5.4285,-0.4800,0.2057,0.1200,0.1200,0.0000,0.0000,0.0813,-0.0358,0.0014,996,1502,1502,1500,1000,1000,1505,1000,1000,1505,1503,1407,1505,0.3396,0.2150,0.0401,-0.0164,-0.0420,0.9876,0.1185,-0.0468,-0.1157,0.0441,0.2204,0.0082,0.0438,0.2204,0.0082,0.0438,0.3000,0.0500,0.0002,0,-1.3605,-121.0000,-0.0152,-1.3605,-121.0000,-0.0152
-35.8564,16.3124,-5.4185,-0.4114,0.2057,0.1200,0.1200,0.0000,0.0000,0.0812,-0.0357,0.0018,998,1504,1502,1501,1000,1000,1505,1000,1000,1505,1503,1407,1505,0.3448,0.0752,-0.0479,-0.0134,-0.0413,0.9882,0.1187,-0.0472,-0.1152,0.0437,0.2204,0.0082,0.0438,0.2204,0.0082,0.0438,0.3000,0.0500,0.0002,0,-1.3605,-121.0000,-0.0152,-1.3605,-121.0000,-0.0152
-35.8145,16.2981,-5.4086,-0.4800,0.2743,0.1200,0.1200,0.0000,0.0000,0.0811,-0.0357,0.0016,996,1502,1502,1500,1000,1000,1505,1000,1000,1505,1503,1407,1505,0.3770,0.0048,-0.0197,-0.0163,-0.0427,0.9882,0.1184,-0.0471,-0.1151,0.0438,0.2204,0.0082,0.0438,0.2204,0.0082,0.0438,0.3000,0.0500,0.0002,0,-1.3605,-121.0000,-0.0152,-1.3605,-121.0000,-0.0152
-35.7726,16.2834,-5.3984,-0.4114,0.2057,0.1200,0.1200,0.0000,0.0000,0.0810,-0.0356,0.0018,996,1502,1502,1500,1000,1000,1505,1000,1000,1505,1503,1407,1505,0.3663,-0.0142,-0.0564,-0.0164,-0.0402,0.9842,0.1184,-0.0472,-0.1148,0.0436,0.2204,0.0082,0.0438,0.2204,0.0082,0.0438,0.3000,0.0500,0.0002,0,-1.3605,-121.0000,-0.0152,-1.3605,-121.0000,-0.0152
-35.7307,16.2687,-5.3883,-0.4114,0.3429,0.1200,0.1200,0.0000,0.0000,0.0809,-0.0356,0.0018,996,1502,1502,1500,1000,1000,1505,1000,1000,1505,1503,1407,1505,0.3601,0.0684,-0.0783,-0.0167,-0.0399,0.9897,0.1184,-0.0471,-0.1147,0.0435,0.2204,0.0082,0.0438,0.2204,0.0082,0.0438,0.3000,0.0500,0.0002,0,-1.3605,-121.0000,-0.0152,-1.3605,-121.0000,-0.0152
-35.6891,16.2535,-5.3777,-0.4114,0.2057,0.1200,0.1200,0.0000,0.0000,0.0808,-0.0355,0.0015,996,1502,1502,1500,1000,1000,1505,1000,1000,1505,1503,1407,1505,0.3095,-0.1838,0.0211,-0.0166,-0.0414,0.9835,0.1178,-0.0469,-0.1148,0.0438,0.2204,0.0082,0.0438,0.2204,0.0082,0.0438,0.3000,0.0500,0.0002,0,-1.3605,-121.0000,-0.0152,-1.3605,-121.0000,-0.0152
-35.6469,16.2378,-5.3661,-0.4114,0.2057,0.1200,0.1200,0.0000,0.0000,0.0807,-0.0355,0.0015,996,1502,1502,1500,1000,1000,1505,1000,1000,1505,1503,1407,1505,0.4463,-0.1213,0.0485,-0.0159,-0.0434,0.9862,0.1176,-0.0467,-0.1147,0.0438,0.2204,0.0082,0.0438,0.2204,0.0082,0.0438,0.3000,0.0500,0.0002,0,-1.3605,-121.0000,-0.0152,-1.3605,-121.0000,-0.0152
-35.6029,16.2221,-5.3543,-0.4114,0.2743,0.1200,0.1200,0.0000,0.0000,0.0805,-0.0354,0.0017,998,1504,1504,1501,1000,1000,1505,1000,1000,1505,1503,1407,1505,0.5940,-0.1178,-0.0564,-0.0163,-0.0422,0.9881,0.1177,-0.0468,-0.1142,0.0433,0.2204,0.0082,0.0438,0.2204,0.0082,0.0438,0.3000,0.0500,0.0002,0,-1.3605,-121.0000,-0.0152,-1.3605,-121.0000,-0.0152
-35.5574,16.2062,-5.3438,-0.4800,0.2743,0.1200,0.1200,0.0000,0.0000,0.0803,-0.0354,0.0019,996,1502,1502,1500,1000,1000,1505,1000,1000,1505,1503,1407,1505,0.7822,-0.0790,-0.0898,-0.0161,-0.0448,0.9844,0.1176,-0.0468,-0.1139,0.0431,0.2204,0.0082,0.0438,0.2204,0.0082,0.0438,0.3000,0.0500,0.0002,0,-1.3605,-121.0000,-0.0152,-1.3605,-121.0000,-0.0152
-35.5109,16.1901,-5.3336,-0.4114,0.2743,0.1200,0.1200,0.0000,0.0000,0.0802,-0.0354,0.0019,996,1502,1502,1500,1000,1000,1505,1000,1000,1505,1503,1407,1505,0.8220,-0.0335,-0.0939,-0.0150,-0.0428,0.9888,0.1175,-0.0467,-0.1137,0.0429,0.2204,0.0082,0.0438,0.2204,0.0082,0.0438,0.3000,0.0500,0.0002,0,-1.3605,-121.0000,-0.0152,-1.3605,-121.0000,-0.0152
-35.4634,16.1744,-5.3239,-0.4114,0.3429,0.1200,0.1200,0.0000,0.0000,0.0800,-0.0354,0.0021,996,1502,1502,1500,1000,1000,1505,1000,1000,1505,1503,1407,1505,0.9984,-0.0259,-0.1625,-0.0134,-0.0429,0.9861,0.1175,-0.0468,-0.1133,0.0426,0.2204,0.0082,0.0438,0.2204,0.0082,0.0438,0.3000,0.0500,0.0002,0,-1.3605,-121.0000,-0.0152,-1.3605,-121.0000,-0.0152
-35.4154,16.1587,-5.3150,-0.4114,0.2057,0.1200,0.1200,0.0000,0.0000,0.0799,-0.0354,0.0020,996,1502,1502,1500,1000,1000,1505,1000,1000,1505,1503,1407,1505,0.9771,0.0521,-0.1480,-0.0144,-0.0409,0.9853,0.1174,-0.0466,-0.1133,0.0425,0.2204,0.0082,0.0438,0.2204,0.0082,0.0438,0.3000,0.0500,0.0002,0,-1.3605,-121.0000,-0.0152,-1.3605,-121.0000,-0.0152
-35.3673,16.1434,-5.3065,-0.4800,0.2743,0.1200,0.1200,0.0000,0.0000,0.0799,-0.0353,0.0021,996,1502,1502,1500,1000,1000,1505,1000,1000,1505,1503,1407,1505,0.8641,0.0644,-0.1686,-0.0188,-0.0404,0.9828,0.1173,-0.0466,-0.1131,0.0424,0.2204,0.0082,0.0438,0.2204,0.0082,0.0438,0.3000,0.0500,0.0002,0,-1.3605,-121.0000,-0.0152,-1.3605,-121.0000,-0.0152
-35.3194,16.1279,-5.2979,-0.4114,0.2743,0.1200,0.1200,0.0000,0.0000,0.0797,-0.0353,0.0021,998,1504,1502,1501,1000,1000,1505,1000,1000,1505,1503,1407,1505,0.9818,-0.0035,-0.1892,-0.0153,-0.0404,0.9863,0.1172,-0.0466,-0.1129,0.0423,0.2204,0.0082,0.0438,0.2204,0.0082,0.0438,0.3000,0.0500,0.0002,0,-1.3605,-121.0000,-0.0152,-1.3605,-121.0000,-0.0152
-35.2717,16.1120,-5.2893,-0.4800,0.1371,0.1200,0.1200,0.0000,0.0000,0.0796,-0.0352,0.0019,996,1502,1502,1500,1000,1000,1505,1000,1000,1505,1503,1407,1505,0.9886,-0.0178,-0.1221,-0.0169,-0.0433,0.9874,0.1168,-0.0463,-0.1129,0.0424,0.2204,0.0082,0.0438,0.2204,0.0082,0.0438,0.3000,0.0500,0.0002,0,-1.3605,-121.0000,-0.0152,-1.3605,-121.0000,-0.0152
-35.2221,16.0962,-5.2798,-0.4114,0.2743,0.1200,0.1200,0.0000,0.0000,0.0794,-0.0352,0.0019,996,1502,1502,1500,1000,1000,1505,1000,1000,1505,1503,1407,1505,1.1829,-0.0113,-0.1296,-0.0146,-0.0412,0.9888,0.1166,-0.0462,-0.1127,0.0423,0.2204,0.0082,0.0438,0.2204,0.0082,0.0438,0.3000,0.0500,0.0002,0,-1.3605,-121.0000,-0.0152,-1.3605,-121.0000,-0.0152
-35.1715,16.0803,-5.2705,-0.4114,0.2057,0.1200,0.1200,0.0000,0.0000,0.0793,-0.0351,0.0020,996,1502,1502,1500,1000,1000,1505,1000,1000,1505,1503,1407,1505,1.2388,-0.0979,-0.1482,-0.0178,-0.0422,0.9814,0.1164,-0.0462,-0.1124,0.0421,0.2204,0.0082,0.0438,0.2204,0.0082,0.0438,0.3000,0.0500,0.0002,0,-1.3605,-121.0000,-0.0152,-1.3605,-121.0000,-0.0152
-35.1201,16.0642,-5.2602,-0.4114,0.2057,0.1200,0.1200,0.0000,0.0000,0.0792,-0.0351,0.0019,996,1502,1502,1500,1000,1000,1505,1000,1000,1505,1503,1407,1505,1.2344,-0.0811,-0.0803,-0.0140,-0.0416,0.9873,0.1162,-0.0459,-0.1124,0.0422,0.2204,0.0082,0.0438,0.2204,0.0082,0.0438,0.3000,0.0500,0.0002,0,-1.3605,-121.0000,-0.0152,-1.3605,-121.0000,-0.0152
-35.0681,16.0473,-5.2501,-0.3429,0.2057,0.1200,0.1200,0.0000,0.0000,0.0790,-0.0350,0.0023,996,1502,1502,1500,1000,1000,1505,1000,1000,1505,1503,1407,1505,1.3171,-0.2249,-0.2181,-0.0184,-0.0442,0.9865,0.1163,-0.0463,-0.1117,0.0417,0.2204,0.0082,0.0438,0.2204,0.0082,0.0438,0.3000,0.0500,0.0002,0,-1.3605,-121.0000,-0.0152,-1.3605,-121.0000,-0.0152
-35.0154,16.0295,-5.2402,-0.4114,0.2057,0.1200,0.1200,0.0000,0.0000,0.0789,-0.0350,0.0023,998,1504,1504,1501,1000,1000,1505,1000,1000,1505,1503,1407,1505,1.3760,-0.2123,-0.2296,-0.0180,-0.0413,0.9822,0.1161,-0.0462,-0.1116,0.0416,0.2204,0.0082,0.0438,0.2204,0.0082,0.0438,0.3000,0.0500,0.0002,0,-1.3605,-121.0000,-0.0152,-1.3605,-121.0000,-0.0152
-34.9630,16.0118,-5.2306,-0.4114,0.2743,0.1200,0.1200,0.0000,0.0000,0.0788,-0.0350,0.0024,996,1502,1502,1500,1000,1000,1505,1000,1000,1505,1503,1407,1505,1.3420,-0.1407,-0.2652,-0.0138,-0.0413,0.9876,0.1162,-0.0463,-0.1113,0.0414,0.2204,0.0082,0.0438,0.2204,0.0082,0.0438,0.3000,0.0500,0.0002,0,-1.3605,-121.0000,-0.0152,-1.3605,-121.0000,-0.0152
-34.9114,15.9942,-5.2213,-0.4114,0.3429,0.1200,0.1200,0.0000,0.0000,0.0787,-0.0349,0.0024,996,1502,1502,1500,1000,1000,1505,1000,1000,1505,1503,1407,1505,1.2081,-0.1958,-0.2501,-0.0164,-0.0400,0.9875,0.1160,-0.0462,-0.1113,0.0415,0.2204,0.0082,0.0438,0.2204,0.0082,0.0438,0.3000,0.0500,0.0002,0,-1.3605,-121.0000,-0.0152,-1.3605,-121.0000,-0.0152
-34.8611,15.9761,-5.2114,-0.4114,0.2743,0.1200,0.1200,0.0000,0.0000,0.0787,-0.0349,0.0023,996,1502,1502,1500,1000,1000,1505,1000,1000,1505,1503,1407,1505,1.1055,-0.1986,-0.2325,-0.0174,-0.0365,0.9905,0.1159,-0.0461,-0.1112,0.0415,0.2204,0.0082,0.0438,0.2204,0.0082,0.0438,0.3000,0.0500,0.0002,0,-1.3605,-121.0000,-0.0152,-1.3605,-121.0000,-0.0152
-34.8119,15.9583,-5.2017,-0.4114,0.2743,0.1200,0.1200,0.0000,0.0000,0.0786,-0.0348,0.0021,996,1502,1502,1500,1000,1000,1505,1000,1000,1505,1503,1407,1505,0.9804,-0.1627,-0.1833,-0.0156,-0.0368,0.9844,0.1156,-0.0459,-0.1113,0.0416,0.2204,0.0082,0.0438,0.2204,0.0082,0.0438,0.3000,0.0500,0.0002,0,-1.3605,-121.0000,-0.0152,-1.3605,-121.0000,-0.0152
-34.7642,15.9421,-5.1917,-0.4114,0.2057,0.1200,0.1200,0.0000,0.0000,0.0786,-0.0348,0.0019,996,1502,1502,1500,1000,1000,1505,1000,1000,1505,1503,1407,1505,0.8143,-0.0793,-0.0858,-0.0145,-0.0376,0.9831,0.1153,-0.0456,-0.1115,0.0419,0.2204,0.0082,0.0438,0.2204,0.0082,0.0438,0.3000,0.0500,0.0002,0,-1.3605,-121.0000,-0.0152,-1.3605,-121.0000,-0.0152
-34.7188,15.9267,-5.1819,-0.4800,0.2057,0.1200,0.1200,0.0000,0.0000,0.0786,-0.0348,0.0017,998,1504,1504,1501,1000,1000,1505,1000,1000,1505,1503,1407,1505,0.6274,0.0150,-0.0498,-0.0161,-0.0390,0.9873,0.1151,-0.0454,-0.1117,0.0420,0.2204,0.0082,0.0438,0.2204,0.0082,0.0438,0.3000,0.0500,0.0002,0,-1.3605,-121.0000,-0.0152,-1.3605,-121.0000,-0.0152
-34.6755,15.9114,-5.1713,-0.4114,0.2057,0.1200,0.1200,0.0000,0.0000,0.0786,-0.0348,0.0014,996,1502,1502,1500,1000,1000,1505,1000,1000,1505,1503,1407,1505,0.3751,-0.0621,0.0416,-0.0178,-0.0386,0.9902,0.1148,-0.0452,-0.1119,0.0424,0.2204,0.0082,0.0438,0.2204,0.0082,0.0438,0.3000,0.0500,0.0002,0,-1.3605,-121.0000,-0.0152,-1.3605,-121.0000,-0.0152
-34.6333,15.8962,-5.1594,-0.4114,0.3429,0.1200,0.1200,0.0000,0.0000,0.0785,-0.0347,0.0013,996,1502,1502,1500,1000,1000,1505,1000,1000,1505,1503,1407,1505,0.2399,-0.0850,0.0784,-0.0165,-0.0366,0.9821,0.1146,-0.0451,-0.1119,0.0425,0.2204,0.0082,0.0438,0.2204,0.0082,0.0438,0.3000,0.0500,0.0002,0,-1.3605,-121.0000,-0.0152,-1.3605,-121.0000,-0.0152
-34.5938,15.8805,-5.1475,-0.4800,0.2743,0.1200,0.1200,0.0000,0.0000,0.0786,-0.0347,0.0015,996,1502,1502,1500,1000,1000,1505,1000,1000,1505,1503,1407,1505,-0.0489,-0.0489,0.0362,-0.0154,-0.0379,0.9816,0.1148,-0.0454,-0.1118,0.0424,0.2204,0.0082,0.0438,0.2204,0.0082,0.0438,0.3000,0.0500,0.0002,0,-1.3605,-121.0000,-0.0152,-1.3605,-121.0000,-0.0152
-34.5566,15.8648,-5.1357,-0.4114,0.2743,0.1200,0.1200,0.0000,0.0000,0.0786,-0.0346,0.0015,996,1502,1502,1500,1000,1000,1505,1000,1000,1505,1503,1407,1505,-0.2420,-0.1270,0.0288,-0.0146,-0.0348,0.9897,0.1148,-0.0455,-0.1117,0.0424,0.2204,0.0082,0.0438,0.2204,0.0082,0.0438,0.3000,0.0500,0.0002,0,-1.3605,-121.0000,-0.0152,-1.3605,-121.0000,-0.0152
-34.5220,15.8487,-5.1246,-0.4800,0.3429,0.1200,0.1200,0.0000,0.0000,0.0786,-0.0346,0.0017,996,1502,1502,1500,1000,1000,1505,1000,1000,1505,1503,1407,1505,-0.5051,-0.1782,-0.0312,-0.0135,-0.0378,0.9863,0.1149,-0.0457,-0.1116,0.0424,0.2204,0.0082,0.0438,0.2204,0.0082,0.0438,0.3000,0.0500,0.0002,0,-1.3605,-121.0000,-0.0152,-1.3605,-121.0000,-0.0152
-34.4889,15.8325,-5.1132,-0.4800,0.3429,0.1200,0.1200,0.0000,0.0000,0.0786,-0.0346,0.0016,998,1504,1504,1501,1000,1000,1505,1000,1000,1505,1503,1407,1505,-0.6047,-0.1400,0.0180,-0.0160,-0.0381,0.9888,0.1147,-0.0456,-0.1116,0.0425,0.2204,0.0082,0.0438,0.2204,0.0082,0.0438,0.3000,0.0500,0.0002,0,-1.3605,-121.0000,-0.0152,-1.3605,-121.0000,-0.0152
-34.4576,15.8172,-5.1020,-0.4800,0.4800,0.1200,0.1200,0.0000,0.0000,0.0786,-0.0346,0.0011,996,1502,1502,1500,1000,1000,1505,1000,1000,1505,1503,1407,1505,-0.7978,-0.0015,0.1354,-0.0150,-0.0380,0.9890,0.1143,-0.0451,-0.1121,0.0429,0.2204,0.0082,0.0438,0.2204,0.0082,0.0438,0.3000,0.0500,0.0002,0,-1.3605,-121.0000,-0.0152,-1.3605,-121.0000,-0.0152
-34.4282,15.8033,-5.0905,-0.6171,0.3429,0.1200,0.1200,0.0000,0.0000,0.0786,-0.0346,0.0011,996,1502,1502,1500,1000,1000,1505,1000,1000,1505,1503,1407,1505,-0.9072,0.0204,0.1450,-0.0137,-0.0392,0.9870,0.1143,-0.0451,-0.1121,0.0429,0.2204,0.0082,0.0438,0.2204,0.0082,0.0438,0.3000,0.0500,0.0002,0,-1.3605,-121.0000,-0.0152,-1.3605,-121.0000,-0.0152
-34.3991,15.7895,-5.0781,-0.4800,0.4114,0.1200,0.1200,0.0000,0.0000,0.0786,-0.0345,0.0010,996,1502,1502,1500,1000,1000,1505,1000,1000,1505,1503,1407,1505,-0.9888,0.0251,0.1946,-0.0168,-0.0370,0.9844,0.1141,-0.0450,-0.1121,0.0430,0.2204,0.0082,0.0438,0.2204,0.0082,0.0438,0.3000,0.0500,0.0002,0,-1.3605,-121.0000,-0.0152,-1.3605,-121.0000,-0.0152
-34.3710,15.7759,-5.0660,-0.6171,0.2057,0.1200,0.1200,0.0000,0.0000,0.0785,-0.0345,0.0011,996,1502,1502,1500,1000,1000,1505,1000,1000,1505,1503,1407,1505,-1.0776,0.0151,0.1551,-0.0147,-0.0385,0.9874,0.1142,-0.0452,-0.1119,0.0429,0.2204,0.0082,0.0438,0.2204,0.0082,0.0438,0.3000,0.0500,0.0002,0,-1.3605,-121.0000,-0.0152,-1.3605,-121.0000,-0.0152
-34.3427,15.7613,-5.0538,-0.5486,0.4114,0.1200,0.1200,0.0000,0.0000,0.0784,-0.0345,0.0010,996,1502,1502,1500,1000,1000,1505,1000,1000,1505,1503,1407,1505,-0.8879,-0.0408,0.1778,-0.0147,-0.0440,0.9870,0.1139,-0.0449,-0.1118,0.0429,0.2204,0.0082,0.0438,0.2204,0.0082,0.0438,0.3000,0.0500,0.0002,0,-1.3605,-121.0000,-0.0152,-1.3605,-121.0000,-0.0152
-34.3124,15.7465,-5.0414,-0.4800,0.4114,0.1200,0.1200,0.0000,0.0000,0.0783,-0.0344,0.0012,998,1504,1504,1501,1000,1000,1505,1000,1000,1505,1503,1407,1505,-0.7425,-0.0693,0.1201,-0.0151,-0.0425,0.9828,0.1139,-0.0451,-0.1114,0.0426,0.2204,0.0082,0.0438,0.2204,0.0082,0.0438,0.3000,0.0500,0.0002,0,-1.3605,-121.0000,-0.0152,-1.3605,-121.0000,-0.0152
-34.2805,15.7309,-5.0292,-0.4800,0.4114,0.1200,0.1200,0.0000,0.0000,0.0781,-0.0343,0.0013,996,1502,1502,1500,1000,1000,1505,1000,1000,1505,1503,1407,1505,-0.4930,-0.1645,0.1067,-0.0156,-0.0443,0.9896,0.1137,-0.0451,-0.1111,0.0424,0.2204,0.0082,0.0438,0.2204,0.0082,0.0438,0.3000,0.0500,0.0002,0,-1.3605,-121.0000,-0.0152,-1.3605,-121.0000,-0.0152
-34.2446,15.7147,-5.0165,-0.4800,0.4114,0.1200,0.1200,0.0000,0.0000,0.0779,-0.0343,0.0013,996,1502,1502,1500,1000,1000,1505,1000,1000,1505,1503,1407,1505,-0.2254,-0.1707,0.0800,-0.0178,-0.0444,0.9824,0.1135,-0.0449,-0.1109,0.0423,0.2204,0.0082,0.0438,0.2204,0.0082,0.0438,0.3000,0.0500,0.0002,0,-1.3605,-121.0000,-0.0152,-1.3605,-121.0000,-0.0152
-34.2068,15.6975,-5.0041,-0.5486,0.4800,0.1200,0.1200,0.0000,0.0000,0.0777,-0.0342,0.0016,996,1502,1502,1500,1000,1000,1505,1000,1000,1505,1503,1407,1505,0.0143,-0.2768,0.0016,-0.0154,-0.0438,0.9906,0.1135,-0.0451,-0.1103,0.0419,0.2204,0.0082,0.0438,0.2204,0.0082,0.0438,0.3000,0.0500,0.0002,0,-1.3605,-121.0000,-0.0152,-1.3605,-121.0000,-0.0152
-34.1669,15.6808,-4.9926,-0.4800,0.4800,0.1200,0.1200,0.0000,0.0000,0.0775,-0.0342,0.0016,996,1502,1502,1500,1000,1000,1505,1000,1000,1505,1503,1407,1505,0.2294,-0.1626,0.0046,-0.0141,-0.0453,0.9874,0.1134,-0.0449,-0.1101,0.0417,0.2204,0.0082,0.0438,0.2204,0.0082,0.0438,0.3000,0.0500,0.0002,0,-1.3605,-121.0000,-0.0152,-1.3605,-121.0000,-0.0152
-34.1248,15.6643,-4.9825,-0.5486,0.4800,0.1200,0.1200,0.0000,0.0000,0.0774,-0.0342,0.0019,996,1502,1502,1500,1000,1000,1505,1000,1000,1505,1503,1407,1505,0.3610,-0.0398,-0.1012,-0.0140,-0.0448,0.9894,0.1135,-0.0450,-0.1097,0.0412,0.2204,0.0082,0.0438,0.2204,0.0082,0.0438,0.3000,0.0500,0.0002,0,-1.3605,-121.0000,-0.0152,-1.3605,-121.0000,-0.0152
-34.0826,15.6483,-4.9732,-0.5486,0.4800,0.1200,0.1200,0.0000,0.0000,0.0772,-0.0342,0.0019,998,1504,1504,1501,1000,1000,1505,1000,1000,1505,1503,1407,1505,0.4281,0.0346,-0.1216,-0.0153,-0.0406,0.9849,0.1134,-0.0449,-0.1095,0.0411,0.2204,0.0082,0.0438,0.2204,0.0082,0.0438,0.3000,0.0500,0.0002,0,-1.3605,-121.0000,-0.0152,-1.3605,-121.0000,-0.0152
-34.0404,15.6334,-4.9644,-0.5486,0.4114,0.1200,0.1200,0.0000,0.0000,0.0772,-0.0343,0.0019,996,1502,1502,1500,1000,1000,1505,1000,1000,1505,1503,1407,1505,0.4095,0.1771,-0.1222,-0.0148,-0.0409,0.9859,0.1134,-0.0448,-0.1095,0.0409,0.2204,0.0082,0.0438,0.2204,0.0082,0.0438,0.3000,0.0500,0.0002,0,-1.3605,-121.0000,-0.0152,-1.3605,-121.0000,-0.0152
-33.9989,15.6186,-4.9561,-0.4800,0.4114,0.1200,0.1200,0.0000,0.0000,0.0771,-0.0342,0.0020,996,1502,1502,1500,1000,1000,1505,1000,1000,1505,1503,1407,1505,0.2981,0.1201,-0.1367,-0.0164,-0.0389,0.9842,0.1134,-0.0449,-0.1093,0.0409,0.2204,0.0082,0.0438,0.2204,0.0082,0.0438,0.3000,0.0500,0.0002,0,-1.3605,-121.0000,-0.0152,-1.3605,-121.0000,-0.0152
-33.9579,15.6039,-4.9473,-0.5486,0.5486,0.1200,0.1200,0.0000,0.0000,0.0770,-0.0342,0.0019,996,1502,1502,1500,1000,1000,1505,1000,1000,1505,1503,1407,1505,0.2685,0.0874,-0.0981,-0.0156,-0.0387,0.9852,0.1131,-0.0448,-0.1093,0.0410,0.2204,0.0082,0.0438,0.2204,0.0082,0.0438,0.3000,0.0500,0.0002,0,-1.3605,-121.0000,-0.0152,-1.3605,-121.0000,-0.0152
-33.9173,15.5889,-4.9373,-0.4800,0.4800,0.1200,0.1200,0.0000,0.0000,0.0770,-0.0341,0.0015,996,1502,1502,1500,1000,1000,1505,1000,1000,1505,1503,1407,1505,0.0857,-0.0492,0.0265,-0.0182,-0.0389,0.9855,0.1126,-0.0445,-0.1096,0.0414,0.2204,0.0082,0.0438,0.2204,0.0082,0.0438,0.3000,0.0500,0.0002,0,-1.3605,-121.0000,-0.0152,-1.3605,-121.0000,-0.0152
-33.8783,15.5730,-4.9258,-0.4800,0.4800,0.1200,0.1200,0.0000,0.0000,0.0770,-0.0340,0.0014,996,1502,1502,1500,1000,1000,1505,1000,1000,1505,1503,1407,1505,-0.0419,-0.2320,0.0513,-0.0177,-0.0435,0.9914,0.1124,-0.0445,-0.1095,0.0416,0.2204,0.0082,0.0438,0.2204,0.0082,0.0438,0.3000,0.0500,0.0002,0,-1.3605,-121.0000,-0.0152,-1.3605,-121.0000,-0.0152
-33.8407,15.5571,-4.9135,-0.5486,0.4800,0.1200,0.1200,0.0000,0.0000,0.0770,-0.0340,0.0010,998,1504,1504,1501,1000,1000,1505,1000,1000,1505,1503,1407,1505,-0.2459,-0.0920,0.1714,-0.0119,-0.0384,0.9865,0.1120,-0.0441,-0.1099,0.0420,0.2204,0.0082,0.0438,0.2204,0.0082,0.0438,0.3000,0.0500,0.0002,0,-1.3605,-121.0000,-0.0152,-1.3605,-121.0000,-0.0152
-33.8042,15.5414,-4.9017,-0.5486,0.4114,0.1200,0.1200,0.0000,0.0000,0.0770,-0.0340,0.0016,996,1502,1502,1500,1000,1000,1505,1000,1000,1505,1503,1407,1505,-0.3031,-0.0685,0.0285,-0.0131,-0.0429,0.9853,0.1125,-0.0445,-0.1094,0.0414,0.2204,0.0082,0.0438,0.2204,0.0082,0.0438,0.3000,0.0500,0.0002,0,-1.3605,-121.0000,-0.0152,-1.3605,-121.0000,-0.0152
-33.7684,15.5265,-4.8913,-0.5486,0.4114,0.1200,0.1200,0.0000,0.0000,0.0769,-0.0340,0.0017,996,1502,1502,1500,1000,1000,1505,1000,1000,1505,1503,1407,1505,-0.2581,0.0615,-0.0270,-0.0148,-0.0418,0.9862,0.1125,-0.0445,-0.1092,0.0412,0.2204,0.0082,0.0438,0.2204,0.0082,0.0438,0.3000,0.0500,0.0002,0,-1.3605,-121.0000,-0.0152,-1.3605,-121.0000,-0.0152
-33.7334,15.5125,-4.8818,-0.5486,0.4800,0.1200,0.1200,0.0000,0.0000,0.0768,-0.0341,0.0015,996,1502,1502,1500,1000,1000,1505,1000,1000,1505,1503,1407,1505,-0.3026,0.3082,0.0345,-0.0155,-0.0421,0.9830,0.1123,-0.0442,-0.1094,0.0413,0.2204,0.0082,0.0438,0.2204,0.0082,0.0438,0.3000,0.0500,0.0002,0,-1.3605,-121.0000,-0.0152,-1.3605,-121.0000,-0.0152
-33.6978,15.5001,-4.8730,-0.5486,0.4114,0.1200,0.1200,0.0000,0.0000,0.0767,-0.0341,0.0016,996,1502,1502,1500,1000,1000,1505,1000,1000,1505,1503,1407,1505,-0.2996,0.3499,0.0135,-0.0139,-0.0400,0.9857,0.1123,-0.0442,-0.1092,0.0411,0.2204,0.0082,0.0438,0.2204,0.0082,0.0438,0.3000,0.0500,0.0002,0,-1.3605,-121.0000,-0.0152,-1.3605,-121.0000,-0.0152
-33.6623,15.4877,-4.8649,-0.6171,0.3429,0.1200,0.1200,0.0000,0.0000,0.0766,-0.0340,0.0015,996,1502,1502,1500,1000,1000,1505,1000,1000,1505,1503,1407,1505,-0.2045,0.2188,0.0090,-0.0169,-0.0397,0.9868,0.1121,-0.0441,-0.1091,0.0411,0.2204,0.0082,0.0438,0.2204,0.0082,0.0438,0.3000,0.0500,0.0002,0,-1.3605,-121.0000,-0.0152,-1.3605,-121.0000,-0.0152
-33.6262,15.4737,-4.8553,-0.4800,0.4114,0.1200,0.1200,0.0000,0.0000,0.0765,-0.0338,0.0016,998,1504,1504,1501,1000,1000,1505,1000,1000,1505,1503,1407,1505,-0.1615,-0.0124,-0.0062,-0.0172,-0.0452,0.9862,0.1120,-0.0443,-0.1087,0.0410,0.2204,0.0082,0.0438,0.2204,0.0082,0.0438,0.3000,0.0500,0.0002,0,-1.3605,-121.0000,-0.0152,-1.3605,-121.0000,-0.0152
-33.5893,15.4585,-4.8445,-0.5486,0.4114,0.1200,0.1200,0.0000,0.0000,0.0764,-0.0338,0.0015,996,1502,1502,1500,1000,1000,1505,1000,1000,1505,1503,1407,1505,-0.1927,-0.1153,0.0391,-0.0196,-0.0431,0.9856,0.1116,-0.0441,-0.1087,0.0412,0.2204,0.0082,0.0438,0.2204,0.0082,0.0438,0.3000,0.0500,0.0002,0,-1.3605,-121.0000,-0.0152,-1.3605,-121.0000,-0.0152
-33.5519,15.4423,-4.8336,-0.4800,0.4114,0.1200,0.1200,0.0000,0.0000,0.0763,-0.0337,0.0016,996,1502,1502,1500,1000,1000,1505,1000,1000,1505,1503,1407,1505,-0.1181,-0.1241,-0.0179,-0.0143,-0.0420,0.9829,0.1117,-0.0442,-0.1084,0.0410,0.2204,0.0082,0.0438,0.2204,0.0082,0.0438,0.3000,0.0500,0.0002,0,-1.3605,-121.0000,-0.0152,-1.3605,-121.0000,-0.0152
-33.5143,15.4254,-4.8223,-0.5486,0.4800,0.1200,0.1200,0.0000,0.0000,0.0762,-0.0337,0.0015,996,1502,1502,1500,1000,1000,1505,1000,1000,1505,1503,1407,1505,-0.1396,-0.1470,0.0205,-0.0161,-0.0407,0.9870,0.1114,-0.0441,-0.1084,0.0411,0.2204,0.0082,0.0438,0.2204,0.0082,0.0438,0.3000,0.0500,0.0002,0,-1.3605,-121.0000,-0.0152,-1.3605,-121.0000,-0.0152
-33.4769,15.4091,-4.8109,-0.4800,0.3429,0.1200,0.1200,0.0000,0.0000,0.0762,-0.0336,0.0014,996,1502,1502,1500,1000,1000,1505,1000,1000,1505,1503,1407,1505,-0.1919,-0.1308,0.0490,-0.0183,-0.0421,0.9933,0.1112,-0.0439,-0.1084,0.0412,0.2204,0.0082,0.0438,0.2204,0.0082,0.0438,0.3000,0.0500,0.0002,0,-1.3605,-121.0000,-0.0152,-1.3605,-121.0000,-0.0152
-33.4395,15.3941,-4.7999,-0.4800,0.3429,0.1200,0.1200,0.0000,0.0000,0.0761,-0.0337,0.0014,996,1502,1502,1500,1000,1000,1505,1000,1000,1505,1503,1407,1505,-0.0881,0.1014,0.0692,-0.0167,-0.0405,0.9912,0.1111,-0.0437,-0.1084,0.0410,0.2204,0.0082,0.0438,0.2204,0.0082,0.0438,0.3000,0.0500,0.0002,0,-1.3605,-121.0000,-0.0152,-1.3605,-121.0000,-0.0152
-33.4022,15.3805,-4.7908,-0.5486,0.4114,0.1200,0.1200,0.0000,0.0000,0.0760,-0.0338,0.0015,998,1504,1504,1501,1000,1000,1505,1000,1000,1505,1503,1407,1505,-0.0848,0.2823,0.0096,-0.0115,-0.0409,0.9855,0.1113,-0.0438,-0.1082,0.0407,0.2204,0.0082,0.0438,0.2204,0.0082,0.0438,0.3000,0.0500,0.0002,0,-1.3605,-121.0000,-0.0152,-1.3605,-121.0000,-0.0152
-33.3644,15.3676,-4.7824,-0.4800,0.3429,0.1200,0.1200,0.0000,0.0000,0.0758,-0.0338,0.0018,996,1502,1502,1500,1000,1000,1505,1000,1000,1505,1503,1407,1505,0.0302,0.3297,-0.0504,-0.0140,-0.0432,0.9878,0.1114,-0.0439,-0.1078,0.0403,0.2204,0.0082,0.0438,0.2204,0.0082,0.0438,0.3000,0.0500,0.0002,0,-1.3605,-121.0000,-0.0152,-1.3605,-121.0000,-0.0152
-33.3263,15.3551,-4.7747,-0.4800,0.4114,0.1200,0.1200,0.0000,0.0000,0.0757,-0.0337,0.0016,996,1502,1502,1500,1000,1000,1505,1000,1000,1505,1503,1407,1505,0.0933,0.3582,0.0029,-0.0182,-0.0422,0.9880,0.1111,-0.0436,-0.1079,0.0404,0.2204,0.0082,0.0438,0.2204,0.0082,0.0438,0.3000,0.0500,0.0002,0,-1.3605,-121.0000,-0.0152,-1.3605,-121.0000,-0.0152
-33.2871,15.3421,-4.7666,-0.4800,0.3429,0.1200,0.1200,0.0000,0.0000,0.0756,-0.0336,0.0019,996,1502,1502,1500,1000,1000,1505,1000,1000,1505,1503,1407,1505,0.1080,0.1853,-0.1054,-0.0167,-0.0428,0.9840,0.1112,-0.0439,-0.1073,0.0401,0.2204,0.0082,0.0438,0.2204,0.0082,0.0438,0.3000,0.0500,0.0002,0,-1.3605,-121.0000,-0.0152,-1.3605,-121.0000,-0.0152
-33.2464,15.3276,-4.7580,-0.4800,0.3429,0.1200,0.1200,0.0000,0.0000,0.0755,-0.0336,0.0018,996,1502,1502,1500,1000,1000,1505,1000,1000,1505,1503,1407,1505,0.2854,0.0775,-0.0852,-0.0185,-0.0443,0.9877,0.1108,-0.0437,-0.1072,0.0401,0.2204,0.0082,0.0438,0.2204,0.0082,0.0438,0.3000,0.0500,0.0002,0,-1.3605,-121.0000,-0.0152,-1.3605,-121.0000,-0.0152
-33.2040,15.3122,-4.7484,-0.5486,0.4114,0.1200,0.1200,0.0000,0.0000,0.0753,-0.0335,0.0016,996,1502,1502,1500,1000,1000,1505,1000,1000,1505,1503,1407,1505,0.4501,-0.0054,-0.0237,-0.0162,-0.0455,0.9896,0.1104,-0.0434,-0.1071,0.0402,0.2204,0.0082,0.0438,0.2204,0.0082,0.0438,0.3000,0.0500,0.0002,0,-1.3605,-121.0000,-0.0152,-1.3605,-121.0000,-0.0152
-33.1599,15.2960,-4.7378,-0.4800,0.4114,0.1200,0.1200,0.0000,0.0000,0.0752,-0.0334,0.0016,998,1504,1504,1501,1000,1000,1505,1000,1000,1505,1503,1407,1505,0.5465,-0.1384,0.0151,-0.0161,-0.0435,0.9818,0.1101,-0.0433,-0.1070,0.0402,0.2204,0.0082,0.0438,0.2204,0.0082,0.0438,0.3000,0.0500,0.0002,0,-1.3605,-121.0000,-0.0152,-1.3605,-121.0000,-0.0152
-33.1146,15.2797,-4.7276,-0.5486,0.2743,0.1200,0.1200,0.0000,0.0000,0.0750,-0.0334,0.0016,996,1502,1502,1500,1000,1000,1505,1000,1000,1505,1503,1407,1505,0.7046,-0.0490,-0.0163,-0.0154,-0.0436,0.9871,0.1100,-0.0432,-0.1067,0.0400,0.2204,0.0082,0.0438,0.2204,0.0082,0.0438,0.3000,0.0500,0.0002,0,-1.3605,-121.0000,-0.0152,-1.3605,-121.0000,-0.0152
-33.0677,15.2631,-4.7182,-0.4800,0.4114,0.1200,0.1200,0.0000,0.0000,0.0748,-0.0333,0.0020,996,1502,1502,1500,1000,1000,1505,1000,1000,1505,1503,1407,1505,0.8608,-0.0795,-0.1183,-0.0098,-0.0439,0.9882,0.1101,-0.0434,-0.1062,0.0395,0.2204,0.0082,0.0438,0.2204,0.0082,0.0438,0.3000,0.0500,0.0002,0,-1.3605,-121.0000,-0.0152,-1.3605,-121.0000,-0.0152
-33.0190,15.2470,-4.7093,-0.4114,0.3429,0.1200,0.1200,0.0000,0.0000,0.0746,-0.0334,0.0020,996,1502,1502,1500,1000,1000,1505,1000,1000,1505,1503,1407,1505,1.1177,0.1145,-0.1344,-0.0115,-0.0436,0.9839,0.1100,-0.0432,-0.1060,0.0392,0.2204,0.0082,0.0438,0.2204,0.0082,0.0438,0.3000,0.0500,0.0002,0,-1.3605,-121.0000,-0.0152,-1.3605,-121.0000,-0.0152
-32.9683,15.2319,-4.7013,-0.4800,0.2743,0.1200,0.1200,0.0000,0.0000,0.0744,-0.0334,0.0023,996,1502,1502,1500,1000,1000,1505,1000,1000,1505,1503,1407,1505,1.2524,0.1065,-0.2046,-0.0159,-0.0445,0.9828,0.1100,-0.0433,-0.1055,0.0388,0.2204,0.0082,0.0438,0.2204,0.0082,0.0438,0.3000,0.0500,0.0002,0,-1.3605,-121.0000,-0.0152,-1.3605,-121.0000,-0.0152
-32.9166,15.2164,-4.6942,-0.4800,0.3429,0.1200,0.1200,0.0000,0.0000,0.0743,-0.0333,0.0022,996,1502,1502,1500,1000,1000,1505,1000,1000,1505,1503,1407,1505,1.3716,0.1640,-0.2008,-0.0149,-0.0408,0.9872,0.1098,-0.0431,-0.1054,0.0388,0.2204,0.0082,0.0438,0.2204,0.0082,0.0438,0.3000,0.0500,0.0002,0,-1.3605,-121.0000,-0.0152,-1.3605,-121.0000,-0.0152
-32.8636,15.2014,-4.6869,-0.4800,0.2743,0.1200,0.1200,0.0000,0.0000,0.0741,-0.0333,0.0022,998,1504,1504,1501,1000,1000,1505,1000,1000,1505,1503,1407,1505,1.4679,0.1219,-0.2124,-0.0177,-0.0451,0.9871,0.1096,-0.0430,-0.1052,0.0386,0.2204,0.0082,0.0438,0.2204,0.0082,0.0438,0.3000,0.0500,0.0002,0,-1.3605,-121.0000,-0.0152,-1.3605,-121.0000,-0.0152
-32.8094,15.1856,-4.6793,-0.4114,0.3429,0.1200,0.1200,0.0000,0.0000,0.0739,-0.0332,0.0023,996,1502,1502,1500,1000,1000,1505,1000,1000,1505,1503,1407,1505,1.5879,0.0293,-0.2316,-0.0179,-0.0424,0.9858,0.1094,-0.0430,-0.1049,0.0384,0.2204,0.0082,0.0438,0.2204,0.0082,0.0438,0.3000,0.0500,0.0002,0,-1.3605,-121.0000,-0.0152,-1.3605,-121.0000,-0.0152
-32.7541,15.1698,-4.6716,-0.4800,0.2057,0.1200,0.1200,0.0000,0.0000,0.0738,-0.0332,0.0023,996,1502,1502,1500,1000,1000,1505,1000,1000,1505,1503,1407,1505,1.6243,0.1114,-0.2189,-0.0170,-0.0408,0.9946,0.1093,-0.0428,-0.1047,0.0383,0.2204,0.0082,0.0438,0.2204,0.0082,0.0438,0.3000,0.0500,0.0002,0,-1.3605,-121.0000,-0.0152,-1.3605,-121.0000,-0.0152
-32.6983,15.1534,-4.6637,-0.4114,0.3429,0.1200,0.1200,0.0000,0.0000,0.0736,-0.0331,0.0024,996,1502,1502,1500,1000,1000,1505,1000,1000,1505,1503,1407,1505,1.6963,-0.0213,-0.2520,-0.0185,-0.0436,0.9845,0.1091,-0.0429,-0.1044,0.0381,0.2204,0.0082,0.0438,0.2204,0.0082,0.0438,0.3000,0.0500,0.0002,0,-1.3605,-121.0000,-0.0152,-1.3605,-121.0000,-0.0152
-32.6422,15.1360,-4.6561,-0.4800,0.3429,0.1200,0.1200,0.0000,0.0000,0.0735,-0.0331,0.0024,996,1502,1502,1500,1000,1000,1505,1000,1000,1505,1503,1407,1505,1.7046,-0.0661,-0.2746,-0.0162,-0.0397,0.9867,0.1090,-0.0428,-0.1042,0.0380,0.2204,0.0082,0.0438,0.2204,0.0082,0.0438,0.3000,0.0500,0.0002,0,-1.3605,-121.0000,-0.0152,-1.3605,-121.0000,-0.0152
-32.5856,15.1187,-4.6477,-0.4114,0.2743,0.1200,0.1200,0.0000,0.0000,0.0734,-0.0330,0.0022,996,1502,1502,1500,1000,1000,1505,1000,1000,1505,1503,1407,1505,1.7336,-0.0927,-0.2053,-0.0116,-0.0388,0.9937,0.1086,-0.0426,-0.1041,0.0381,0.2204,0.0082,0.0438,0.2204,0.0082,0.0438,0.3000,0.0500,0.0002,0,-1.3605,-121.0000,-0.0152,-1.3605,-121.0000,-0.0152
-32.5293,15.1010,-4.6394,-0.4800,0.3429,0.1200,0.1200,0.0000,0.0000,0.0733,-0.0330,0.0023,998,1504,1504,1501,1000,1000,1505,1000,1000,1505,1503,1407,1505,1.7228,-0.0755,-0.2319,-0.0146,-0.0392,0.9837,0.1085,-0.0426,-0.1039,0.0380,0.2204,0.0082,0.0438,0.2204,0.0082,0.0438,0.3000,0.0500,0.0002,0,-1.3605,-121.0000,-0.0152,-1.3605,-121.0000,-0.0152
-32.4724,15.0841,-4.6314,-0.4114,0.3429,0.1200,0.1200,0.0000,0.0000,0.0731,-0.0330,0.0022,996,1502,1502,1500,1000,1000,1505,1000,1000,1505,1503,1407,1505,1.8433,0.0338,-0.2222,-0.0134,-0.0387,0.9901,0.1083,-0.0423,-0.1039,0.0379,0.2204,0.0082,0.0438,0.2204,0.0082,0.0438,0.3000,0.0500,0.0002,0,-1.3605,-121.0000,-0.0152,-1.3605,-121.0000,-0.0152
-32.4136,15.0676,-4.6229,-0.4114,0.3429,0.1200,0.1200,0.0000,0.0000,0.0728,-0.0329,0.0023,996,1502,1502,1500,1000,1000,1505,1000,1000,1505,1503,1407,1505,2.0862,-0.0333,-0.2250,-0.0158,-0.0417,0.9830,0.1081,-0.0422,-0.1035,0.0376,0.2204,0.0082,0.0438,0.2204,0.0082,0.0438,0.3000,0.0500,0.0002,0,-1.3605,-121.0000,-0.0152,-1.3605,-121.0000,-0.0152
-32.3524,15.0503,-4.6148,-0.4114,0.2743,0.1200,0.1200,0.0000,0.0000,0.0726,-0.0329,0.0024,996,1502,1502,1500,1000,1000,1505,1000,1000,1505,1503,1407,1505,2.2875,-0.0321,-0.2673,-0.0122,-0.0423,0.9892,0.1079,-0.0421,-0.1031,0.0373,0.2204,0.0082,0.0438,0.2204,0.0082,0.0438,0.3000,0.0500,0.0002,0,-1.3605,-121.0000,-0.0152,-1.3605,-121.0000,-0.0152
-32.2883,15.0329,-4.6073,-0.4800,0.3429,0.1200,0.1200,0.0000,0.0000,0.0723,-0.0329,0.0023,996,1502,1502,1500,1000,1000,1505,1000,1000,1505,1503,1407,1505,2.6351,-0.0041,-0.2582,-0.0167,-0.0421,0.9915,0.1075,-0.0418,-0.1029,0.0371,0.2204,0.0082,0.0438,0.2204,0.0082,0.0438,0.3000,0.0500,0.0002,0,-1.3605,-121.0000,-0.0152,-1.3605,-121.0000,-0.0152
-32.2205,15.0149,-4.5991,-0.4800,0.3429,0.1200,0.1200,0.0000,0.0000,0.0721,-0.0328,0.0026,996,1502,1502,1500,1000,1000,1505,1000,1000,1505,1503,1407,1505,2.9124,-0.0920,-0.3145,-0.0185,-0.0436,0.9915,0.1074,-0.0419,-0.1022,0.0367,0.2204,0.0082,0.0438,0.2204,0.0082,0.0438,0.3000,0.0500,0.0002,0,-1.3605,-121.0000,-0.0152,-1.3605,-121.0000,-0.0152
-32.1490,14.9953,-4.5919,-0.4114,0.3429,0.1200,0.1200,0.0000,0.0000,0.0717,-0.0327,0.0029,998,1504,1504,1501,1000,1000,1505,1000,1000,1505,1503,1407,1505,3.3839,-0.1781,-0.4416,-0.0167,-0.0451,0.9844,0.1073,-0.0419,-0.1015,0.0360,0.2204,0.0082,0.0438,0.2204,0.0082,0.0438,0.3000,0.0500,0.0002,0,-1.3605,-121.0000,-0.0152,-1.3605,-121.0000,-0.0152
-32.0732,14.9752,-4.5855,-0.4800,0.3429,0.1200,0.1200,0.0000,0.0000,0.0713,-0.0327,0.0030,996,1502,1502,1500,1000,1000,1505,1000,1000,1505,1503,1407,1505,3.8793,-0.1349,-0.4732,-0.0165,-0.0443,0.9857,0.1070,-0.0416,-0.1010,0.0356,0.2204,0.0082,0.0438,0.2204,0.0082,0.0438,0.3000,0.0500,0.0002,0,-1.3605,-121.0000,-0.0152,-1.3605,-121.0000,-0.0152
-31.9926,14.9549,-4.5797,-0.4114,0.2743,0.1200,0.1200,0.0000,0.0000,0.0710,-0.0326,0.0035,996,1502,1502,1500,1000,1000,1505,1000,1000,1505,1503,1407,1505,4.2749,-0.1739,-0.6220,-0.0155,-0.0402,0.9851,0.1071,-0.0418,-0.1001,0.0348,0.2204,0.0082,0.0438,0.2204,0.0082,0.0438,0.3000,0.0500,0.0002,0,-1.3605,-121.0000,-0.0152,-1.3605,-121.0000,-0.0152
-31.9081,14.9342,-4.5746,-0.4114,0.3429,0.1200,0.1200,0.0000,0.0000,0.0706,-0.0326,0.0035,996,1502,1502,1500,1000,1000,1505,1000,1000,1505,1503,1407,1505,4.5861,-0.0813,-0.6059,-0.0154,-0.0412,0.9835,0.1067,-0.0415,-0.0998,0.0346,0.2204,0.0082,0.0438,0.2204,0.0082,0.0438,0.3000,0.0500,0.0002,0,-1.3605,-121.0000,-0.0152,-1.3605,-121.0000,-0.0152
-31.8204,14.9144,-4.5704,-0.4800,0.3429,0.1200,0.1200,0.0000,0.0000,0.0703,-0.0326,0.0036,996,1502,1502,1500,1000,1000,1505,1000,1000,1505,1503,1407,1505,4.8657,0.0423,-0.6687,-0.0154,-0.0374,0.9892,0.1066,-0.0413,-0.0993,0.0341,0.2204,0.0082,0.0438,0.2204,0.0082,0.0438,0.3000,0.0500,0.0002,0,-1.3605,-121.0000,-0.0152,-1.3605,-121.0000,-0.0152
-31.7315,14.8964,-4.5671,-0.4114,0.2743,0.1200,0.1200,0.0000,0.0000,0.0701,-0.0327,0.0035,996,1502,1502,1500,1000,1000,1505,1000,1000,1505,1503,1407,1505,4.9281,0.2726,-0.6150,-0.0128,-0.0332,0.9895,0.1063,-0.0409,-0.0993,0.0339,0.2204,0.0082,0.0438,0.2204,0.0082,0.0438,0.3000,0.0500,0.0002,0,-1.3605,-121.0000,-0.0152,-1.3605,-121.0000,-0.0152
-31.6438,14.8801,-4.5650,-0.4800,0.3429,0.1200,0.1200,0.0000,0.0000,0.0700,-0.0327,0.0037,998,1504,1504,1501,1000,1000,1505,1000,1000,1505,1503,1407,1505,4.7068,0.4443,-0.6900,-0.0161,-0.0288,0.9874,0.1064,-0.0410,-0.0990,0.0335,0.2204,0.0082,0.0438,0.2204,0.0082,0.0438,0.3000,0.0500,0.0002,0,-1.3605,-121.0000,-0.0152,-1.3605,-121.0000,-0.0152
-31.5586,14.8655,-4.5629,-0.5486,0.2743,0.1200,0.1200,0.0000,0.0000,0.0699,-0.0327,0.0032,996,1502,1502,1500,1000,1000,1505,1000,1000,1505,1503,1407,1505,4.4255,0.5450,-0.5320,-0.0126,-0.0273,0.9853,0.1059,-0.0404,-0.0994,0.0340,0.2204,0.0082,0.0438,0.2204,0.0082,0.0438,0.3000,0.0500,0.0002,0,-1.3605,-121.0000,-0.0152,-1.3605,-121.0000,-0.0152
-31.4775,14.8516,-4.5604,-0.4114,0.2743,0.1200,0.1200,0.0000,0.0000,0.0699,-0.0327,0.0031,996,1502,1502,1500,1000,1000,1505,1000,1000,1505,1503,1407,1505,3.9907,0.5374,-0.4799,-0.0166,-0.0233,0.9864,0.1057,-0.0403,-0.0996,0.0341,0.2204,0.0082,0.0438,0.2204,0.0082,0.0438,0.3000,0.0500,0.0002,0,-1.3605,-121.0000,-0.0152,-1.3605,-121.0000,-0.0152
-31.4011,14.8379,-4.5570,-0.4800,0.2057,0.1200,0.1200,0.0000,0.0000,0.0700,-0.0326,0.0027,996,1502,1502,1500,1000,1000,1505,1000,1000,1505,1503,1407,1505,3.4175,0.3548,-0.3685,-0.0178,-0.0255,0.9849,0.1054,-0.0402,-0.0999,0.0347,0.2204,0.0082,0.0438,0.2204,0.0082,0.0438,0.3000,0.0500,0.0002,0,-1.3605,-121.0000,-0.0152,-1.3605,-121.0000,-0.0152
-31.3295,14.8228,-4.5509,-0.4800,0.2743,0.1200,0.1200,0.0000,0.0000,0.0701,-0.0324,0.0023,996,1502,1502,1500,1000,1000,1505,1000,1000,1505,1503,1407,1505,2.9332,0.1000,-0.2231,-0.0176,-0.0236,0.9854,0.1048,-0.0399,-0.1003,0.0354,0.2204,0.0082,0.0438,0.2204,0.0082,0.0438,0.3000,0.0500,0.0002,0,-1.3605,-121.0000,-0.0152,-1.3605,-121.0000,-0.0152
-31.2626,14.8062,-4.5416,-0.4114,0.3429,0.1200,0.1200,0.0000,0.0000,0.0702,-0.0323,0.0017,996,1502,1502,1500,1000,1000,1505,1000,1000,1505,1503,1407,1505,2.3802,-0.1586,-0.0358,-0.0175,-0.0223,0.9894,0.1042,-0.0396,-0.1008,0.0362,0.2204,0.0082,0.0438,0.2204,0.0082,0.0438,0.3000,0.0500,0.0002,0,-1.3605,-121.0000,-0.0152,-1.3605,-121.0000,-0.0152
-31.2009,14.7893,-4.5301,-0.4800,0.2743,0.1200,0.1200,0.0000,0.0000,0.0703,-0.0322,0.0013,998,1504,1502,1501,1000,1000,1505,1000,1000,1505,1503,1407,1505,1.8680,-0.2174,0.1120,-0.0151,-0.0233,0.9884,0.1038,-0.0393,-0.1012,0.0367,0.2204,0.0082,0.0438,0.2204,0.0082,0.0438,0.3000,0.0500,0.0002,0,-1.3605,-121.0000,-0.0152,-1.3605,-121.0000,-0.0152
-31.1435,14.7722,-4.5179,-0.4800,0.2057,0.1200,0.1200,0.0000,0.0000,0.0703,-0.0322,0.0011,996,1502,1502,1500,1000,1000,1505,1000,1000,1505,1503,1407,1505,1.4581,-0.1885,0.1691,-0.0126,-0.0221,0.9892,0.1036,-0.0392,-0.1014,0.0370,0.2204,0.0082,0.0438,0.2204,0.0082,0.0438,0.3000,0.0500,0.0002,0,-1.3605,-121.0000,-0.0152,-1.3605,-121.0000,-0.0152
-31.0915,14.7565,-4.5063,-0.3429,0.2057,0.1200,0.1200,0.0000,0.0000,0.0704,-0.0323,0.0013,996,1502,1502,1500,1000,1000,1505,1000,1000,1505,1503,1407,1505,1.0167,0.0050,0.1054,-0.0162,-0.0262,0.9894,0.1040,-0.0395,-0.1013,0.0368,0.2204,0.0082,0.0438,0.2204,0.0082,0.0438,0.3000,0.0500,0.0002,0,-1.3605,-121.0000,-0.0152,-1.3605,-121.0000,-0.0152
-31.0430,14.7414,-4.4962,-0.4800,0.2743,0.1200,0.1200,0.0000,0.0000,0.0704,-0.0323,0.0016,996,1502,1502,1500,1000,1000,1505,1000,1000,1505,1503,1407,1505,0.7871,0.1046,0.0320,-0.0169,-0.0247,0.9843,0.1042,-0.0397,-0.1011,0.0366,0.2204,0.0082,0.0438,0.2204,0.0082,0.0438,0.3000,0.0500,0.0002,0,-1.3605,-121.0000,-0.0152,-1.3605,-121.0000,-0.0152
-30.9972,14.7272,-4.4868,-0.4114,0.3429,0.1200,0.1200,0.0000,0.0000,0.0704,-0.0322,0.0016,996,1502,1502,1500,1000,1000,1505,1000,1000,1505,1503,1407,1505,0.5902,0.0442,0.0092,-0.0179,-0.0281,0.9877,0.1042,-0.0398,-0.1010,0.0365,0.2204,0.0082,0.0438,0.2204,0.0082,0.0438,0.3000,0.0500,0.0002,0,-1.3605,-121.0000,-0.0152,-1.3605,-121.0000,-0.0152
-30.9523,14.7117,-4.4766,-0.4114,0.3429,0.1200,0.1200,0.0000,0.0000,0.0704,-0.0321,0.0015,996,1502,1502,1500,1000,1000,1505,1000,1000,1505,1503,1407,1505,0.4077,-0.0945,0.0379,-0.0217,-0.0257,0.9911,0.1040,-0.0398,-0.1010,0.0367,0.2204,0.0082,0.0438,0.2204,0.0082,0.0438,0.3000,0.0500,0.0002,0,-1.3605,-121.0000,-0.0152,-1.3605,-121.0000,-0.0152
-30.9089,14.6945,-4.4659,-0.4800,0.2743,0.1200,0.1200,0.0000,0.0000,0.0703,-0.0320,0.0019,998,1504,1504,1501,1000,1000,1505,1000,1000,1505,1503,1407,1505,0.3722,-0.2526,-0.0924,-0.0207,-0.0312,0.9888,0.1042,-0.0402,-0.1004,0.0364,0.2204,0.0082,0.0438,0.2204,0.0082,0.0438,0.3000,0.0500,0.0002,0,-1.3605,-121.0000,-0.0152,-1.3605,-121.0000,-0.0152
-30.8654,14.6757,-4.4549,-0.4800,0.3429,0.1200,0.1200,0.0000,0.0000,0.0702,-0.0319,0.0019,996,1502,1502,1500,1000,1000,1505,1000,1000,1505,1503,1407,1505,0.4245,-0.3271,-0.0846,-0.0185,-0.0296,0.9918,0.1040,-0.0401,-0.1002,0.0363,0.2204,0.0082,0.0438,0.2204,0.0082,0.0438,0.3000,0.0500,0.0002,0,-1.3605,-121.0000,-0.0152,-1.3605,-121.0000,-0.0152
-30.8215,14.6564,-4.4439,-0.4114,0.2743,0.1200,0.1200,0.0000,0.0000,0.0700,-0.0319,0.0017,996,1502,1502,1500,1000,1000,1505,1000,1000,1505,1503,1407,1505,0.4469,-0.3342,-0.0284,-0.0136,-0.0288,0.9866,0.1037,-0.0399,-0.1002,0.0364,0.2204,0.0082,0.0438,0.2204,0.0082,0.0438,0.3000,0.0500,0.0002,0,-1.3605,-121.0000,-0.0152,-1.3605,-121.0000,-0.0152
-30.7776,14.6372,-4.4331,-0.4114,0.3429,0.1200,0.1200,0.0000,0.0000,0.0700,-0.0319,0.0021,996,1502,1502,1500,1000,1000,1505,1000,1000,1505,1503,1407,1505,0.4423,-0.2797,-0.1480,-0.0139,-0.0292,0.9863,0.1039,-0.0401,-0.0998,0.0360,0.2204,0.0082,0.0438,0.2204,0.0082,0.0438,0.3000,0.0500,0.0002,0,-1.3605,-121.0000,-0.0152,-1.3605,-121.0000,-0.0152
-30.7339,14.6192,-4.4231,-0.4800,0.2743,0.1200,0.1200,0.0000,0.0000,0.0699,-0.0319,0.0018,996,1502,1502,1500,1000,1000,1505,1000,1000,1505,1503,1407,1505,0.4366,-0.0948,-0.0565,-0.0125,-0.0291,0.9832,0.1036,-0.0397,-0.1000,0.0361,0.2204,0.0082,0.0438,0.2204,0.0082,0.0438,0.3000,0.0500,0.0002,0,-1.3605,-121.0000,-0.0152,-1.3605,-121.0000,-0.0152
-30.6898,14.6026,-4.4134,-0.4800,0.2057,0.1200,0.1200,0.0000,0.0000,0.0697,-0.0319,0.0018,996,1502,1502,1500,1000,1000,1505,1000,1000,1505,1503,1407,1505,0.4830,-0.0052,-0.0637,-0.0138,-0.0296,0.9863,0.1035,-0.0397,-0.0998,0.0360,0.2204,0.0082,0.0438,0.2204,0.0082,0.0438,0.3000,0.0500,0.0002,0,-1.3605,-121.0000,-0.0152,-1.3605,-121.0000,-0.0152
-30.6453,14.5864,-4.4038,-0.4800,0.3429,0.1200,0.1200,0.0000,0.0000,0.0696,-0.0319,0.0019,998,1504,1502,1501,1000,1000,1505,1000,1000,1505,1503,1407,1505,0.5369,-0.0112,-0.0864,-0.0164,-0.0313,0.9887,0.1034,-0.0396,-0.0996,0.0358,0.2204,0.0082,0.0438,0.2204,0.0082,0.0438,0.3000,0.0500,0.0002,0,-1.3605,-121.0000,-0.0152,-1.3605,-121.0000,-0.0152
-30.5993,14.5703,-4.3939,-0.4800,0.3429,0.1200,0.1200,0.0000,0.0000,0.0695,-0.0318,0.0017,996,1502,1502,1500,1000,1000,1505,1000,1000,1505,1503,1407,1505,0.6632,-0.0429,-0.0213,-0.0176,-0.0311,0.9878,0.1030,-0.0394,-0.0996,0.0359,0.2204,0.0082,0.0438,0.2204,0.0082,0.0438,0.3000,0.0500,0.0002,0,-1.3605,-121.0000,-0.0152,-1.3605,-121.0000,-0.0152
-30.5520,14.5545,-4.3845,-0.4114,0.3429,0.1200,0.1200,0.0000,0.0000,0.0693,-0.0318,0.0019,996,1502,1502,1500,1000,1000,1505,1000,1000,1505,1503,1407,1505,0.8691,0.0533,-0.0713,-0.0186,-0.0305,0.9907,0.1030,-0.0393,-0.0992,0.0356,0.2204,0.0082,0.0438,0.2204,0.0082,0.0438,0.3000,0.0500,0.0002,0,-1.3605,-121.0000,-0.0152,-1.3605,-121.0000,-0.0152
-30.5023,14.5377,-4.3757,-0.4800,0.3429,0.1200,0.1200,0.0000,0.0000,0.0691,-0.0318,0.0022,996,1502,1502,1500,1000,1000,1505,1000,1000,1505,1503,1407,1505,1.1118,-0.0288,-0.1783,-0.0154,-0.0313,0.9834,0.1030,-0.0395,-0.0986,0.0351,0.2204,0.0082,0.0438,0.2204,0.0082,0.0438,0.3000,0.0500,0.0002,0,-1.3605,-121.0000,-0.0152,-1.3605,-121.0000,-0.0152
-30.4502,14.5201,-4.3670,-0.4800,0.2743,0.1200,0.1200,0.0000,0.0000,0.0689,-0.0317,0.0022,996,1502,1502,1500,1000,1000,1505,1000,1000,1505,1503,1407,1505,1.3146,-0.1268,-0.1748,-0.0172,-0.0287,0.9900,0.1027,-0.0394,-0.0983,0.0350,0.2204,0.0082,0.0438,0.2204,0.0082,0.0438,0.3000,0.0500,0.0002,0,-1.3605,-121.0000,-0.0152,-1.3605,-121.0000,-0.0152
-30.3960,14.5017,-4.3587,-0.4800,0.3429,0.1200,0.1200,0.0000,0.0000,0.0686,-0.0317,0.0022,996,1502,1502,1500,1000,1000,1505,1000,1000,1505,1503,1407,1505,1.5504,-0.0748,-0.1926,-0.0202,-0.0318,0.9878,0.1025,-0.0392,-0.0981,0.0348,0.2204,0.0082,0.0438,0.2204,0.0082,0.0438,0.3000,0.0500,0.0002,0,-1.3605,-121.0000,-0.0152,-1.3605,-121.0000,-0.0152
-30.3391,14.4843,-4.3503,-0.5486,0.2057,0.1200,0.1200,0.0000,0.0000,0.0684,-0.0316,0.0021,998,1504,1504,1501,1000,1000,1505,1000,1000,1505,1503,1407,1505,1.8803,-0.0436,-0.1527,-0.0132,-0.0315,0.9827,0.1021,-0.0388,-0.0979,0.0346,0.2204,0.0082,0.0438,0.2204,0.0082,0.0438,0.3000,0.0500,0.0002,0,-1.3605,-121.0000,-0.0152,-1.3605,-121.0000,-0.0152
-30.2804,14.4668,-4.3414,-0.4800,0.4114,0.1200,0.1200,0.0000,0.0000,0.0682,-0.0316,0.0020,996,1502,1502,1500,1000,1000,1505,1000,1000,1505,1503,1407,1505,1.9734,-0.0098,-0.1164,-0.0165,-0.0308,0.9869,0.1018,-0.0386,-0.0978,0.0346,0.2204,0.0082,0.0438,0.2204,0.0082,0.0438,0.3000,0.0500,0.0002,0,-1.3605,-121.0000,-0.0152,-1.3605,-121.0000,-0.0152
-30.2209,14.4496,-4.3325,-0.4800,0.4114,0.1200,0.1200,0.0000,0.0000,0.0681,-0.0316,0.0019,996,1502,1502,1500,1000,1000,1505,1000,1000,1505,1503,1407,1505,1.9236,-0.0340,-0.0881,-0.0169,-0.0266,0.9879,0.1015,-0.0384,-0.0978,0.0346,0.2204,0.0082,0.0438,0.2204,0.0082,0.0438,0.3000,0.0500,0.0002,0,-1.3605,-121.0000,-0.0152,-1.3605,-121.0000,-0.0152
-30.1624,14.4326,-4.3233,-0.4114,0.4114,0.1200,0.1200,0.0000,0.0000,0.0680,-0.0315,0.0019,996,1502,1502,1500,1000,1000,1505,1000,1000,1505,1503,1407,1505,1.7965,-0.0151,-0.0684,-0.0137,-0.0255,0.9848,0.1014,-0.0383,-0.0977,0.0346,0.2204,0.0082,0.0438,0.2204,0.0082,0.0438,0.3000,0.0500,0.0002,0,-1.3605,-121.0000,-0.0152,-1.3605,-121.0000,-0.0152
-30.1049,14.4170,-4.3144,-0.4800,0.4114,0.1200,0.1200,0.0000,0.0000,0.0679,-0.0316,0.0019,996,1502,1502,1500,1000,1000,1505,1000,1000,1505,1503,1407,1505,1.6472,0.1548,-0.0767,-0.0162,-0.0222,0.9884,0.1014,-0.0383,-0.0976,0.0345,0.2204,0.0082,0.0438,0.2204,0.0082,0.0438,0.3000,0.0500,0.0002,0,-1.3605,-121.0000,-0.0152,-1.3605,-121.0000,-0.0152
-30.0498,14.4020,-4.3054,-0.4800,0.3429,0.1200,0.1200,0.0000,0.0000,0.0679,-0.0315,0.0018,996,1502,1502,1500,1000,1000,1505,1000,1000,1505,1503,1407,1505,1.4452,0.1307,-0.0325,-0.0175,-0.0227,0.9918,0.1012,-0.0382,-0.0977,0.0346,0.2204,0.0082,0.0438,0.2204,0.0082,0.0438,0.3000,0.0500,0.0002,0,-1.3605,-121.0000,-0.0152,-1.3605,-121.0000,-0.0152
-29.9965,14.3872,-4.2965,-0.5486,0.4114,0.1200,0.1200,0.0000,0.0000,0.0679,-0.0315,0.0016,998,1504,1504,1501,1000,1000,1505,1000,1000,1505,1503,1407,1505,1.1947,0.1388,0.0063,-0.0171,-0.0223,0.9860,0.1010,-0.0380,-0.0978,0.0348,0.2204,0.0082,0.0438,0.2204,0.0082,0.0438,0.3000,0.0500,0.0002,0,-1.3605,-121.0000,-0.0152,-1.3605,-121.0000,-0.0152
-29.9460,14.3719,-4.2868,-0.4800,0.4800,0.1200,0.1200,0.0000,0.0000,0.0679,-0.0314,0.0016,996,1502,1502,1500,1000,1000,1505,1000,1000,1505,1503,1407,1505,0.9482,0.0721,0.0333,-0.0170,-0.0250,0.9830,0.1009,-0.0380,-0.0978,0.0349,0.2204,0.0082,0.0438,0.2204,0.0082,0.0438,0.3000,0.0500,0.0002,0,-1.3605,-121.0000,-0.0152,-1.3605,-121.0000,-0.0152
-29.8979,14.3562,-4.2771,-0.4800,0.4800,0.1200,0.1200,0.0000,0.0000,0.0679,-0.0314,0.0016,996,1502,1502,1500,1000,1000,1505,1000,1000,1505,1503,1407,1505,0.7242,-0.0277,0.0227,-0.0173,-0.0218,0.9834,0.1008,-0.0381,-0.0977,0.0350,0.2204,0.0082,0.0438,0.2204,0.0082,0.0438,0.3000,0.0500,0.0002,0,-1.3605,-121.0000,-0.0152,-1.3605,-121.0000,-0.0152
-29.8515,14.3403,-4.2673,-0.4800,0.4114,0.1200,0.1200,0.0000,0.0000,0.0678,-0.0314,0.0017,996,1502,1502,1500,1000,1000,1505,1000,1000,1505,1503,1407,1505,0.6274,0.0615,-0.0030,-0.0149,-0.0237,0.9894,0.1009,-0.0381,-0.0975,0.0348,0.2204,0.0082,0.0438,0.2204,0.0082,0.0438,0.3000,0.0500,0.0002,0,-1.3605,-121.0000,-0.0152,-1.3605,-121.0000,-0.0152
-29.8058,14.3254,-4.2577,-0.4114,0.3429,0.1200,0.1200,0.0000,0.0000,0.0678,-0.0314,0.0016,996,1502,1502,1500,1000,1000,1505,1000,1000,1505,1503,1407,1505,0.5372,0.1678,0.0183,-0.0158,-0.0258,0.9883,0.1007,-0.0380,-0.0976,0.0348,0.2204,0.0082,0.0438,0.2204,0.0082,0.0438,0.3000,0.0500,0.0002,0,-1.3605,-121.0000,-0.0152,-1.3605,-121.0000,-0.0152
-29.7605,14.3117,-4.2490,-0.4800,0.4114,0.1200,0.1200,0.0000,0.0000,0.0676,-0.0314,0.0016,996,1502,1502,1500,1000,1000,1505,1000,1000,1505,1503,1407,1505,0.6217,0.3060,0.0184,-0.0142,-0.0259,0.9833,0.1006,-0.0378,-0.0975,0.0346,0.2204,0.0082,0.0438,0.2204,0.0082,0.0438,0.3000,0.0500,0.0002,0,-1.3605,-121.0000,-0.0152,-1.3605,-121.0000,-0.0152
-29.7138,14.2981,-4.2409,-0.4800,0.4114,0.1200,0.1200,0.0000,0.0000,0.0674,-0.0314,0.0018,998,1504,1504,1501,1000,1000,1505,1000,1000,1505,1503,1407,1505,0.8132,0.2857,-0.0202,-0.0178,-0.0294,0.9895,0.1006,-0.0378,-0.0971,0.0343,0.2204,0.0082,0.0438,0.2204,0.0082,0.0438,0.3000,0.0500,0.0002,0,-1.3605,-121.0000,-0.0152,-1.3605,-121.0000,-0.0152
-29.6652,14.2834,-4.2330,-0.4800,0.3429,0.1200,0.1200,0.0000,0.0000,0.0672,-0.0313,0.0020,996,1502,1502,1500,1000,1000,1505,1000,1000,1505,1503,1407,1505,1.0432,0.1690,-0.1116,-0.0157,-0.0253,0.9875,0.1005,-0.0379,-0.0965,0.0340,0.2204,0.0082,0.0438,0.2204,0.0082,0.0438,0.3000,0.0500,0.0002,0,-1.3605,-121.0000,-0.0152,-1.3605,-121.0000,-0.0152
-29.6135,14.2673,-4.2243,-0.4114,0.4114,0.1200,0.1200,0.0000,0.0000,0.0670,-0.0312,0.0018,996,1502,1502,1500,1000,1000,1505,1000,1000,1505,1503,1407,1505,1.3204,0.0584,-0.0509,-0.0151,-0.0306,0.9871,0.1000,-0.0376,-0.0964,0.0340,0.2204,0.0082,0.0438,0.2204,0.0082,0.0438,0.3000,0.0500,0.0002,0,-1.3605,-121.0000,-0.0152,-1.3605,-121.0000,-0.0152
-29.5582,14.2498,-4.2151,-0.4800,0.4114,0.1200,0.1200,0.0000,0.0000,0.0668,-0.0311,0.0018,996,1502,1502,1500,1000,1000,1505,1000,1000,1505,1503,1407,1505,1.6052,-0.1566,-0.0728,-0.0211,-0.0309,0.9904,0.0997,-0.0375,-0.0960,0.0339,0.2204,0.0082,0.0438,0.2204,0.0082,0.0438,0.3000,0.0500,0.0002,0,-1.3605,-121.0000,-0.0152,-1.3605,-121.0000,-0.0152
-29.5003,14.2305,-4.2052,-0.4800,0.2743,0.1200,0.1200,0.0000,0.0000,0.0665,-0.0309,0.0020,996,1502,1502,1500,1000,1000,1505,1000,1000,1505,1503,1407,1505,1.8549,-0.3723,-0.1261,-0.0169,-0.0279,0.9885,0.0995,-0.0376,-0.0954,0.0336,0.2204,0.0082,0.0438,0.2204,0.0082,0.0438,0.3000,0.0500,0.0002,0,-1.3605,-121.0000,-0.0152,-1.3605,-121.0000,-0.0152
-29.4402,14.2109,-4.1951,-0.5486,0.3429,0.1200,0.1200,0.0000,0.0000,0.0663,-0.0310,0.0020,996,1502,1502,1500,1000,1000,1505,1000,1000,1505,1503,1407,1505,2.0048,-0.2380,-0.1107,-0.0170,-0.0263,0.9890,0.0993,-0.0374,-0.0953,0.0334,0.2204,0.0082,0.0438,0.2204,0.0082,0.0438,0.3000,0.0500,0.0002,0,-1.3605,-121.0000,-0.0152,-1.3605,-121.0000,-0.0152
-29.3791,14.1914,-4.1853,-0.4800,0.3429,0.1200,0.1200,0.0000,0.0000,0.0662,-0.0309,0.0020,998,1504,1504,1501,1000,1000,1505,1000,1000,1505,1503,1407,1505,2.0640,-0.3081,-0.1225,-0.0132,-0.0230,0.9907,0.0990,-0.0373,-0.0950,0.0333,0.2204,0.0082,0.0438,0.2204,0.0082,0.0438,0.3000,0.0500,0.0002,0,-1.3605,-121.0000,-0.0152,-1.3605,-121.0000,-0.0152
-29.3184,14.1719,-4.1758,-0.6171,0.2743,0.1200,0.1200,0.0000,0.0000,0.0660,-0.0309,0.0021,996,1502,1502,1500,1000,1000,1505,1000,1000,1505,1503,1407,1505,2.0188,-0.1790,-0.1699,-0.0173,-0.0235,0.9896,0.0990,-0.0373,-0.0948,0.0331,0.2204,0.0082,0.0438,0.2204,0.0082,0.0438,0.3000,0.0500,0.0002,0,-1.3605,-121.0000,-0.0152,-1.3605,-121.0000,-0.0152
-29.2589,14.1540,-4.1673,-0.4800,0.4114,0.1200,0.1200,0.0000,0.0000,0.0660,-0.0309,0.0018,996,1502,1502,1500,1000,1000,1505,1000,1000,1505,1503,1407,1505,1.9310,-0.0153,-0.0802,-0.0169,-0.0191,0.9885,0.0987,-0.0368,-0.0951,0.0332,0.2204,0.0082,0.0438,0.2204,0.0082,0.0438,0.3000,0.0500,0.0002,0,-1.3605,-121.0000,-0.0152,-1.3605,-121.0000,-0.0152
-29.2005,14.1379,-4.1582,-0.5486,0.4114,0.1200,0.1200,0.0000,0.0000,0.0659,-0.0309,0.0020,996,1502,1502,1500,1000,1000,1505,1000,1000,1505,1503,1407,1505,1.7780,0.0264,-0.0877,-0.0157,-0.0209,0.9866,0.0988,-0.0369,-0.0948,0.0330,0.2204,0.0082,0.0438,0.2204,0.0082,0.0438,0.3000,0.0500,0.0002,0,-1.3605,-121.0000,-0.0152,-1.3605,-121.0000,-0.0152
-29.1433,14.1220,-4.1494,-0.4800,0.4114,0.1200,0.1200,0.0000,0.0000,0.0658,-0.0309,0.0019,996,1502,1502,1500,1000,1000,1505,1000,1000,1505,1503,1407,1505,1.6249,0.0479,-0.0696,-0.0151,-0.0209,0.9900,0.0986,-0.0369,-0.0948,0.0330,0.2204,0.0082,0.0438,0.2204,0.0082,0.0438,0.3000,0.0500,0.0002,0,-1.3605,-121.0000,-0.0152,-1.3605,-121.0000,-0.0152
-29.0881,14.1066,-4.1404,-0.4800,0.4114,0.1200,0.1200,0.0000,0.0000,0.0658,-0.0309,0.0017,996,1502,1502,1500,1000,1000,1505,1000,1000,1505,1503,1407,1505,1.4234,0.1184,-0.0042,-0.0152,-0.0221,0.9898,0.0984,-0.0366,-0.0950,0.0332,0.2204,0.0082,0.0438,0.2204,0.0082,0.0438,0.3000,0.0500,0.0002,0,-1.3605,-121.0000,-0.0152,-1.3605,-121.0000,-0.0152
-29.0349,14.0907,-4.1311,-0.5486,0.4800,0.1200,0.1200,0.0000,0.0000,0.0658,-0.0308,0.0016,998,1504,1504,1501,1000,1000,1505,1000,1000,1505,1503,1407,1505,1.1531,0.1189,0.0146,-0.0153,-0.0185,0.9880,0.0983,-0.0366,-0.0950,0.0333,0.2204,0.0082,0.0438,0.2204,0.0082,0.0438,0.3000,0.0500,0.0002,0,-1.3605,-121.0000,-0.0152,-1.3605,-121.0000,-0.0152
-28.9843,14.0750,-4.1217,-0.4800,0.4800,0.1200,0.1200,0.0000,0.0000,0.0658,-0.0308,0.0017,996,1502,1502,1500,1000,1000,1505,1000,1000,1505,1503,1407,1505,0.9352,0.0004,-0.0124,-0.0164,-0.0204,0.9868,0.0982,-0.0367,-0.0948,0.0333,0.2204,0.0082,0.0438,0.2204,0.0082,0.0438,0.3000,0.0500,0.0002,0,-1.3605,-121.0000,-0.0152,-1.3605,-121.0000,-0.0152
-28.9361,14.0576,-4.1121,-0.4800,0.4800,0.1200,0.1200,0.0000,0.0000,0.0658,-0.0307,0.0019,996,1502,1502,1500,1000,1000,1505,1000,1000,1505,1503,1407,1505,0.7283,-0.0569,-0.0809,-0.0140,-0.0175,0.9864,0.0984,-0.0370,-0.0945,0.0332,0.2204,0.0082,0.0438,0.2204,0.0082,0.0438,0.3000,0.0500,0.0002,0,-1.3605,-121.0000,-0.0152,-1.3605,-121.0000,-0.0152
-28.8904,14.0403,-4.1024,-0.4800,0.4800,0.1200,0.1200,0.0000,0.0000,0.0658,-0.0306,0.0018,996,1502,1502,1500,1000,1000,1505,1000,1000,1505,1503,1407,1505,0.4448,-0.0738,-0.0292,-0.0205,-0.0179,0.9852,0.0982,-0.0369,-0.0947,0.0334,0.2204,0.0082,0.0438,0.2204,0.0082,0.0438,0.3000,0.0500,0.0002,0,-1.3605,-121.0000,-0.0152,-1.3605,-121.0000,-0.0152
-28.8467,14.0226,-4.0922,-0.4800,0.4800,0.1200,0.1200,0.0000,0.0000,0.0658,-0.0306,0.0016,996,1502,1502,1500,1000,1000,1505,1000,1000,1505,1503,1407,1505,0.2904,-0.1235,0.0152,-0.0128,-0.0185,0.9884,0.0979,-0.0367,-0.0948,0.0336,0.2204,0.0082,0.0438,0.2204,0.0082,0.0438,0.3000,0.0500,0.0002,0,-1.3605,-121.0000,-0.0152,-1.3605,-121.0000,-0.0152
-28.8051,14.0055,-4.0820,-0.4800,0.4800,0.1200,0.1200,0.0000,0.0000,0.0658,-0.0306,0.0015,996,1502,1502,1500,1000,1000,1505,1000,1000,1505,1503,1407,1505,0.1041,-0.0699,0.0371,-0.0156,-0.0173,0.9894,0.0979,-0.0367,-0.0948,0.0336,0.2204,0.0082,0.0438,0.2204,0.0082,0.0438,0.3000,0.0500,0.0002,0,-1.3605,-121.0000,-0.0152,-1.3605,-121.0000,-0.0152
-28.7648,13.9884,-4.0718,-0.5486,0.4800,0.1200,0.1200,0.0000,0.0000,0.0657,-0.0305,0.0016,998,1504,1504,1501,1000,1000,1505,1000,1000,1505,1503,1407,1505,-0.0387,-0.1147,-0.0033,-0.0162,-0.0204,0.9897,0.0979,-0.0368,-0.0946,0.0336,0.2204,0.0082,0.0438,0.2204,0.0082,0.0438,0.3000,0.0500,0.0002,0,-1.3605,-121.0000,-0.0152,-1.3605,-121.0000,-0.0152
-28.7261,13.9717,-4.0613,-0.5486,0.4800,0.1200,0.1200,0.0000,0.0000,0.0657,-0.0306,0.0015,996,1502,1502,1500,1000,1000,1505,1000,1000,1505,1503,1407,1505,-0.1687,0.0501,0.0614,-0.0174,-0.0210,0.9863,0.0977,-0.0366,-0.0948,0.0337,0.2204,0.0082,0.0438,0.2204,0.0082,0.0438,0.3000,0.0500,0.0002,0,-1.3605,-121.0000,-0.0152,-1.3605,-121.0000,-0.0152
-28.6891,13.9556,-4.0513,-0.4800,0.4114,0.1200,0.1200,0.0000,0.0000,0.0657,-0.0305,0.0014,996,1502,1502,1500,1000,1000,1505,1000,1000,1505,1503,1407,1505,-0.3212,0.0662,0.0776,-0.0152,-0.0233,0.9861,0.0977,-0.0366,-0.0948,0.0337,0.2204,0.0082,0.0438,0.2204,0.0082,0.0438,0.3000,0.0500,0.0002,0,-1.3605,-121.0000,-0.0152,-1.3605,-121.0000,-0.0152
-28.6529,13.9401,-4.0417,-0.4114,0.4114,0.1200,0.1200,0.0000,0.0000,0.0656,-0.0305,0.0015,996,1502,1502,1500,1000,1000,1505,1000,1000,1505,1503,1407,1505,-0.3211,0.0616,0.0415,-0.0159,-0.0200,0.9883,0.0976,-0.0366,-0.0946,0.0336,0.2204,0.0082,0.0438,0.2204,0.0082,0.0438,0.3000,0.0500,0.0002,0,-1.3605,-121.0000,-0.0152,-1.3605,-121.0000,-0.0152
-28.6166,13.9244,-4.0321,-0.4800,0.4800,0.1200,0.1200,0.0000,0.0000,0.0656,-0.0305,0.0015,996,1502,1502,1500,1000,1000,1505,1000,1000,1505,1503,1407,1505,-0.3974,0.0908,0.0599,-0.0175,-0.0201,0.9826,0.0975,-0.0366,-0.0945,0.0336,0.2204,0.0082,0.0438,0.2204,0.0082,0.0438,0.3000,0.0500,0.0002,0,-1.3605,-121.0000,-0.0152,-1.3605,-121.0000,-0.0152
-28.5816,13.9099,-4.0229,-0.4800,0.4800,0.1200,0.1200,0.0000,0.0000,0.0655,-0.0305,0.0016,996,1502,1502,1500,1000,1000,1505,1000,1000,1505,1503,1407,1505,-0.5180,0.2196,0.0335,-0.0145,-0.0213,0.9865,0.0976,-0.0366,-0.0945,0.0335,0.2204,0.0082,0.0438,0.2204,0.0082,0.0438,0.3000,0.0500,0.0002,0,-1.3605,-121.0000,-0.0152,-1.3605,-121.0000,-0.0152
-28.5479,13.8960,-4.0143,-0.4800,0.4800,0.1200,0.1200,0.0000,0.0000,0.0655,-0.0305,0.0015,998,1504,1504,1501,1000,1000,1505,1000,1000,1505,1503,1407,1505,-0.5780,0.2225,0.0554,-0.0168,-0.0235,0.9842,0.0974,-0.0365,-0.0945,0.0336,0.2204,0.0082,0.0438,0.2204,0.0082,0.0438,0.3000,0.0500,0.0002,0,-1.3605,-121.0000,-0.0152,-1.3605,-121.0000,-0.0152
-28.5146,13.8815,-4.0055,-0.5486,0.4114,0.1200,0.1200,0.0000,0.0000,0.0654,-0.0304,0.0015,996,1502,1502,1500,1000,1000,1505,1000,1000,1505,1503,1407,1505,-0.6284,0.2207,0.0637,-0.0207,-0.0229,0.9881,0.0973,-0.0365,-0.0944,0.0336,0.2204,0.0082,0.0438,0.2204,0.0082,0.0438,0.3000,0.0500,0.0002,0,-1.3605,-121.0000,-0.0152,-1.3605,-121.0000,-0.0152
-28.4821,13.8669,-3.9960,-0.6171,0.2743,0.1200,0.1200,0.0000,0.0000,0.0654,-0.0303,0.0014,996,1502,1502,1500,1000,1000,1505,1000,1000,1505,1503,1407,1505,-0.7625,0.0948,0.0723,-0.0207,-0.0224,0.9918,0.0972,-0.0365,-0.0943,0.0337,0.2204,0.0082,0.0438,0.2204,0.0082,0.0438,0.3000,0.0500,0.0002,0,-1.3605,-121.0000,-0.0152,-1.3605,-121.0000,-0.0152
-28.4500,13.8514,-3.9858,-0.4800,0.4800,0.1200,0.1200,0.0000,0.0000,0.0653,-0.0303,0.0012,996,1502,1502,1500,1000,1000,1505,1000,1000,1505,1503,1407,1505,-0.7082,-0.0290,0.1468,-0.0179,-0.0227,0.9909,0.0968,-0.0363,-0.0944,0.0339,0.2204,0.0082,0.0438,0.2204,0.0082,0.0438,0.3000,0.0500,0.0002,0,-1.3605,-121.0000,-0.0152,-1.3605,-121.0000,-0.0152
-28.4169,13.8350,-3.9743,-0.6171,0.3429,0.1200,0.1200,0.0000,0.0000,0.0652,-0.0302,0.0012,996,1502,1502,1500,1000,1000,1505,1000,1000,1505,1503,1407,1505,-0.6604,-0.0376,0.1596,-0.0187,-0.0243,0.9889,0.0967,-0.0362,-0.0942,0.0338,0.2204,0.0082,0.0438,0.2204,0.0082,0.0438,0.3000,0.0500,0.0002,0,-1.3605,-121.0000,-0.0152,-1.3605,-121.0000,-0.0152
-28.3835,13.8182,-3.9633,-0.4800,0.4114,0.1200,0.1200,0.0000,0.0000,0.0651,-0.0302,0.0012,996,1502,1502,1500,1000,1000,1505,1000,1000,1505,1503,1407,1505,-0.5945,-0.0719,0.1580,-0.0151,-0.0249,0.9847,0.0965,-0.0361,-0.0941,0.0338,0.2204,0.0082,0.0438,0.2204,0.0082,0.0438,0.3000,0.0500,0.0002,0,-1.3605,-121.0000,-0.0152,-1.3605,-121.0000,-0.0152
-28.3485,13.8015,-3.9518,-0.4800,0.4114,0.1200,0.1200,0.0000,0.0000,0.0650,-0.0301,0.0010,998,1504,1504,1501,1000,1000,1505,1000,1000,1505,1503,1407,1505,-0.4185,-0.0492,0.2085,-0.0163,-0.0256,0.9882,0.0961,-0.0359,-0.0941,0.0338,0.2204,0.0082,0.0438,0.2204,0.0082,0.0438,0.3000,0.0500,0.0002,0,-1.3605,-121.0000,-0.0152,-1.3605,-121.0000,-0.0152
-28.3120,13.7849,-3.9409,-0.4800,0.4114,0.1200,0.1200,0.0000,0.0000,0.0648,-0.0301,0.0014,996,1502,1502,1500,1000,1000,1505,1000,1000,1505,1503,1407,1505,-0.2767,-0.0655,0.0895,-0.0135,-0.0239,0.9876,0.0964,-0.0362,-0.0935,0.0333,0.2204,0.0082,0.0438,0.2204,0.0082,0.0438,0.3000,0.0500,0.0002,0,-1.3605,-121.0000,-0.0152,-1.3605,-121.0000,-0.0152
-28.2745,13.7673,-3.9307,-0.4800,0.4114,0.1200,0.1200,0.0000,0.0000,0.0647,-0.0300,0.0015,996,1502,1502,1500,1000,1000,1505,1000,1000,1505,1503,1407,1505,-0.1872,-0.1604,0.0490,-0.0167,-0.0263,0.9852,0.0962,-0.0362,-0.0932,0.0332,0.2204,0.0082,0.0438,0.2204,0.0082,0.0438,0.3000,0.0500,0.0002,0,-1.3605,-121.0000,-0.0152,-1.3605,-121.0000,-0.0152
-28.2361,13.7484,-3.9197,-0.4800,0.4114,0.1200,0.1200,0.0000,0.0000,0.0646,-0.0299,0.0016,996,1502,1502,1500,1000,1000,1505,1000,1000,1505,1503,1407,1505,-0.1903,-0.2911,0.0210,-0.0198,-0.0239,0.9878,0.0961,-0.0363,-0.0930,0.0332,0.2204,0.0082,0.0438,0.2204,0.0082,0.0438,0.3000,0.0500,0.0002,0,-1.3605,-121.0000,-0.0152,-1.3605,-121.0000,-0.0152
-28.1973,13.7287,-3.9085,-0.4800,0.4114,0.1200,0.1200,0.0000,0.0000,0.0645,-0.0298,0.0017,996,1502,1502,1500,1000,1000,1505,1000,1000,1505,1503,1407,1505,-0.1576,-0.3734,-0.0198,-0.0175,-0.0227,0.9887,0.0961,-0.0364,-0.0926,0.0330,0.2204,0.0082,0.0438,0.2204,0.0082,0.0438,0.3000,0.0500,0.0002,0,-1.3605,-121.0000,-0.0152,-1.3605,-121.0000,-0.0152
-28.1594,13.7079,-3.8977,-0.5486,0.4114,0.1200,0.1200,0.0000,0.0000,0.0645,-0.0297,0.0019,996,1502,1502,1500,1000,1000,1505,1000,1000,1505,1503,1407,1505,-0.2255,-0.4690,-0.0829,-0.0149,-0.0255,0.9847,0.0961,-0.0366,-0.0923,0.0328,0.2204,0.0082,0.0438,0.2204,0.0082,0.0438,0.3000,0.0500,0.0002,0,-1.3605,-121.0000,-0.0152,-1.3605,-121.0000,-0.0152
-28.1221,13.6876,-3.8868,-0.4800,0.4800,0.1200,0.1200,0.0000,0.0000,0.0645,-0.0298,0.0017,998,1504,1504,1501,1000,1000,1505,1000,1000,1505,1503,1407,1505,-0.3839,-0.2559,-0.0282,-0.0151,-0.0219,0.9920,0.0960,-0.0364,-0.0925,0.0329,0.2204,0.0082,0.0438,0.2204,0.0082,0.0438,0.3000,0.0500,0.0002,0,-1.3605,-121.0000,-0.0152,-1.3605,-121.0000,-0.0152
-28.0866,13.6693,-3.8769,-0.4800,0.4114,0.1200,0.1200,0.0000,0.0000,0.0644,-0.0299,0.0016,996,1502,1502,1500,1000,1000,1505,1000,1000,1505,1503,1407,1505,-0.4148,-0.0156,0.0118,-0.0130,-0.0220,0.9859,0.0958,-0.0361,-0.0927,0.0330,0.2204,0.0082,0.0438,0.2204,0.0082,0.0438,0.3000,0.0500,0.0002,0,-1.3605,-121.0000,-0.0152,-1.3605,-121.0000,-0.0152
-28.0518,13.6531,-3.8672,-0.4800,0.4114,0.1200,0.1200,0.0000,0.0000,0.0644,-0.0298,0.0016,996,1502,1502,1500,1000,1000,1505,1000,1000,1505,1503,1407,1505,-0.4972,0.0209,0.0529,-0.0146,-0.0212,0.9860,0.0958,-0.0361,-0.0926,0.0330,0.2204,0.0082,0.0438,0.2204,0.0082,0.0438,0.3000,0.0500,0.0002,0,-1.3605,-121.0000,-0.0152,-1.3605,-121.0000,-0.0152
-28.0173,13.6377,-3.8571,-0.4800,0.4800,0.1200,0.1200,0.0000,0.0000,0.0643,-0.0299,0.0011,996,1502,1502,1500,1000,1000,1505,1000,1000,1505,1503,1407,1505,-0.5407,0.1327,0.1887,-0.0152,-0.0255,0.9884,0.0952,-0.0355,-0.0931,0.0334,0.2204,0.0082,0.0438,0.2204,0.0082,0.0438,0.3000,0.0500,0.0002,0,-1.3605,-121.0000,-0.0152,-1.3605,-121.0000,-0.0152
-27.9834,13.6233,-3.8465,-0.4114,0.4800,0.1200,0.1200,0.0000,0.0000,0.0642,-0.0298,0.0011,996,1502,1502,1500,1000,1000,1505,1000,1000,1505,1503,1407,1505,-0.5609,0.1293,0.1937,-0.0115,-0.0260,0.9876,0.0952,-0.0355,-0.0929,0.0333,0.2204,0.0082,0.0438,0.2204,0.0082,0.0438,0.3000,0.0500,0.0002,0,-1.3605,-121.0000,-0.0152,-1.3605,-121.0000,-0.0152
-27.9485,13.6080,-3.8363,-0.4800,0.4800,0.1200,0.1200,0.0000,0.0000,0.0641,-0.0298,0.0012,996,1502,1502,1500,1000,1000,1505,1000,1000,1505,1503,1407,1505,-0.4368,0.0645,0.1471,-0.0181,-0.0258,0.9891,0.0951,-0.0356,-0.0926,0.0331,0.2204,0.0082,0.0438,0.2204,0.0082,0.0438,0.3000,0.0500,0.0002,0,-1.3605,-121.0000,-0.0152,-1.3605,-121.0000,-0.0152
-27.9127,13.5909,-3.8259,-0.5486,0.4800,0.1200,0.1200,0.0000,0.0000,0.0640,-0.0296,0.0014,998,1504,1502,1501,1000,1000,1505,1000,1000,1505,1503,1407,1505,-0.4132,-0.0979,0.0684,-0.0185,-0.0271,0.9888,0.0951,-0.0358,-0.0922,0.0329,0.2204,0.0082,0.0438,0.2204,0.0082,0.0438,0.3000,0.0500,0.0002,0,-1.3605,-121.0000,-0.0152,-1.3605,-121.0000,-0.0152
-27.8754,13.5724,-3.8153,-0.4800,0.4800,0.1200,0.1200,0.0000,0.0000,0.0638,-0.0295,0.0017,996,1502,1502,1500,1000,1000,1505,1000,1000,1505,1503,1407,1505,-0.1943,-0.2338,-0.0160,-0.0172,-0.0271,0.9858,0.0951,-0.0360,-0.0917,0.0326,0.2204,0.0082,0.0438,0.2204,0.0082,0.0438,0.3000,0.0500,0.0002,0,-1.3605,-121.0000,-0.0152,-1.3605,-121.0000,-0.0152
-27.8360,13.5527,-3.8045,-0.4800,0.4800,0.1200,0.1200,0.0000,0.0000,0.0636,-0.0294,0.0016,996,1502,1502,1500,1000,1000,1505,1000,1000,1505,1503,1407,1505,0.0671,-0.3574,0.0134,-0.0164,-0.0254,0.9885,0.0947,-0.0358,-0.0915,0.0326,0.2204,0.0082,0.0438,0.2204,0.0082,0.0438,0.3000,0.0500,0.0002,0,-1.3605,-121.0000,-0.0152,-1.3605,-121.0000,-0.0152
-27.7946,13.5328,-3.7944,-0.5486,0.4114,0.1200,0.1200,0.0000,0.0000,0.0635,-0.0295,0.0018,996,1502,1502,1500,1000,1000,1505,1000,1000,1505,1503,1407,1505,0.1948,-0.2312,-0.0680,-0.0148,-0.0279,0.9867,0.0948,-0.0359,-0.0911,0.0322,0.2204,0.0082,0.0438,0.2204,0.0082,0.0438,0.3000,0.0500,0.0002,0,-1.3605,-121.0000,-0.0152,-1.3605,-121.0000,-0.0152
-27.7514,13.5140,-3.7843,-0.4114,0.4800,0.1200,0.1200,0.0000,0.0000,0.0633,-0.0295,0.0015,996,1502,1502,1500,1000,1000,1505,1000,1000,1505,1503,1407,1505,0.4228,-0.0734,0.0402,-0.0164,-0.0269,0.9864,0.0943,-0.0353,-0.0913,0.0323,0.2204,0.0082,0.0438,0.2204,0.0082,0.0438,0.3000,0.0500,0.0002,0,-1.3605,-121.0000,-0.0152,-1.3605,-121.0000,-0.0152
-27.7067,13.4969,-3.7755,-0.5486,0.4114,0.1200,0.1200,0.0000,0.0000,0.0631,-0.0295,0.0019,996,1502,1502,1500,1000,1000,1505,1000,1000,1505,1503,1407,1505,0.5564,0.0254,-0.0770,-0.0175,-0.0252,0.9872,0.0945,-0.0355,-0.0907,0.0317,0.2204,0.0082,0.0438,0.2204,0.0082,0.0438,0.3000,0.0500,0.0002,0,-1.3605,-121.0000,-0.0152,-1.3605,-121.0000,-0.0152
-27.6602,13.4799,-3.7673,-0.4800,0.5486,0.1200,0.1200,0.0000,0.0000,0.0630,-0.0295,0.0018,998,1504,1504,1501,1000,1000,1505,1000,1000,1505,1503,1407,1505,0.7358,0.0417,-0.0636,-0.0160,-0.0251,0.9842,0.0942,-0.0353,-0.0906,0.0317,0.2204,0.0082,0.0438,0.2204,0.0082,0.0438,0.3000,0.0500,0.0002,0,-1.3605,-121.0000,-0.0152,-1.3605,-121.0000,-0.0152
-27.6123,13.4627,-3.7596,-0.4800,0.4800,0.1200,0.1200,0.0000,0.0000,0.0628,-0.0294,0.0021,996,1502,1502,1500,1000,1000,1505,1000,1000,1505,1503,1407,1505,0.8252,0.0272,-0.1611,-0.0133,-0.0263,0.9860,0.0943,-0.0355,-0.0901,0.0313,0.2204,0.0082,0.0438,0.2204,0.0082,0.0438,0.3000,0.0500,0.0002,0,-1.3605,-121.0000,-0.0152,-1.3605,-121.0000,-0.0152
-27.5635,13.4455,-3.7519,-0.4800,0.4800,0.1200,0.1200,0.0000,0.0000,0.0626,-0.0294,0.0022,996,1502,1502,1500,1000,1000,1505,1000,1000,1505,1503,1407,1505,0.9642,0.0624,-0.1657,-0.0142,-0.0254,0.9870,0.0942,-0.0354,-0.0899,0.0311,0.2204,0.0082,0.0438,0.2204,0.0082,0.0438,0.3000,0.0500,0.0002,0,-1.3605,-121.0000,-0.0152,-1.3605,-121.0000,-0.0152
-27.5135,13.4275,-3.7437,-0.4800,0.4800,0.1200,0.1200,0.0000,0.0000,0.0625,-0.0293,0.0020,996,1502,1502,1500,1000,1000,1505,1000,1000,1505,1503,1407,1505,0.9654,-0.0706,-0.1041,-0.0167,-0.0245,0.9939,0.0938,-0.0352,-0.0898,0.0313,0.2204,0.0082,0.0438,0.2204,0.0082,0.0438,0.3000,0.0500,0.0002,0,-1.3605,-121.0000,-0.0152,-1.3605,-121.0000,-0.0152
-27.4624,13.4091,-3.7350,-0.4800,0.4114,0.1200,0.1200,0.0000,0.0000,0.0623,-0.0292,0.0017,996,1502,1502,1500,1000,1000,1505,1000,1000,1505,1503,1407,1505,1.1814,-0.1033,-0.0345,-0.0144,-0.0275,0.9867,0.0933,-0.0348,-0.0898,0.0314,0.2204,0.0082,0.0438,0.2204,0.0082,0.0438,0.3000,0.0500,0.0002,0,-1.3605,-121.0000,-0.0152,-1.3605,-121.0000,-0.0152
-27.4106,13.3911,-3.7263,-0.4800,0.4800,0.1200,0.1200,0.0000,0.0000,0.0622,-0.0292,0.0020,996,1502,1502,1500,1000,1000,1505,1000,1000,1505,1503,1407,1505,1.0980,-0.0222,-0.1137,-0.0160,-0.0265,0.9840,0.0935,-0.0350,-0.0895,0.0310,0.2204,0.0082,0.0438,0.2204,0.0082,0.0438,0.3000,0.0500,0.0002,0,-1.3605,-121.0000,-0.0152,-1.3605,-121.0000,-0.0152
-27.3592,13.3736,-3.7188,-0.4800,0.4800,0.1200,0.1200,0.0000,0.0000,0.0621,-0.0293,0.0021,998,1504,1502,1501,1000,1000,1505,1000,1000,1505,1503,1407,1505,1.1357,0.1094,-0.1606,-0.0173,-0.0223,0.9868,0.0935,-0.0350,-0.0892,0.0307,0.2204,0.0082,0.0438,0.2204,0.0082,0.0438,0.3000,0.0500,0.0002,0,-1.3605,-121.0000,-0.0152,-1.3605,-121.0000,-0.0152
-27.3084,13.3573,-3.7117,-0.4800,0.5486,0.1200,0.1200,0.0000,0.0000,0.0621,-0.0293,0.0020,996,1502,1502,1500,1000,1000,1505,1000,1000,1505,1503,1407,1505,0.9558,0.2555,-0.1068,-0.0167,-0.0242,0.9881,0.0934,-0.0348,-0.0894,0.0308,0.2204,0.0082,0.0438,0.2204,0.0082,0.0438,0.3000,0.0500,0.0002,0,-1.3605,-121.0000,-0.0152,-1.3605,-121.0000,-0.0152
-27.2598,13.3413,-3.7052,-0.4800,0.4114,0.1200,0.1200,0.0000,0.0000,0.0621,-0.0293,0.0022,996,1502,1502,1500,1000,1000,1505,1000,1000,1505,1503,1407,1505,0.7363,0.2880,-0.1930,-0.0145,-0.0206,0.9835,0.0936,-0.0350,-0.0891,0.0306,0.2204,0.0082,0.0438,0.2204,0.0082,0.0438,0.3000,0.0500,0.0002,0,-1.3605,-121.0000,-0.0152,-1.3605,-121.0000,-0.0152
-27.2138,13.3264,-3.6987,-0.5486,0.4800,0.1200,0.1200,0.0000,0.0000,0.0621,-0.0292,0.0020,996,1502,1502,1500,1000,1000,1505,1000,1000,1505,1503,1407,1505,0.5217,0.2561,-0.0994,-0.0148,-0.0203,0.9880,0.0932,-0.0348,-0.0893,0.0309,0.2204,0.0082,0.0438,0.2204,0.0082,0.0438,0.3000,0.0500,0.0002,0,-1.3605,-121.0000,-0.0152,-1.3605,-121.0000,-0.0152
-27.1705,13.3114,-3.6919,-0.4800,0.5486,0.1200,0.1200,0.0000,0.0000,0.0621,-0.0292,0.0017,996,1502,1502,1500,1000,1000,1505,1000,1000,1505,1503,1407,1505,0.2682,0.2099,-0.0464,-0.0166,-0.0184,0.9881,0.0930,-0.0347,-0.0895,0.0312,0.2204,0.0082,0.0438,0.2204,0.0082,0.0438,0.3000,0.0500,0.0002,0,-1.3605,-121.0000,-0.0152,-1.3605,-121.0000,-0.0152
-27.1288,13.2962,-3.6836,-0.5486,0.4800,0.1200,0.1200,0.0000,0.0000,0.0621,-0.0291,0.0017,996,1502,1502,1500,1000,1000,1505,1000,1000,1505,1503,1407,1505,0.0446,0.1547,-0.0129,-0.0183,-0.0215,0.9823,0.0929,-0.0347,-0.0895,0.0312,0.2204,0.0082,0.0438,0.2204,0.0082,0.0438,0.3000,0.0500,0.0002,0,-1.3605,-121.0000,-0.0152,-1.3605,-121.0000,-0.0152
-27.0894,13.2800,-3.6743,-0.4800,0.4800,0.1200,0.1200,0.0000,0.0000,0.0621,-0.0290,0.0014,998,1504,1504,1501,1000,1000,1505,1000,1000,1505,1503,1407,1505,-0.1113,-0.0545,0.0812,-0.0183,-0.0200,0.9824,0.0925,-0.0345,-0.0896,0.0317,0.2204,0.0082,0.0438,0.2204,0.0082,0.0438,0.3000,0.0500,0.0002,0,-1.3605,-121.0000,-0.0152,-1.3605,-121.0000,-0.0152
-27.0513,13.2619,-3.6631,-0.4800,0.4114,0.1200,0.1200,0.0000,0.0000,0.0621,-0.0288,0.0011,996,1502,1502,1500,1000,1000,1505,1000,1000,1505,1503,1407,1505,-0.2929,-0.2649,0.1727,-0.0149,-0.0209,0.9886,0.0921,-0.0344,-0.0898,0.0321,0.2204,0.0082,0.0438,0.2204,0.0082,0.0438,0.3000,0.0500,0.0002,0,-1.3605,-121.0000,-0.0152,-1.3605,-121.0000,-0.0152
-27.0146,13.2422,-3.6515,-0.4800,0.4800,0.1200,0.1200,0.0000,0.0000,0.0620,-0.0287,0.0012,996,1502,1502,1500,1000,1000,1505,1000,1000,1505,1503,1407,1505,-0.4447,-0.4213,0.1252,-0.0152,-0.0234,0.9867,0.0920,-0.0346,-0.0895,0.0321,0.2204,0.0082,0.0438,0.2204,0.0082,0.0438,0.3000,0.0500,0.0002,0,-1.3605,-121.0000,-0.0152,-1.3605,-121.0000,-0.0152
-26.9785,13.2209,-3.6392,-0.4800,0.4800,0.1200,0.1200,0.0000,0.0000,0.0620,-0.0286,0.0016,996,1502,1502,1500,1000,1000,1505,1000,1000,1505,1503,1407,1505,-0.4292,-0.5217,0.0296,-0.0168,-0.0245,0.9836,0.0922,-0.0349,-0.0890,0.0317,0.2204,0.0082,0.0438,0.2204,0.0082,0.0438,0.3000,0.0500,0.0002,0,-1.3605,-121.0000,-0.0152,-1.3605,-121.0000,-0.0152
-26.9422,13.1985,-3.6265,-0.4800,0.4114,0.1200,0.1200,0.0000,0.0000,0.0618,-0.0285,0.0014,996,1502,1502,1500,1000,1000,1505,1000,1000,1505,1503,1407,1505,-0.3276,-0.6620,0.0694,-0.0137,-0.0238,0.9873,0.0918,-0.0347,-0.0890,0.0319,0.2204,0.0082,0.0438,0.2204,0.0082,0.0438,0.3000,0.0500,0.0002,0,-1.3605,-121.0000,-0.0152,-1.3605,-121.0000,-0.0152
-26.9049,13.1762,-3.6141,-0.4800,0.4800,0.1200,0.1200,0.0000,0.0000,0.0618,-0.0285,0.0017,996,1502,1502,1500,1000,1000,1505,1000,1000,1505,1503,1407,1505,-0.3319,-0.5387,0.0221,-0.0155,-0.0258,0.9849,0.0920,-0.0349,-0.0886,0.0316,0.2204,0.0082,0.0438,0.2204,0.0082,0.0438,0.3000,0.0500,0.0002,0,-1.3605,-121.0000,-0.0152,-1.3605,-121.0000,-0.0152
-26.8662,13.1548,-3.6028,-0.6171,0.3429,0.1200,0.1200,0.0000,0.0000,0.0615,-0.0286,0.0017,998,1504,1504,1501,1000,1000,1505,1000,1000,1505,1503,1407,1505,-0.0419,-0.4036,0.0024,-0.0129,-0.0273,0.9907,0.0918,-0.0347,-0.0884,0.0313,0.2204,0.0082,0.0438,0.2204,0.0082,0.0438,0.3000,0.0500,0.0002,0,-1.3605,-121.0000,-0.0152,-1.3605,-121.0000,-0.0152
-26.8250,13.1341,-3.5920,-0.4114,0.4800,0.1200,0.1200,0.0000,0.0000,0.0614,-0.0285,0.0017,996,1502,1502,1500,1000,1000,1505,1000,1000,1505,1503,1407,1505,0.1594,-0.3407,-0.0201,-0.0141,-0.0280,0.9875,0.0916,-0.0345,-0.0882,0.0311,0.2204,0.0082,0.0438,0.2204,0.0082,0.0438,0.3000,0.0500,0.0002,0,-1.3605,-121.0000,-0.0152,-1.3605,-121.0000,-0.0152
-26.7817,13.1140,-3.5816,-0.5486,0.2743,0.1200,0.1200,0.0000,0.0000,0.0612,-0.0285,0.0018,996,1502,1502,1500,1000,1000,1505,1000,1000,1505,1503,1407,1505,0.4192,-0.2346,-0.0492,-0.0186,-0.0250,0.9842,0.0915,-0.0344,-0.0879,0.0308,0.2204,0.0082,0.0438,0.2204,0.0082,0.0438,0.3000,0.0500,0.0002,0,-1.3605,-121.0000,-0.0152,-1.3605,-121.0000,-0.0152
-26.7368,13.0937,-3.5717,-0.5486,0.4800,0.1200,0.1200,0.0000,0.0000,0.0610,-0.0285,0.0021,996,1502,1502,1500,1000,1000,1505,1000,1000,1505,1503,1407,1505,0.4478,-0.2994,-0.1264,-0.0169,-0.0250,0.9877,0.0916,-0.0346,-0.0874,0.0305,0.2204,0.0082,0.0438,0.2204,0.0082,0.0438,0.3000,0.0500,0.0002,0,-1.3605,-121.0000,-0.0152,-1.3605,-121.0000,-0.0152
-26.6915,13.0736,-3.5621,-0.5486,0.4800,0.1200,0.1200,0.0000,0.0000,0.0609,-0.0284,0.0019,996,1502,1502,1500,1000,1000,1505,1000,1000,1505,1503,1407,1505,0.5355,-0.2839,-0.0676,-0.0149,-0.0250,0.9878,0.0912,-0.0344,-0.0874,0.0306,0.2204,0.0082,0.0438,0.2204,0.0082,0.0438,0.3000,0.0500,0.0002,0,-1.3605,-121.0000,-0.0152,-1.3605,-121.0000,-0.0152
-26.6463,13.0536,-3.5532,-0.4800,0.4800,0.1200,0.1200,0.0000,0.0000,0.0608,-0.0284,0.0021,996,1502,1502,1500,1000,1000,1505,1000,1000,1505,1503,1407,1505,0.5381,-0.1328,-0.1426,-0.0148,-0.0227,0.9832,0.0913,-0.0345,-0.0872,0.0303,0.2204,0.0082,0.0438,0.2204,0.0082,0.0438,0.3000,0.0500,0.0002,0,-1.3605,-121.0000,-0.0152,-1.3605,-121.0000,-0.0152
-26.6014,13.0350,-3.5449,-0.4800,0.4800,0.1200,0.1200,0.0000,0.0000,0.0608,-0.0285,0.0020,998,1504,1504,1501,1000,1000,1505,1000,1000,1505,1503,1407,1505,0.4267,0.0083,-0.1151,-0.0145,-0.0213,0.9846,0.0912,-0.0343,-0.0873,0.0303,0.2204,0.0082,0.0438,0.2204,0.0082,0.0438,0.3000,0.0500,0.0002,0,-1.3605,-121.0000,-0.0152,-1.3605,-121.0000,-0.0152
-26.5567,13.0179,-3.5366,-0.4800,0.4800,0.1200,0.1200,0.0000,0.0000,0.0607,-0.0285,0.0021,996,1502,1502,1500,1000,1000,1505,1000,1000,1505,1503,1407,1505,0.4119,0.1194,-0.1222,-0.0128,-0.0215,0.9881,0.0912,-0.0343,-0.0871,0.0301,0.2204,0.0082,0.0438,0.2204,0.0082,0.0438,0.3000,0.0500,0.0002,0,-1.3605,-121.0000,-0.0152,-1.3605,-121.0000,-0.0152
-26.5132,13.0017,-3.5291,-0.4114,0.5486,0.1200,0.1200,0.0000,0.0000,0.0606,-0.0285,0.0019,996,1502,1502,1500,1000,1000,1505,1000,1000,1505,1503,1407,1505,0.3492,0.1461,-0.0826,-0.0157,-0.0197,0.9876,0.0909,-0.0340,-0.0872,0.0302,0.2204,0.0082,0.0438,0.2204,0.0082,0.0438,0.3000,0.0500,0.0002,0,-1.3605,-121.0000,-0.0152,-1.3605,-121.0000,-0.0152
-26.4703,12.9862,-3.5214,-0.4800,0.4800,0.1200,0.1200,0.0000,0.0000,0.0605,-0.0284,0.0017,996,1502,1502,1500,1000,1000,1505,1000,1000,1505,1503,1407,1505,0.2742,0.1574,-0.0236,-0.0188,-0.0227,0.9862,0.0906,-0.0338,-0.0873,0.0304,0.2204,0.0082,0.0438,0.2204,0.0082,0.0438,0.3000,0.0500,0.0002,0,-1.3605,-121.0000,-0.0152,-1.3605,-121.0000,-0.0152
-26.4278,12.9690,-3.5119,-0.5486,0.4800,0.1200,0.1200,0.0000,0.0000,0.0605,-0.0282,0.0015,996,1502,1502,1500,1000,1000,1505,1000,1000,1505,1503,1407,1505,0.1711,-0.2148,0.0626,-0.0173,-0.0247,0.9879,0.0902,-0.0337,-0.0873,0.0308,0.2204,0.0082,0.0438,0.2204,0.0082,0.0438,0.3000,0.0500,0.0002,0,-1.3605,-121.0000,-0.0152,-1.3605,-121.0000,-0.0152
-26.3851,12.9495,-3.5010,-0.5486,0.4800,0.1200,0.1200,0.0000,0.0000,0.0603,-0.0281,0.0015,996,1502,1502,1500,1000,1000,1505,1000,1000,1505,1503,1407,1505,0.2755,-0.3050,0.0752,-0.0179,-0.0270,0.9855,0.0900,-0.0337,-0.0870,0.0307,0.2204,0.0082,0.0438,0.2204,0.0082,0.0438,0.3000,0.0500,0.0002,0,-1.3605,-121.0000,-0.0152,-1.3605,-121.0000,-0.0152
-26.3415,12.9289,-3.4902,-0.4800,0.4800,0.1200,0.1200,0.0000,0.0000,0.0602,-0.0281,0.0018,998,1504,1504,1501,1000,1000,1505,1000,1000,1505,1503,1407,1505,0.3051,-0.4016,-0.0214,-0.0172,-0.0256,0.9853,0.0901,-0.0340,-0.0865,0.0304,0.2204,0.0082,0.0438,0.2204,0.0082,0.0438,0.3000,0.0500,0.0002,0,-1.3605,-121.0000,-0.0152,-1.3605,-121.0000,-0.0152
-26.2970,12.9072,-3.4792,-0.4800,0.4114,0.1200,0.1200,0.0000,0.0000,0.0601,-0.0280,0.0017,996,1502,1502,1500,1000,1000,1505,1000,1000,1505,1503,1407,1505,0.4509,-0.5161,-0.0074,-0.0172,-0.0249,0.9910,0.0897,-0.0338,-0.0863,0.0304,0.2204,0.0082,0.0438,0.2204,0.0082,0.0438,0.3000,0.0500,0.0002,0,-1.3605,-121.0000,-0.0152,-1.3605,-121.0000,-0.0152
-26.2511,12.8848,-3.4681,-0.4800,0.4800,0.1200,0.1200,0.0000,0.0000,0.0599,-0.0279,0.0018,996,1502,1502,1500,1000,1000,1505,1000,1000,1505,1503,1407,1505,0.5612,-0.4509,-0.0558,-0.0152,-0.0302,0.9920,0.0897,-0.0338,-0.0860,0.0302,0.2204,0.0082,0.0438,0.2204,0.0082,0.0438,0.3000,0.0500,0.0002,0,-1.3605,-121.0000,-0.0152,-1.3605,-121.0000,-0.0152
-26.2044,12.8623,-3.4575,-0.4800,0.4800,0.1200,0.1200,0.0000,0.0000,0.0598,-0.0279,0.0018,996,1502,1502,1500,1000,1000,1505,1000,1000,1505,1503,1407,1505,0.6756,-0.5147,-0.0347,-0.0151,-0.0268,0.9880,0.0894,-0.0337,-0.0859,0.0302,0.2204,0.0082,0.0438,0.2204,0.0082,0.0438,0.3000,0.0500,0.0002,0,-1.3605,-121.0000,-0.0152,-1.3605,-121.0000,-0.0152
-26.1561,12.8397,-3.4470,-0.5486,0.4800,0.1200,0.1200,0.0000,0.0000,0.0596,-0.0278,0.0019,996,1502,1502,1500,1000,1000,1505,1000,1000,1505,1503,1407,1505,0.8636,-0.4769,-0.0810,-0.0156,-0.0250,0.9912,0.0894,-0.0337,-0.0855,0.0298,0.2204,0.0082,0.0438,0.2204,0.0082,0.0438,0.3000,0.0500,0.0002,0,-1.3605,-121.0000,-0.0152,-1.3605,-121.0000,-0.0152
-26.1060,12.8180,-3.4372,-0.4800,0.4800,0.1200,0.1200,0.0000,0.0000,0.0594,-0.0278,0.0020,996,1502,1502,1500,1000,1000,1505,1000,1000,1505,1503,1407,1505,0.9341,-0.3416,-0.1293,-0.0146,-0.0255,0.9852,0.0893,-0.0337,-0.0852,0.0296,0.2204,0.0082,0.0438,0.2204,0.0082,0.0438,0.3000,0.0500,0.0002,0,-1.3605,-121.0000,-0.0152,-1.3605,-121.0000,-0.0152
-26.0553,12.7968,-3.4281,-0.4800,0.4800,0.1200,0.1200,0.0000,0.0000,0.0593,-0.0278,0.0022,998,1504,1504,1501,1000,1000,1505,1000,1000,1505,1503,1407,1505,1.0727,-0.2553,-0.1706,-0.0166,-0.0241,0.9890,0.0893,-0.0336,-0.0849,0.0293,0.2204,0.0082,0.0438,0.2204,0.0082,0.0438,0.3000,0.0500,0.0002,0,-1.3605,-121.0000,-0.0152,-1.3605,-121.0000,-0.0152
-26.0038,12.7760,-3.4197,-0.5486,0.3429,0.1200,0.1200,0.0000,0.0000,0.0591,-0.0278,0.0020,996,1502,1502,1500,1000,1000,1505,1000,1000,1505,1503,1407,1505,1.0943,-0.2073,-0.1260,-0.0137,-0.0238,0.9872,0.0890,-0.0334,-0.0849,0.0293,0.2204,0.0082,0.0438,0.2204,0.0082,0.0438,0.3000,0.0500,0.0002,0,-1.3605,-121.0000,-0.0152,-1.3605,-121.0000,-0.0152
-25.9514,12.7562,-3.4111,-0.4114,0.4114,0.1200,0.1200,0.0000,0.0000,0.0590,-0.0278,0.0019,996,1502,1502,1500,1000,1000,1505,1000,1000,1505,1503,1407,1505,1.2024,-0.2169,-0.0748,-0.0137,-0.0252,0.9887,0.0886,-0.0331,-0.0848,0.0293,0.2204,0.0082,0.0438,0.2204,0.0082,0.0438,0.3000,0.0500,0.0002,0,-1.3605,-121.0000,-0.0152,-1.3605,-121.0000,-0.0152
-25.8986,12.7364,-3.4024,-0.6171,0.3429,0.1200,0.1200,0.0000,0.0000,0.0588,-0.0277,0.0022,996,1502,1502,1500,1000,1000,1505,1000,1000,1505,1503,1407,1505,1.2443,-0.1684,-0.1699,-0.0170,-0.0222,0.9869,0.0888,-0.0333,-0.0844,0.0289,0.2204,0.0082,0.0438,0.2204,0.0082,0.0438,0.3000,0.0500,0.0002,0,-1.3605,-121.0000,-0.0152,-1.3605,-121.0000,-0.0152
-25.8450,12.7155,-3.3942,-0.4114,0.4800,0.1200,0.1200,0.0000,0.0000,0.0587,-0.0276,0.0022,996,1502,1502,1500,1000,1000,1505,1000,1000,1505,1503,1407,1505,1.3586,-0.2829,-0.1861,-0.0178,-0.0244,0.9855,0.0885,-0.0333,-0.0841,0.0288,0.2204,0.0082,0.0438,0.2204,0.0082,0.0438,0.3000,0.0500,0.0002,0,-1.3605,-121.0000,-0.0152,-1.3605,-121.0000,-0.0152
-25.7906,12.6940,-3.3856,-0.4800,0.4800,0.1200,0.1200,0.0000,0.0000,0.0585,-0.0275,0.0023,996,1502,1502,1500,1000,1000,1505,1000,1000,1505,1503,1407,1505,1.3997,-0.4077,-0.2183,-0.0164,-0.0238,0.9907,0.0884,-0.0333,-0.0837,0.0287,0.2204,0.0082,0.0438,0.2204,0.0082,0.0438,0.3000,0.0500,0.0002,0,-1.3605,-121.0000,-0.0152,-1.3605,-121.0000,-0.0152
-25.7356,12.6710,-3.3763,-0.4800,0.4114,0.1200,0.1200,0.0000,0.0000,0.0584,-0.0274,0.0023,998,1504,1504,1501,1000,1000,1505,1000,1000,1505,1503,1407,1505,1.3805,-0.5426,-0.2090,-0.0147,-0.0248,0.9919,0.0881,-0.0333,-0.0836,0.0287,0.2204,0.0082,0.0438,0.2204,0.0082,0.0438,0.3000,0.0500,0.0002,0,-1.3605,-121.0000,-0.0152,-1.3605,-121.0000,-0.0152
-25.6803,12.6472,-3.3665,-0.4114,0.4114,0.1200,0.1200,0.0000,0.0000,0.0583,-0.0273,0.0023,996,1502,1502,1500,1000,1000,1505,1000,1000,1505,1503,1407,1505,1.4255,-0.6212,-0.2070,-0.0166,-0.0237,0.9881,0.0879,-0.0332,-0.0833,0.0287,0.2204,0.0082,0.0438,0.2204,0.0082,0.0438,0.3000,0.0500,0.0002,0,-1.3605,-121.0000,-0.0152,-1.3605,-121.0000,-0.0152
-25.6248,12.6229,-3.3571,-0.4800,0.4800,0.1200,0.1200,0.0000,0.0000,0.0582,-0.0273,0.0024,996,1502,1502,1500,1000,1000,1505,1000,1000,1505,1503,1407,1505,1.4449,-0.5395,-0.2258,-0.0140,-0.0198,0.9869,0.0878,-0.0332,-0.0831,0.0285,0.2204,0.0082,0.0438,0.2204,0.0082,0.0438,0.3000,0.0500,0.0002,0,-1.3605,-121.0000,-0.0152,-1.3605,-121.0000,-0.0152
-25.5698,12.5994,-3.3484,-0.4114,0.4114,0.1200,0.1200,0.0000,0.0000,0.0581,-0.0273,0.0022,996,1502,1502,1500,1000,1000,1505,1000,1000,1505,1503,1407,1505,1.3554,-0.4187,-0.1867,-0.0108,-0.0218,0.9880,0.0876,-0.0330,-0.0832,0.0286,0.2204,0.0082,0.0438,0.2204,0.0082,0.0438,0.3000,0.0500,0.0002,0,-1.3605,-121.0000,-0.0152,-1.3605,-121.0000,-0.0152
-25.5154,12.5778,-3.3400,-0.4114,0.4800,0.1200,0.1200,0.0000,0.0000,0.0580,-0.0274,0.0022,996,1502,1502,1500,1000,1000,1505,1000,1000,1505,1503,1407,1505,1.3553,-0.1973,-0.1880,-0.0119,-0.0228,0.9869,0.0875,-0.0328,-0.0831,0.0284,0.2204,0.0082,0.0438,0.2204,0.0082,0.0438,0.3000,0.0500,0.0002,0,-1.3605,-121.0000,-0.0152,-1.3605,-121.0000,-0.0152
-25.4616,12.5581,-3.3326,-0.4114,0.4114,0.1200,0.1200,0.0000,0.0000,0.0579,-0.0274,0.0023,996,1502,1502,1500,1000,1000,1505,1000,1000,1505,1503,1407,1505,1.2799,-0.0406,-0.1957,-0.0146,-0.0213,0.9880,0.0876,-0.0328,-0.0830,0.0282,0.2204,0.0082,0.0438,0.2204,0.0082,0.0438,0.3000,0.0500,0.0002,0,-1.3605,-121.0000,-0.0152,-1.3605,-121.0000,-0.0152
-25.4089,12.5403,-3.3256,-0.4800,0.4800,0.1200,0.1200,0.0000,0.0000,0.0578,-0.0274,0.0019,998,1504,1504,1501,1000,1000,1505,1000,1000,1505,1503,1407,1505,1.1635,0.0937,-0.0923,-0.0136,-0.0176,0.9906,0.0871,-0.0323,-0.0833,0.0285,0.2204,0.0082,0.0438,0.2204,0.0082,0.0438,0.3000,0.0500,0.0002,0,-1.3605,-121.0000,-0.0152,-1.3605,-121.0000,-0.0152
-25.3566,12.5228,-3.3178,-0.4800,0.4114,0.1200,0.1200,0.0000,0.0000,0.0577,-0.0274,0.0020,996,1502,1502,1500,1000,1000,1505,1000,1000,1505,1503,1407,1505,1.1307,0.0523,-0.1114,-0.0171,-0.0181,0.9839,0.0871,-0.0323,-0.0831,0.0283,0.2204,0.0082,0.0438,0.2204,0.0082,0.0438,0.3000,0.0500,0.0002,0,-1.3605,-121.0000,-0.0152,-1.3605,-121.0000,-0.0152
-25.3053,12.5054,-3.3094,-0.4800,0.4114,0.1200,0.1200,0.0000,0.0000,0.0577,-0.0273,0.0017,996,1502,1502,1500,1000,1000,1505,1000,1000,1505,1503,1407,1505,0.9549,0.0094,-0.0148,-0.0167,-0.0223,0.9859,0.0867,-0.0321,-0.0832,0.0286,0.2204,0.0082,0.0438,0.2204,0.0082,0.0438,0.3000,0.0500,0.0002,0,-1.3605,-121.0000,-0.0152,-1.3605,-121.0000,-0.0152
-25.2556,12.4869,-3.3009,-0.4800,0.4800,0.1200,0.1200,0.0000,0.0000,0.0576,-0.0272,0.0019,996,1502,1502,1500,1000,1000,1505,1000,1000,1505,1503,1407,1505,0.8154,-0.0809,-0.0848,-0.0167,-0.0212,0.9883,0.0868,-0.0323,-0.0829,0.0285,0.2204,0.0082,0.0438,0.2204,0.0082,0.0438,0.3000,0.0500,0.0002,0,-1.3605,-121.0000,-0.0152,-1.3605,-121.0000,-0.0152
-25.2074,12.4679,-3.2921,-0.4800,0.4800,0.1200,0.1200,0.0000,0.0000,0.0576,-0.0272,0.0017,996,1502,1502,1500,1000,1000,1505,1000,1000,1505,1503,1407,1505,0.7192,-0.1415,-0.0096,-0.0120,-0.0199,0.9876,0.0864,-0.0321,-0.0830,0.0287,0.2204,0.0082,0.0438,0.2204,0.0082,0.0438,0.3000,0.0500,0.0002,0,-1.3605,-121.0000,-0.0152,-1.3605,-121.0000,-0.0152
-25.1604,12.4490,-3.2825,-0.4800,0.4800,0.1200,0.1200,0.0000,0.0000,0.0575,-0.0271,0.0016,996,1502,1502,1500,1000,1000,1505,1000,1000,1505,1503,1407,1505,0.5798,-0.1127,0.0241,-0.0109,-0.0194,0.9861,0.0863,-0.0320,-0.0830,0.0288,0.2204,0.0082,0.0438,0.2204,0.0082,0.0438,0.3000,0.0500,0.0002,0,-1.3605,-121.0000,-0.0152,-1.3605,-121.0000,-0.0152
-25.1154,12.4303,-3.2736,-0.4800,0.4800,0.1200,0.1200,0.0000,0.0000,0.0575,-0.0271,0.0018,998,1504,1502,1501,1000,1000,1505,1000,1000,1505,1503,1407,1505,0.3632,-0.0218,-0.0442,-0.0161,-0.0181,0.9867,0.0864,-0.0322,-0.0829,0.0286,0.2204,0.0082,0.0438,0.2204,0.0082,0.0438,0.3000,0.0500,0.0002,0,-1.3605,-121.0000,-0.0152,-1.3605,-121.0000,-0.0152
-25.0719,12.4116,-3.2644,-0.4800,0.4114,0.1200,0.1200,0.0000,0.0000,0.0575,-0.0270,0.0017,996,1502,1502,1500,1000,1000,1505,1000,1000,1505,1503,1407,1505,0.2600,-0.1713,-0.0220,-0.0126,-0.0197,0.9886,0.0862,-0.0322,-0.0827,0.0287,0.2204,0.0082,0.0438,0.2204,0.0082,0.0438,0.3000,0.0500,0.0002,0,-1.3605,-121.0000,-0.0152,-1.3605,-121.0000,-0.0152
-25.0291,12.3928,-3.2555,-0.4800,0.4114,0.1200,0.1200,0.0000,0.0000,0.0574,-0.0270,0.0022,996,1502,1502,1500,1000,1000,1505,1000,1000,1505,1503,1407,1505,0.1786,-0.0893,-0.1408,-0.0143,-0.0185,0.9831,0.0866,-0.0326,-0.0822,0.0282,0.2204,0.0082,0.0438,0.2204,0.0082,0.0438,0.3000,0.0500,0.0002,0,-1.3605,-121.0000,-0.0152,-1.3605,-121.0000,-0.0152
-24.9877,12.3745,-3.2466,-0.4800,0.4114,0.1200,0.1200,0.0000,0.0000,0.0574,-0.0270,0.0015,996,1502,1502,1500,1000,1000,1505,1000,1000,1505,1503,1407,1505,0.0224,-0.0817,0.0526,-0.0139,-0.0203,0.9872,0.0859,-0.0319,-0.0828,0.0289,0.2204,0.0082,0.0438,0.2204,0.0082,0.0438,0.3000,0.0500,0.0002,0,-1.3605,-121.0000,-0.0152,-1.3605,-121.0000,-0.0152
-24.9462,12.3559,-3.2371,-0.4800,0.3429,0.1200,0.1200,0.0000,0.0000,0.0573,-0.0269,0.0018,996,1502,1502,1500,1000,1000,1505,1000,1000,1505,1503,1407,1505,0.0888,-0.2108,-0.0282,-0.0147,-0.0203,0.9915,0.0859,-0.0322,-0.0823,0.0286,0.2204,0.0082,0.0438,0.2204,0.0082,0.0438,0.3000,0.0500,0.0002,0,-1.3605,-121.0000,-0.0152,-1.3605,-121.0000,-0.0152
-24.9047,12.3362,-3.2278,-0.4800,0.4800,0.1200,0.1200,0.0000,0.0000,0.0571,-0.0268,0.0017,996,1502,1502,1500,1000,1000,1505,1000,1000,1505,1503,1407,1505,0.1273,-0.2068,0.0004,-0.0148,-0.0220,0.9913,0.0857,-0.0320,-0.0823,0.0286,0.2204,0.0082,0.0438,0.2204,0.0082,0.0438,0.3000,0.0500,0.0002,0,-1.3605,-121.0000,-0.0152,-1.3605,-121.0000,-0.0152
-24.8616,12.3167,-3.2185,-0.5486,0.3429,0.1200,0.1200,0.0000,0.0000,0.0570,-0.0268,0.0016,998,1504,1502,1501,1000,1000,1505,1000,1000,1505,1503,1407,1505,0.2971,-0.1855,0.0435,-0.0141,-0.0212,0.9851,0.0854,-0.0318,-0.0822,0.0286,0.2204,0.0082,0.0438,0.2204,0.0082,0.0438,0.3000,0.0500,0.0002,0,-1.3605,-121.0000,-0.0152,-1.3605,-121.0000,-0.0152
-24.8176,12.2962,-3.2090,-0.4800,0.4114,0.1200,0.1200,0.0000,0.0000,0.0568,-0.0267,0.0020,996,1502,1502,1500,1000,1000,1505,1000,1000,1505,1503,1407,1505,0.4118,-0.2445,-0.1019,-0.0126,-0.0240,0.9871,0.0856,-0.0321,-0.0815,0.0281,0.2204,0.0082,0.0438,0.2204,0.0082,0.0438,0.3000,0.0500,0.0002,0,-1.3605,-121.0000,-0.0152,-1.3605,-121.0000,-0.0152
-24.7717,12.2754,-3.2003,-0.4800,0.4114,0.1200,0.1200,0.0000,0.0000,0.0567,-0.0267,0.0020,996,1502,1502,1500,1000,1000,1505,1000,1000,1505,1503,1407,1505,0.5639,-0.2917,-0.1101,-0.0116,-0.0257,0.9886,0.0853,-0.0320,-0.0813,0.0280,0.2204,0.0082,0.0438,0.2204,0.0082,0.0438,0.3000,0.0500,0.0002,0,-1.3605,-121.0000,-0.0152,-1.3605,-121.0000,-0.0152
-24.7248,12.2544,-3.1916,-0.4800,0.4800,0.1200,0.1200,0.0000,0.0000,0.0565,-0.0266,0.0020,996,1502,1502,1500,1000,1000,1505,1000,1000,1505,1503,1407,1505,0.6828,-0.2528,-0.1158,-0.0124,-0.0210,0.9924,0.0852,-0.0319,-0.0811,0.0278,0.2204,0.0082,0.0438,0.2204,0.0082,0.0438,0.3000,0.0500,0.0002,0,-1.3605,-121.0000,-0.0152,-1.3605,-121.0000,-0.0152
-24.6770,12.2334,-3.1826,-0.4114,0.4800,0.1200,0.1200,0.0000,0.0000,0.0564,-0.0266,0.0020,996,1502,1502,1500,1000,1000,1505,1000,1000,1505,1503,1407,1505,0.7630,-0.3162,-0.0966,-0.0133,-0.0193,0.9901,0.0849,-0.0318,-0.0809,0.0278,0.2204,0.0082,0.0438,0.2204,0.0082,0.0438,0.3000,0.0500,0.0002,0,-1.3605,-121.0000,-0.0152,-1.3605,-121.0000,-0.0152
-24.6286,12.2123,-3.1741,-0.4800,0.4114,0.1200,0.1200,0.0000,0.0000,0.0563,-0.0265,0.0019,996,1502,1502,1500,1000,1000,1505,1000,1000,1505,1503,1407,1505,0.7849,-0.2367,-0.0857,-0.0159,-0.0212,0.9888,0.0847,-0.0316,-0.0809,0.0278,0.2204,0.0082,0.0438,0.2204,0.0082,0.0438,0.3000,0.0500,0.0002,0,-1.3605,-121.0000,-0.0152,-1.3605,-121.0000,-0.0152
-24.5801,12.1920,-3.1656,-0.4800,0.4800,0.1200,0.1200,0.0000,0.0000,0.0562,-0.0265,0.0019,998,1504,1504,1501,1000,1000,1505,1000,1000,1505,1503,1407,1505,0.7558,-0.2985,-0.0882,-0.0131,-0.0211,0.9903,0.0846,-0.0316,-0.0807,0.0277,0.2204,0.0082,0.0438,0.2204,0.0082,0.0438,0.3000,0.0500,0.0002,0,-1.3605,-121.0000,-0.0152,-1.3605,-121.0000,-0.0152
-24.5311,12.1714,-3.1566,-0.4800,0.4114,0.1200,0.1200,0.0000,0.0000,0.0560,-0.0264,0.0018,996,1502,1502,1500,1000,1000,1505,1000,1000,1505,1503,1407,1505,0.8587,-0.3077,-0.0477,-0.0131,-0.0207,0.9880,0.0843,-0.0314,-0.0806,0.0278,0.2204,0.0082,0.0438,0.2204,0.0082,0.0438,0.3000,0.0500,0.0002,0,-1.3605,-121.0000,-0.0152,-1.3605,-121.0000,-0.0152
-24.4818,12.1508,-3.1475,-0.4114,0.4800,0.1200,0.1200,0.0000,0.0000,0.0559,-0.0264,0.0017,996,1502,1502,1500,1000,1000,1505,1000,1000,1505,1503,1407,1505,0.8435,-0.2422,-0.0285,-0.0145,-0.0225,0.9878,0.0840,-0.0312,-0.0806,0.0278,0.2204,0.0082,0.0438,0.2204,0.0082,0.0438,0.3000,0.0500,0.0002,0,-1.3605,-121.0000,-0.0152,-1.3605,-121.0000,-0.0152
-24.4322,12.1302,-3.1381,-0.4800,0.4114,0.1200,0.1200,0.0000,0.0000,0.0558,-0.0264,0.0020,996,1502,1502,1500,1000,1000,1505,1000,1000,1505,1503,1407,1505,0.8521,-0.2284,-0.1069,-0.0130,-0.0194,0.9889,0.0842,-0.0315,-0.0801,0.0274,0.2204,0.0082,0.0438,0.2204,0.0082,0.0438,0.3000,0.0500,0.0002,0,-1.3605,-121.0000,-0.0152,-1.3605,-121.0000,-0.0152
-24.3827,12.1086,-3.1292,-0.4114,0.4800,0.1200,0.1200,0.0000,0.0000,0.0557,-0.0263,0.0017,996,1502,1502,1500,1000,1000,1505,1000,1000,1505,1503,1407,1505,0.8754,-0.3434,-0.0104,-0.0148,-0.0212,0.9885,0.0836,-0.0311,-0.0803,0.0277,0.2204,0.0082,0.0438,0.2204,0.0082,0.0438,0.3000,0.0500,0.0002,0,-1.3605,-121.0000,-0.0152,-1.3605,-121.0000,-0.0152
-24.3329,12.0877,-3.1197,-0.4114,0.4800,0.1200,0.1200,0.0000,0.0000,0.0556,-0.0262,0.0017,996,1502,1502,1500,1000,1000,1505,1000,1000,1505,1503,1407,1505,0.8761,-0.3273,-0.0039,-0.0149,-0.0188,0.9873,0.0835,-0.0310,-0.0801,0.0276,0.2204,0.0082,0.0438,0.2204,0.0082,0.0438,0.3000,0.0500,0.0002,0,-1.3605,-121.0000,-0.0152,-1.3605,-121.0000,-0.0152
-24.2834,12.0667,-3.1102,-0.4114,0.4800,0.1200,0.1200,0.0000,0.0000,0.0554,-0.0262,0.0019,998,1504,1504,1501,1000,1000,1505,1000,1000,1505,1503,1407,1505,0.8937,-0.2350,-0.0822,-0.0137,-0.0190,0.9925,0.0836,-0.0312,-0.0797,0.0273,0.2204,0.0082,0.0438,0.2204,0.0082,0.0438,0.3000,0.0500,0.0002,0,-1.3605,-121.0000,-0.0152,-1.3605,-121.0000,-0.0152
-24.2346,12.0467,-3.1011,-0.4800,0.4114,0.1200,0.1200,0.0000,0.0000,0.0554,-0.0262,0.0016,996,1502,1502,1500,1000,1000,1505,1000,1000,1505,1503,1407,1505,0.7489,-0.1599,0.0110,-0.0131,-0.0185,0.9897,0.0833,-0.0308,-0.0800,0.0275,0.2204,0.0082,0.0438,0.2204,0.0082,0.0438,0.3000,0.0500,0.0002,0,-1.3605,-121.0000,-0.0152,-1.3605,-121.0000,-0.0152
-24.1867,12.0272,-3.0925,-0.4800,0.4114,0.1200,0.1200,0.0000,0.0000,0.0553,-0.0262,0.0019,996,1502,1502,1500,1000,1000,1505,1000,1000,1505,1503,1407,1505,0.7022,-0.1359,-0.0659,-0.0129,-0.0156,0.9897,0.0834,-0.0310,-0.0796,0.0273,0.2204,0.0082,0.0438,0.2204,0.0082,0.0438,0.3000,0.0500,0.0002,0,-1.3605,-121.0000,-0.0152,-1.3605,-121.0000,-0.0152
-24.1388,12.0076,-3.0840,-0.4800,0.4800,0.1200,0.1200,0.0000,0.0000,0.0552,-0.0261,0.0018,996,1502,1502,1500,1000,1000,1505,1000,1000,1505,1503,1407,1505,0.6452,-0.1172,-0.0400,-0.0132,-0.0177,0.9890,0.0832,-0.0309,-0.0795,0.0272,0.2204,0.0082,0.0438,0.2204,0.0082,0.0438,0.3000,0.0500,0.0002,0,-1.3605,-121.0000,-0.0152,-1.3605,-121.0000,-0.0152
-24.0920,11.9888,-3.0755,-0.4800,0.4800,0.1200,0.1200,0.0000,0.0000,0.0552,-0.0261,0.0017,996,1502,1502,1500,1000,1000,1505,1000,1000,1505,1503,1407,1505,0.5044,-0.0452,-0.0024,-0.0139,-0.0180,0.9911,0.0830,-0.0307,-0.0797,0.0274,0.2204,0.0082,0.0438,0.2204,0.0082,0.0438,0.3000,0.0500,0.0002,0,-1.3605,-121.0000,-0.0152,-1.3605,-121.0000,-0.0152
-24.0465,11.9707,-3.0673,-0.5486,0.3429,0.1200,0.1200,0.0000,0.0000,0.0551,-0.0262,0.0017,996,1502,1502,1500,1000,1000,1505,1000,1000,1505,1503,1407,1505,0.3922,0.0796,-0.0015,-0.0121,-0.0190,0.9848,0.0830,-0.0307,-0.0796,0.0273,0.2204,0.0082,0.0438,0.2204,0.0082,0.0438,0.3000,0.0500,0.0002,0,-1.3605,-121.0000,-0.0152,-1.3605,-121.0000,-0.0152
-24.0023,11.9542,-3.0599,-0.4114,0.4114,0.1200,0.1200,0.0000,0.0000,0.0551,-0.0262,0.0016,998,1504,1504,1501,1000,1000,1505,1000,1000,1505,1503,1407,1505,0.3098,0.2273,0.0246,-0.0130,-0.0175,0.9894,0.0828,-0.0305,-0.0797,0.0273,0.2204,0.0082,0.0438,0.2204,0.0082,0.0438,0.3000,0.0500,0.0002,0,-1.3605,-121.0000,-0.0152,-1.3605,-121.0000,-0.0152
-23.9595,11.9382,-3.0522,-0.5486,0.3429,0.1200,0.1200,0.0000,0.0000,0.0550,-0.0261,0.0017,996,1502,1502,1500,1000,1000,1505,1000,1000,1505,1503,1407,1505,0.1774,0.1976,0.0081,-0.0137,-0.0187,0.9862,0.0828,-0.0306,-0.0795,0.0273,0.2204,0.0082,0.0438,0.2204,0.0082,0.0438,0.3000,0.0500,0.0002,0,-1.3605,-121.0000,-0.0152,-1.3605,-121.0000,-0.0152
-23.9181,11.9223,-3.0447,-0.4114,0.4800,0.1200,0.1200,0.0000,0.0000,0.0550,-0.0261,0.0014,996,1502,1502,1500,1000,1000,1505,1000,1000,1505,1503,1407,1505,0.0340,0.2127,0.0671,-0.0147,-0.0203,0.9874,0.0826,-0.0303,-0.0797,0.0275,0.2204,0.0082,0.0438,0.2204,0.0082,0.0438,0.3000,0.0500,0.0002,0,-1.3605,-121.0000,-0.0152,-1.3605,-121.0000,-0.0152
-23.8781,11.9067,-3.0365,-0.4114,0.4114,0.1200,0.1200,0.0000,0.0000,0.0550,-0.0261,0.0016,996,1502,1502,1500,1000,1000,1505,1000,1000,1505,1503,1407,1505,-0.1485,0.2003,0.0444,-0.0190,-0.0204,0.9870,0.0826,-0.0305,-0.0795,0.0274,0.2204,0.0082,0.0438,0.2204,0.0082,0.0438,0.3000,0.0500,0.0002,0,-1.3605,-121.0000,-0.0152,-1.3605,-121.0000,-0.0152
-23.8401,11.8909,-3.0286,-0.4114,0.4114,0.1200,0.1200,0.0000,0.0000,0.0550,-0.0261,0.0016,996,1502,1502,1500,1000,1000,1505,1000,1000,1505,1503,1407,1505,-0.3050,0.2693,0.0154,-0.0125,-0.0183,0.9846,0.0827,-0.0306,-0.0794,0.0273,0.2204,0.0082,0.0438,0.2204,0.0082,0.0438,0.3000,0.0500,0.0002,0,-1.3605,-121.0000,-0.0152,-1.3605,-121.0000,-0.0152
-23.8038,11.8743,-3.0204,-0.4800,0.4114,0.1200,0.1200,0.0000,0.0000,0.0550,-0.0259,0.0015,996,1502,1502,1500,1000,1000,1505,1000,1000,1505,1503,1407,1505,-0.5115,0.0872,0.0671,-0.0145,-0.0185,0.9840,0.0824,-0.0305,-0.0795,0.0276,0.2204,0.0082,0.0438,0.2204,0.0082,0.0438,0.3000,0.0500,0.0002,0,-1.3605,-121.0000,-0.0152,-1.3605,-121.0000,-0.0152
-23.7678,11.8564,-3.0108,-0.4800,0.4800,0.1200,0.1200,0.0000,0.0000,0.0549,-0.0258,0.0016,998,1504,1502,1501,1000,1000,1505,1000,1000,1505,1503,1407,1505,-0.4043,-0.1690,0.0513,-0.0161,-0.0201,0.9869,0.0822,-0.0307,-0.0791,0.0275,0.2204,0.0082,0.0438,0.2204,0.0082,0.0438,0.3000,0.0500,0.0002,0,-1.3605,-121.0000,-0.0152,-1.3605,-121.0000,-0.0152
-23.7313,11.8354,-3.0002,-0.4800,0.4114,0.1200,0.1200,0.0000,0.0000,0.0548,-0.0256,0.0015,996,1502,1502,1500,1000,1000,1505,1000,1000,1505,1503,1407,1505,-0.3707,-0.5377,0.0759,-0.0163,-0.0189,0.9949,0.0819,-0.0307,-0.0789,0.0277,0.2204,0.0082,0.0438,0.2204,0.0082,0.0438,0.3000,0.0500,0.0002,0,-1.3605,-121.0000,-0.0152,-1.3605,-121.0000,-0.0152
-23.6933,11.8128,-2.9882,-0.4114,0.4114,0.1200,0.1200,0.0000,0.0000,0.0546,-0.0255,0.0014,996,1502,1502,1500,1000,1000,1505,1000,1000,1505,1503,1407,1505,-0.1836,-0.5201,0.1150,-0.0146,-0.0217,0.9874,0.0815,-0.0305,-0.0788,0.0277,0.2204,0.0082,0.0438,0.2204,0.0082,0.0438,0.3000,0.0500,0.0002,0,-1.3605,-121.0000,-0.0152,-1.3605,-121.0000,-0.0152
-23.6531,11.7899,-2.9767,-0.4114,0.4114,0.1200,0.1200,0.0000,0.0000,0.0544,-0.0255,0.0015,996,1502,1502,1500,1000,1000,1505,1000,1000,1505,1503,1407,1505,0.0372,-0.5063,0.0765,-0.0094,-0.0231,0.9862,0.0814,-0.0304,-0.0785,0.0275,0.2204,0.0082,0.0438,0.2204,0.0082,0.0438,0.3000,0.0500,0.0002,0,-1.3605,-121.0000,-0.0152,-1.3605,-121.0000,-0.0152
-23.6104,11.7674,-2.9660,-0.4800,0.4114,0.1200,0.1200,0.0000,0.0000,0.0542,-0.0255,0.0016,996,1502,1502,1500,1000,1000,1505,1000,1000,1505,1503,1407,1505,0.2751,-0.2995,0.0198,-0.0106,-0.0252,0.9871,0.0814,-0.0303,-0.0781,0.0270,0.2204,0.0082,0.0438,0.2204,0.0082,0.0438,0.3000,0.0500,0.0002,0,-1.3605,-121.0000,-0.0152,-1.3605,-121.0000,-0.0152
-23.5660,11.7466,-2.9573,-0.4114,0.4800,0.1200,0.1200,0.0000,0.0000,0.0541,-0.0256,0.0019,996,1502,1502,1500,1000,1000,1505,1000,1000,1505,1503,1407,1505,0.4121,-0.1549,-0.0746,-0.0142,-0.0231,0.9896,0.0815,-0.0304,-0.0777,0.0266,0.2204,0.0082,0.0438,0.2204,0.0082,0.0438,0.3000,0.0500,0.0002,0,-1.3605,-121.0000,-0.0152,-1.3605,-121.0000,-0.0152
-23.5209,11.7267,-2.9489,-0.4800,0.4114,0.1200,0.1200,0.0000,0.0000,0.0539,-0.0255,0.0018,998,1504,1504,1501,1000,1000,1505,1000,1000,1505,1503,1407,1505,0.5388,-0.1582,-0.0225,-0.0150,-0.0239,0.9845,0.0812,-0.0302,-0.0777,0.0267,0.2204,0.0082,0.0438,0.2204,0.0082,0.0438,0.3000,0.0500,0.0002,0,-1.3605,-121.0000,-0.0152,-1.3605,-121.0000,-0.0152
-23.4741,11.7060,-2.9409,-0.4114,0.4114,0.1200,0.1200,0.0000,0.0000,0.0538,-0.0254,0.0023,996,1502,1502,1500,1000,1000,1505,1000,1000,1505,1503,1407,1505,0.6273,-0.2004,-0.2005,-0.0130,-0.0220,0.9870,0.0815,-0.0306,-0.0769,0.0260,0.2204,0.0082,0.0438,0.2204,0.0082,0.0438,0.3000,0.0500,0.0002,0,-1.3605,-121.0000,-0.0152,-1.3605,-121.0000,-0.0152
-23.4264,11.6856,-2.9335,-0.4114,0.4800,0.1200,0.1200,0.0000,0.0000,0.0536,-0.0254,0.0021,996,1502,1502,1500,1000,1000,1505,1000,1000,1505,1503,1407,1505,0.8119,-0.2021,-0.1166,-0.0108,-0.0203,0.9857,0.0810,-0.0302,-0.0769,0.0261,0.2204,0.0082,0.0438,0.2204,0.0082,0.0438,0.3000,0.0500,0.0002,0,-1.3605,-121.0000,-0.0152,-1.3605,-121.0000,-0.0152
-23.3775,11.6635,-2.9260,-0.4114,0.4800,0.1200,0.1200,0.0000,0.0000,0.0535,-0.0253,0.0024,996,1502,1502,1500,1000,1000,1505,1000,1000,1505,1503,1407,1505,0.8634,-0.3383,-0.2237,-0.0132,-0.0162,0.9866,0.0811,-0.0305,-0.0764,0.0258,0.2204,0.0082,0.0438,0.2204,0.0082,0.0438,0.3000,0.0500,0.0002,0,-1.3605,-121.0000,-0.0152,-1.3605,-121.0000,-0.0152
-23.3278,11.6417,-2.9180,-0.4800,0.4114,0.1200,0.1200,0.0000,0.0000,0.0533,-0.0252,0.0019,996,1502,1502,1500,1000,1000,1505,1000,1000,1505,1503,1407,1505,0.8899,-0.3491,-0.0682,-0.0166,-0.0200,0.9880,0.0805,-0.0300,-0.0767,0.0262,0.2204,0.0082,0.0438,0.2204,0.0082,0.0438,0.3000,0.0500,0.0002,0,-1.3605,-121.0000,-0.0152,-1.3605,-121.0000,-0.0152
-23.2776,11.6204,-2.9097,-0.4114,0.4114,0.1200,0.1200,0.0000,0.0000,0.0532,-0.0252,0.0022,996,1502,1502,1500,1000,1000,1505,1000,1000,1505,1503,1407,1505,0.8857,-0.2859,-0.1615,-0.0150,-0.0185,0.9868,0.0807,-0.0302,-0.0762,0.0258,0.2204,0.0082,0.0438,0.2204,0.0082,0.0438,0.3000,0.0500,0.0002,0,-1.3605,-121.0000,-0.0152,-1.3605,-121.0000,-0.0152
-23.2275,11.5997,-2.9016,-0.4114,0.4114,0.1200,0.1200,0.0000,0.0000,0.0531,-0.0252,0.0018,998,1504,1504,1501,1000,1000,1505,1000,1000,1505,1503,1407,1505,0.9606,-0.2083,-0.0454,-0.0136,-0.0213,0.9847,0.0801,-0.0297,-0.0765,0.0260,0.2204,0.0082,0.0438,0.2204,0.0082,0.0438,0.3000,0.0500,0.0002,0,-1.3605,-121.0000,-0.0152,-1.3605,-121.0000,-0.0152
-23.1763,11.5800,-2.8931,-0.4114,0.4114,0.1200,0.1200,0.0000,0.0000,0.0529,-0.0252,0.0018,996,1502,1502,1500,1000,1000,1505,1000,1000,1505,1503,1407,1505,1.0989,-0.0329,-0.0259,-0.0096,-0.0170,0.9897,0.0799,-0.0295,-0.0764,0.0259,0.2204,0.0082,0.0438,0.2204,0.0082,0.0438,0.3000,0.0500,0.0002,0,-1.3605,-121.0000,-0.0152,-1.3605,-121.0000,-0.0152
-23.1246,11.5610,-2.8859,-0.4800,0.3429,0.1200,0.1200,0.0000,0.0000,0.0528,-0.0252,0.0021,996,1502,1502,1500,1000,1000,1505,1000,1000,1505,1503,1407,1505,1.0739,0.0601,-0.1391,-0.0132,-0.0186,0.9859,0.0801,-0.0297,-0.0760,0.0255,0.2204,0.0082,0.0438,0.2204,0.0082,0.0438,0.3000,0.0500,0.0002,0,-1.3605,-121.0000,-0.0152,-1.3605,-121.0000,-0.0152
-23.0736,11.5433,-2.8795,-0.4114,0.4800,0.1200,0.1200,0.0000,0.0000,0.0527,-0.0253,0.0022,996,1502,1502,1500,1000,1000,1505,1000,1000,1505,1503,1407,1505,1.0419,0.2241,-0.1409,-0.0106,-0.0221,0.9874,0.0801,-0.0296,-0.0758,0.0253,0.2204,0.0082,0.0438,0.2204,0.0082,0.0438,0.3000,0.0500,0.0002,0,-1.3605,-121.0000,-0.0152,-1.3605,-121.0000,-0.0152
-23.0222,11.5272,-2.8740,-0.4800,0.4114,0.1200,0.1200,0.0000,0.0000,0.0526,-0.0253,0.0023,996,1502,1502,1500,1000,1000,1505,1000,1000,1505,1503,1407,1505,1.1014,0.3257,-0.1997,-0.0113,-0.0224,0.9865,0.0802,-0.0296,-0.0755,0.0250,0.2204,0.0082,0.0438,0.2204,0.0082,0.0438,0.3000,0.0500,0.0002,0,-1.3605,-121.0000,-0.0152,-1.3605,-121.0000,-0.0152
-22.9706,11.5118,-2.8688,-0.4800,0.4114,0.1200,0.1200,0.0000,0.0000,0.0525,-0.0253,0.0020,996,1502,1502,1500,1000,1000,1505,1000,1000,1505,1503,1407,1505,1.1226,0.4462,-0.1228,-0.0134,-0.0182,0.9882,0.0798,-0.0292,-0.0757,0.0251,0.2204,0.0082,0.0438,0.2204,0.0082,0.0438,0.3000,0.0500,0.0002,0,-1.3605,-121.0000,-0.0152,-1.3605,-121.0000,-0.0152
-22.9189,11.4973,-2.8640,-0.4800,0.4800,0.1200,0.1200,0.0000,0.0000,0.0523,-0.0253,0.0021,998,1504,1504,1501,1000,1000,1505,1000,1000,1505,1503,1407,1505,1.1418,0.4074,-0.1734,-0.0142,-0.0168,0.9844,0.0797,-0.0292,-0.0754,0.0249,0.2204,0.0082,0.0438,0.2204,0.0082,0.0438,0.3000,0.0500,0.0002,0,-1.3605,-121.0000,-0.0152,-1.3605,-121.0000,-0.0152
-22.8672,11.4826,-2.8586,-0.4800,0.4800,0.1200,0.1200,0.0000,0.0000,0.0523,-0.0252,0.0018,996,1502,1502,1500,1000,1000,1505,1000,1000,1505,1503,1407,1505,1.0045,0.3943,-0.0310,-0.0110,-0.0170,0.9894,0.0793,-0.0288,-0.0757,0.0253,0.2204,0.0082,0.0438,0.2204,0.0082,0.0438,0.3000,0.0500,0.0002,0,-1.3605,-121.0000,-0.0152,-1.3605,-121.0000,-0.0152
-22.8156,11.4690,-2.8527,-0.4114,0.4800,0.1200,0.1200,0.0000,0.0000,0.0521,-0.0253,0.0014,996,1502,1502,1500,1000,1000,1505,1000,1000,1505,1503,1407,1505,1.0757,0.6143,0.0844,-0.0133,-0.0182,0.9872,0.0789,-0.0283,-0.0760,0.0254,0.2204,0.0082,0.0438,0.2204,0.0082,0.0438,0.3000,0.0500,0.0002,0,-1.3605,-121.0000,-0.0152,-1.3605,-121.0000,-0.0152
-22.7642,11.4567,-2.8466,-0.4114,0.4114,0.1200,0.1200,0.0000,0.0000,0.0520,-0.0252,0.0015,996,1502,1502,1500,1000,1000,1505,1000,1000,1505,1503,1407,1505,1.1015,0.5962,0.0454,-0.0145,-0.0177,0.9876,0.0788,-0.0283,-0.0757,0.0252,0.2204,0.0082,0.0438,0.2204,0.0082,0.0438,0.3000,0.0500,0.0002,0,-1.3605,-121.0000,-0.0152,-1.3605,-121.0000,-0.0152
-22.7133,11.4437,-2.8408,-0.5486,0.4114,0.1200,0.1200,0.0000,0.0000,0.0519,-0.0252,0.0015,996,1502,1502,1500,1000,1000,1505,1000,1000,1505,1503,1407,1505,0.9833,0.5331,0.0565,-0.0115,-0.0169,0.9866,0.0786,-0.0282,-0.0756,0.0253,0.2204,0.0082,0.0438,0.2204,0.0082,0.0438,0.3000,0.0500,0.0002,0,-1.3605,-121.0000,-0.0152,-1.3605,-121.0000,-0.0152
-22.6633,11.4308,-2.8349,-0.4800,0.4114,0.1200,0.1200,0.0000,0.0000,0.0519,-0.0252,0.0018,996,1502,1502,1500,1000,1000,1505,1000,1000,1505,1503,1407,1505,0.8772,0.5625,-0.0297,-0.0135,-0.0179,0.9875,0.0789,-0.0285,-0.0753,0.0249,0.2204,0.0082,0.0438,0.2204,0.0082,0.0438,0.3000,0.0500,0.0002,0,-1.3605,-121.0000,-0.0152,-1.3605,-121.0000,-0.0152
-22.6134,11.4182,-2.8293,-0.4800,0.4114,0.1200,0.1200,0.0000,0.0000,0.0517,-0.0252,0.0015,998,1504,1502,1501,1000,1000,1505,1000,1000,1505,1503,1407,1505,0.9242,0.6875,0.0704,-0.0131,-0.0197,0.9938,0.0784,-0.0280,-0.0755,0.0251,0.2204,0.0082,0.0438,0.2204,0.0082,0.0438,0.3000,0.0500,0.0002,0,-1.3605,-121.0000,-0.0152,-1.3605,-121.0000,-0.0152
-22.5632,11.4062,-2.8235,-0.4800,0.4800,0.1200,0.1200,0.0000,0.0000,0.0516,-0.0251,0.0016,996,1502,1502,1500,1000,1000,1505,1000,1000,1505,1503,1407,1505,0.9538,0.5770,0.0255,-0.0155,-0.0199,0.9837,0.0784,-0.0281,-0.0751,0.0249,0.2204,0.0082,0.0438,0.2204,0.0082,0.0438,0.3000,0.0500,0.0002,0,-1.3605,-121.0000,-0.0152,-1.3605,-121.0000,-0.0152
-22.5127,11.3924,-2.8173,-0.4114,0.4800,0.1200,0.1200,0.0000,0.0000,0.0515,-0.0250,0.0019,996,1502,1502,1500,1000,1000,1505,1000,1000,1505,1503,1407,1505,0.9756,0.4284,-0.0470,-0.0156,-0.0195,0.9898,0.0784,-0.0283,-0.0747,0.0246,0.2204,0.0082,0.0438,0.2204,0.0082,0.0438,0.3000,0.0500,0.0002,0,-1.3605,-121.0000,-0.0152,-1.3605,-121.0000,-0.0152
-22.4623,11.3784,-2.8113,-0.4114,0.4114,0.1200,0.1200,0.0000,0.0000,0.0514,-0.0250,0.0019,996,1502,1502,1500,1000,1000,1505,1000,1000,1505,1503,1407,1505,0.9501,0.4126,-0.0618,-0.0148,-0.0175,0.9861,0.0783,-0.0283,-0.0745,0.0245,0.2204,0.0082,0.0438,0.2204,0.0082,0.0438,0.3000,0.0500,0.0002,0,-1.3605,-121.0000,-0.0152,-1.3605,-121.0000,-0.0152
-22.4120,11.3633,-2.8053,-0.4800,0.4114,0.1200,0.1200,0.0000,0.0000,0.0513,-0.0250,0.0018,996,1502,1502,1500,1000,1000,1505,1000,1000,1505,1503,1407,1505,0.9343,0.3932,-0.0265,-0.0164,-0.0166,0.9914,0.0780,-0.0281,-0.0745,0.0246,0.2204,0.0082,0.0438,0.2204,0.0082,0.0438,0.3000,0.0500,0.0002,0,-1.3605,-121.0000,-0.0152,-1.3605,-121.0000,-0.0152
-22.3620,11.3483,-2.7990,-0.4800,0.4800,0.1200,0.1200,0.0000,0.0000,0.0512,-0.0249,0.0017,996,1502,1502,1500,1000,1000,1505,1000,1000,1505,1503,1407,1505,0.9310,0.3562,0.0128,-0.0128,-0.0208,0.9860,0.0778,-0.0280,-0.0744,0.0246,0.2204,0.0082,0.0438,0.2204,0.0082,0.0438,0.3000,0.0500,0.0002,0,-1.3605,-121.0000,-0.0152,-1.3605,-121.0000,-0.0152
-22.3123,11.3327,-2.7928,-0.4800,0.4800,0.1200,0.1200,0.0000,0.0000,0.0511,-0.0248,0.0020,998,1504,1504,1501,1000,1000,1505,1000,1000,1505,1503,1407,1505,0.8582,0.3030,-0.0833,-0.0142,-0.0161,0.9859,0.0779,-0.0283,-0.0740,0.0243,0.2204,0.0082,0.0438,0.2204,0.0082,0.0438,0.3000,0.0500,0.0002,0,-1.3605,-121.0000,-0.0152,-1.3605,-121.0000,-0.0152
-22.2636,11.3177,-2.7876,-0.4800,0.4114,0.1200,0.1200,0.0000,0.0000,0.0510,-0.0249,0.0020,996,1502,1502,1500,1000,1000,1505,1000,1000,1505,1503,1407,1505,0.7713,0.4722,-0.0857,-0.0112,-0.0160,0.9883,0.0779,-0.0281,-0.0740,0.0242,0.2204,0.0082,0.0438,0.2204,0.0082,0.0438,0.3000,0.0500,0.0002,0,-1.3605,-121.0000,-0.0152,-1.3605,-121.0000,-0.0152
-22.2151,11.3028,-2.7822,-0.4800,0.4800,0.1200,0.1200,0.0000,0.0000,0.0509,-0.0248,0.0021,996,1502,1502,1500,1000,1000,1505,1000,1000,1505,1503,1407,1505,0.7648,0.4558,-0.1281,-0.0153,-0.0180,0.9859,0.0779,-0.0282,-0.0737,0.0240,0.2204,0.0082,0.0438,0.2204,0.0082,0.0438,0.3000,0.0500,0.0002,0,-1.3605,-121.0000,-0.0152,-1.3605,-121.0000,-0.0152
-22.1669,11.2887,-2.7767,-0.4800,0.2743,0.1200,0.1200,0.0000,0.0000,0.0509,-0.0249,0.0019,996,1502,1502,1500,1000,1000,1505,1000,1000,1505,1503,1407,1505,0.6775,0.5354,-0.0695,-0.0144,-0.0159,0.9883,0.0776,-0.0279,-0.0739,0.0242,0.2204,0.0082,0.0438,0.2204,0.0082,0.0438,0.3000,0.0500,0.0002,0,-1.3605,-121.0000,-0.0152,-1.3605,-121.0000,-0.0152
