roll_imu,pitch_imu,yaw_imu,alpha,beta,roll_des,pitch_des,yaw_des,throttle_des,roll_pid,pitch_pid,yaw_pid,radio_ch1,radio_ch2,radio_ch3,radio_ch4,radio_ch5,radio_ch6,radio_ch7,radio_ch8,radio_ch9,radio_ch10,radio_ch11,radio_ch12,radio_ch13,GyroX,GyroY,GyroZ,AccX,AccY,AccZ,s1_command,s2_command,s3_command,s4_command,kp_roll,ki_roll,kd_roll,kp_pitch,ki_pitch,kd_pitch,kp_yaw,ki_yaw,kd_yaw,failsafeTriggered,kp_alphaRoll,ki_alphaRoll,kd_alphaRoll,kp_betaPitch,ki_betaPitch,kd_betaPitch,ripIMU_roll,ripIMU_pitch,ripRoll_des,ripPitch_des
0.0000,0.0000,0.0000,44.8343,34.1860,0.0000,0.0000,0.0000,0.0000,0.0000,0.0000,0.0000,1000,1500,1500,1500,2000,1000,1000,1000,1500,1500,1500,1500,1500,0.0000,0.0000,0.0000,0.0000,0.0000,0.0000,0.0000,0.0000,0.0000,0.0000,0.3317,0.0082,0.0673,0.3317,0.0082,0.0673,0.3000,0.0600,0.0002,0,-0.3000,-100.0000,-0.0010,-0.3000,-100.0000,-0.0010,0.0000,0.0000,0.0000,0.0000
-19.5563,46.0384,-8.9028,0.5801,0.0821,-7.8600,-8.0400,-42.8800,0.0000,0.0766,-0.3292,-0.1273,910,1369,1366,1366,1000,1000,1505,1000,1505,1418,1241,1077,1016,2.0861,-0.2123,-0.3921,-0.0498,-0.0236,0.9376,0.2784,0.3799,-0.5331,-0.1252,0.6090,0.0280,0.0777,0.6090,0.0280,0.0777,0.3000,0.0600,0.0002,0,-0.3000,-100.0000,-0.0010,-0.3000,-100.0000,-0.0010,14.5132,48.8761,-1.3100,-1.3400
-19.5104,46.0017,-8.8899,0.5801,0.0821,-2.3400,-2.3400,-12.4800,0.0000,0.1094,-0.2938,-0.0369,971,1461,1461,1461,1000,1000,1505,1000,1505,1417,1241,1077,1015,2.6848,-0.3833,-0.2511,-0.0535,-0.0272,0.9958,0.3663,0.2213,-0.4400,-0.1476,0.6083,0.0280,0.0777,0.6083,0.0280,0.0777,0.3000,0.0600,0.0002,0,-0.3000,-100.0000,-0.0010,-0.3000,-100.0000,-0.0010,14.5527,48.9142,-0.3900,-0.3900
-19.4596,45.9658,-8.8747,0.5801,0.1642,-0.6000,-0.7800,-4.1600,0.0000,0.1196,-0.2845,-0.0125,991,1490,1487,1487,1000,1000,1505,1000,1505,1418,1241,1077,1016,2.9089,-0.1966,-0.0687,-0.0531,-0.0323,1.0010,0.3916,0.1775,-0.4166,-0.1524,0.6090,0.0280,0.0777,0.6090,0.0280,0.0777,0.3000,0.0600,0.0002,0,-0.3000,-100.0000,-0.0010,-0.3000,-100.0000,-0.0010,14.5935,48.9524,-0.1000,-0.1300
-19.4060,45.9307,-8.8584,0.5801,0.0821,0.0000,-0.1800,-0.9600,0.0000,0.1228,-0.2806,-0.0031,996,1500,1497,1497,1000,1000,1505,1000,1505,1418,1241,1077,1016,3.0696,-0.2562,-0.0091,-0.0521,-0.0308,1.0039,0.4003,0.1609,-0.4065,-0.1547,0.6090,0.0280,0.0777,0.6090,0.0280,0.0777,0.3000,0.0600,0.0002,0,-0.3000,-100.0000,-0.0010,-0.3000,-100.0000,-0.0010,14.6345,48.9905,0.0000,-0.0300
-19.3500,45.8954,-8.8415,0.5801,0.0821,0.1200,0.0000,0.0000,0.0000,0.1229,-0.2790,-0.0000,996,1502,1500,1500,1000,1000,1505,1000,1505,1417,1241,1077,1016,3.2803,-0.2272,-0.0418,-0.0556,-0.0288,1.0052,0.4019,0.1562,-0.4019,-0.1561,0.6083,0.0280,0.0777,0.6083,0.0280,0.0777,0.3000,0.0600,0.0002,0,-0.3000,-100.0000,-0.0010,-0.3000,-100.0000,-0.0010,14.6756,49.0286,0.0200,0.0000
-19.2925,45.8608,-8.8264,0.5801,0.0821,0.1200,0.0000,0.0000,0.0000,0.1224,-0.2788,0.0005,996,1502,1500,1500,1000,1000,1505,1000,1505,1417,1241,1077,1016,3.4927,-0.2250,-0.2205,-0.0533,-0.0235,1.0062,0.4017,0.1559,-0.4007,-0.1570,0.6083,0.0280,0.0777,0.6083,0.0280,0.0777,0.3000,0.0600,0.0002,0,-0.3000,-100.0000,-0.0010,-0.3000,-100.0000,-0.0010,14.7167,49.0667,0.0200,0.0000
-19.2348,45.8273,-8.8129,0.6630,0.0821,0.2400,0.0600,0.3200,0.0000,0.1228,-0.2788,0.0023,997,1503,1500,1500,1000,1000,1505,1000,1505,1418,1241,1077,1016,3.6165,0.0576,-0.1992,-0.0521,-0.0190,1.0030,0.4039,0.1537,-0.3992,-0.1583,0.6090,0.0280,0.0777,0.6090,0.0280,0.0777,0.3000,0.0600,0.0002,0,-0.3000,-100.0000,-0.0010,-0.3000,-100.0000,-0.0010,14.7578,49.1048,0.0400,0.0100
-19.1767,45.7956,-8.8006,0.5801,0.0821,0.1200,0.0000,0.0000,0.0000,0.1217,-0.2790,0.0005,996,1502,1500,1500,1000,1000,1505,1000,1505,1418,1241,1077,1016,3.6595,0.1488,-0.2227,-0.0535,-0.0159,0.9989,0.4011,0.1569,-0.4002,-0.1578,0.6090,0.0280,0.0777,0.6090,0.0280,0.0777,0.3000,0.0600,0.0002,0,-0.3000,-100.0000,-0.0010,-0.3000,-100.0000,-0.0010,14.7989,49.1429,0.0200,0.0000
-19.1188,45.7641,-8.7878,0.5801,0.0821,0.1200,0.0000,0.0000,0.0000,0.1214,-0.2788,0.0002,996,1502,1500,1500,1000,1000,1505,1000,1505,1418,1241,1077,1016,3.5411,0.1303,-0.1390,-0.0504,-0.0171,1.0071,0.4004,0.1572,-0.4000,-0.1576,0.6090,0.0280,0.0777,0.6090,0.0280,0.0777,0.3000,0.0600,0.0002,0,-0.3000,-100.0000,-0.0010,-0.3000,-100.0000,-0.0010,14.8400,49.1810,0.0200,0.0000
-19.0618,45.7336,-8.7746,0.5801,0.0821,0.1200,0.0000,0.0000,0.0000,0.1212,-0.2787,-0.0001,996,1502,1500,1500,1000,1000,1505,1000,1505,1418,1241,1077,1015,3.3667,0.2580,-0.0343,-0.0537,-0.0212,1.0067,0.3998,0.1576,-0.4000,-0.1574,0.6090,0.0280,0.0777,0.6090,0.0280,0.0777,0.3000,0.0600,0.0002,0,-0.3000,-100.0000,-0.0010,-0.3000,-100.0000,-0.0010,14.8811,49.2190,0.0200,0.0000
-19.0069,45.7033,-8.7604,0.5801,0.0821,0.1200,0.0000,0.0000,0.0000,0.1211,-0.2785,-0.0004,996,1502,1500,1500,1000,1000,1505,1000,1505,1418,1241,1077,1015,3.0413,0.1820,0.0514,-0.0574,-0.0200,1.0061,0.3992,0.1577,-0.3999,-0.1570,0.6090,0.0280,0.0777,0.6090,0.0280,0.0777,0.3000,0.0600,0.0002,0,-0.3000,-100.0000,-0.0010,-0.3000,-100.0000,-0.0010,14.9223,49.2571,0.0200,0.0000
-18.9543,45.6716,-8.7445,0.5801,0.0821,0.1200,0.0000,0.0000,0.0000,0.1210,-0.2782,-0.0002,996,1502,1500,1500,1000,1000,1505,1000,1505,1418,1241,1077,1015,2.7600,0.0381,0.0243,-0.0564,-0.0167,1.0083,0.3989,0.1574,-0.3994,-0.1569,0.6090,0.0280,0.0777,0.6090,0.0280,0.0777,0.3000,0.0600,0.0002,0,-0.3000,-100.0000,-0.0010,-0.3000,-100.0000,-0.0010,14.9634,49.2951,0.0200,0.0000
-18.9060,45.6379,-8.7299,0.5801,0.0821,0.2400,0.0600,0.3200,0.0000,0.1217,-0.2775,0.0024,997,1503,1500,1500,1000,1000,1505,1000,1505,1418,1241,1077,1016,2.3851,-0.1081,-0.2210,-0.0556,-0.0142,1.0039,0.4016,0.1533,-0.3968,-0.1582,0.6090,0.0280,0.0777,0.6090,0.0280,0.0777,0.3000,0.0600,0.0002,0,-0.3000,-100.0000,-0.0010,-0.3000,-100.0000,-0.0010,15.0046,49.3331,0.0400,0.0100
-18.8633,45.6030,-8.7176,0.5801,0.1642,0.1200,0.0000,0.0000,0.0000,0.1210,-0.2775,0.0011,996,1502,1500,1500,1000,1000,1505,1000,1505,1418,1241,1077,1016,2.0448,-0.2697,-0.4226,-0.0531,-0.0135,1.0035,0.3996,0.1554,-0.3974,-0.1576,0.6090,0.0280,0.0777,0.6090,0.0280,0.0777,0.3000,0.0600,0.0002,0,-0.3000,-100.0000,-0.0010,-0.3000,-100.0000,-0.0010,15.0458,49.3711,0.0200,0.0000
-18.8245,45.5664,-8.7070,0.5801,0.0821,0.1200,0.0000,0.0000,0.0000,0.1210,-0.2773,0.0013,996,1502,1500,1500,1000,1000,1505,1000,1505,1418,1241,1077,1015,1.8038,-0.2982,-0.5035,-0.0560,-0.0115,1.0079,0.3995,0.1550,-0.3969,-0.1576,0.6090,0.0280,0.0777,0.6090,0.0280,0.0777,0.3000,0.0600,0.0002,0,-0.3000,-100.0000,-0.0010,-0.3000,-100.0000,-0.0010,15.0870,49.4091,0.0200,0.0000
-18.7890,45.5301,-8.6969,0.5801,0.0821,0.1200,0.0000,0.0000,0.0000,0.1209,-0.2772,0.0014,996,1502,1500,1500,1000,1000,1505,1000,1505,1418,1241,1077,1015,1.5460,-0.1381,-0.5162,-0.0560,-0.0151,1.0027,0.3995,0.1549,-0.3967,-0.1576,0.6090,0.0280,0.0777,0.6090,0.0280,0.0777,0.3000,0.0600,0.0002,0,-0.3000,-100.0000,-0.0010,-0.3000,-100.0000,-0.0010,15.1282,49.4471,0.0200,0.0000
-18.7565,45.4945,-8.6872,0.5801,0.0821,0.1200,0.0000,0.0000,0.0000,0.1209,-0.2769,0.0010,996,1502,1500,1500,1000,1000,1505,1000,1505,1418,1241,1077,1016,1.3203,-0.1814,-0.4158,-0.0548,-0.0199,0.9998,0.3988,0.1550,-0.3968,-0.1570,0.6090,0.0280,0.0777,0.6090,0.0280,0.0777,0.3000,0.0600,0.0002,0,-0.3000,-100.0000,-0.0010,-0.3000,-100.0000,-0.0010,15.1694,49.4850,0.0200,0.0000
-18.7232,45.4582,-8.6746,0.5801,0.0821,0.1200,0.0000,0.0000,0.0000,0.1207,-0.2766,0.0002,996,1502,1500,1500,1000,1000,1505,1000,1505,1418,1241,1077,1016,1.2983,-0.3654,-0.1617,-0.0539,-0.0221,1.0053,0.3975,0.1556,-0.3971,-0.1560,0.6090,0.0280,0.0777,0.6090,0.0280,0.0777,0.3000,0.0600,0.0002,0,-0.3000,-100.0000,-0.0010,-0.3000,-100.0000,-0.0010,15.2107,49.5230,0.0200,0.0000
-18.6845,45.4212,-8.6565,0.5801,0.0821,0.2400,0.0600,0.3200,0.0000,0.1210,-0.2758,0.0013,997,1503,1500,1500,1000,1000,1505,1000,1505,1418,1241,1077,1015,1.5742,-0.5241,0.1403,-0.0545,-0.0213,1.0010,0.3982,0.1535,-0.3956,-0.1561,0.6090,0.0280,0.0777,0.6090,0.0280,0.0777,0.3000,0.0600,0.0002,0,-0.3000,-100.0000,-0.0010,-0.3000,-100.0000,-0.0010,15.2519,49.5609,0.0400,0.0100
-18.6401,45.3840,-8.6349,0.5801,0.0821,0.1200,0.0000,0.0000,0.0000,0.1197,-0.2756,-0.0012,996,1502,1500,1500,1000,1000,1505,1000,1505,1417,1241,1077,1015,1.8183,-0.5909,0.3376,-0.0505,-0.0190,1.0052,0.3941,0.1571,-0.3965,-0.1547,0.6083,0.0280,0.0777,0.6083,0.0280,0.0777,0.3000,0.0600,0.0002,0,-0.3000,-100.0000,-0.0010,-0.3000,-100.0000,-0.0010,15.2932,49.5988,0.0200,0.0000
-18.5941,45.3479,-8.6128,0.5801,0.0821,0.1200,0.0000,0.0000,0.0000,0.1194,-0.2756,-0.0009,996,1502,1500,1500,1000,1000,1505,1000,1505,1417,1241,1077,1015,1.8242,-0.3528,0.2345,-0.0495,-0.0144,1.0035,0.3941,0.1571,-0.3959,-0.1553,0.6083,0.0280,0.0777,0.6083,0.0280,0.0777,0.3000,0.0600,0.0002,0,-0.3000,-100.0000,-0.0010,-0.3000,-100.0000,-0.0010,15.3344,49.6366,0.0200,0.0000
-18.5502,45.3145,-8.5941,0.5801,0.0821,0.1200,0.0000,0.0000,0.0000,0.1191,-0.2757,-0.0003,996,1502,1500,1500,1000,1000,1505,1000,1505,1417,1241,1077,1015,1.8878,0.0382,0.0554,-0.0479,-0.0158,0.9998,0.3945,0.1569,-0.3951,-0.1562,0.6083,0.0280,0.0777,0.6083,0.0280,0.0777,0.3000,0.0600,0.0002,0,-0.3000,-100.0000,-0.0010,-0.3000,-100.0000,-0.0010,15.3757,49.6745,0.0200,0.0000
-18.5096,45.2838,-8.5796,0.5801,0.0821,0.1200,0.0000,0.0000,0.0000,0.1189,-0.2757,0.0000,996,1502,1500,1500,1000,1000,1505,1000,1505,1417,1241,1077,1015,1.8413,0.3353,-0.0661,-0.0525,-0.0148,1.0016,0.3947,0.1568,-0.3946,-0.1569,0.6083,0.0280,0.0777,0.6083,0.0280,0.0777,0.3000,0.0600,0.0002,0,-0.3000,-100.0000,-0.0010,-0.3000,-100.0000,-0.0010,15.4170,49.7124,0.0200,0.0000
-18.4715,45.2547,-8.5687,0.5801,0.0821,0.1200,0.0000,0.0000,0.0000,0.1187,-0.2756,0.0006,996,1502,1500,1500,1000,1000,1505,1000,1505,1417,1241,1077,1015,1.8336,0.4463,-0.2725,-0.0526,-0.0157,1.0038,0.3949,0.1564,-0.3937,-0.1576,0.6083,0.0280,0.0777,0.6083,0.0280,0.0777,0.3000,0.0600,0.0002,0,-0.3000,-100.0000,-0.0010,-0.3000,-100.0000,-0.0010,15.4583,49.7503,0.0200,0.0000
-18.4356,45.2249,-8.5593,0.5801,0.0821,0.2400,0.0600,0.3200,0.0000,0.1193,-0.2750,0.0026,997,1503,1500,1500,1000,1000,1505,1000,1505,1417,1241,1077,1015,1.7305,0.2999,-0.2868,-0.0547,-0.0124,1.0069,0.3968,0.1531,-0.3917,-0.1583,0.6083,0.0280,0.0777,0.6083,0.0280,0.0777,0.3000,0.0600,0.0002,0,-0.3000,-100.0000,-0.0010,-0.3000,-100.0000,-0.0010,15.4996,49.7882,0.0400,0.0100
-18.3996,45.1930,-8.5501,0.5801,0.0821,0.1200,0.0000,0.0000,0.0000,0.1183,-0.2750,0.0010,996,1502,1500,1500,1000,1000,1505,1000,1505,1417,1241,1077,1015,1.7409,0.1359,-0.3871,-0.0552,-0.0106,1.0005,0.3943,0.1558,-0.3924,-0.1577,0.6083,0.0280,0.0777,0.6083,0.0280,0.0777,0.3000,0.0600,0.0002,0,-0.3000,-100.0000,-0.0010,-0.3000,-100.0000,-0.0010,15.5410,49.8261,0.0200,0.0000
-18.3646,45.1591,-8.5410,0.4972,0.0821,0.1200,0.0000,0.0000,0.0000,0.1183,-0.2750,0.0013,996,1502,1500,1500,1000,1000,1505,1000,1505,1418,1242,1077,1016,1.6463,-0.0776,-0.4956,-0.0566,-0.0144,1.0011,0.3946,0.1553,-0.3919,-0.1580,0.6090,0.0280,0.0777,0.6090,0.0280,0.0777,0.3000,0.0600,0.0002,0,-0.3000,-100.0000,-0.0010,-0.3000,-100.0000,-0.0010,15.5823,49.8639,0.0200,0.0000
-18.3305,45.1230,-8.5319,0.5801,0.0821,0.1200,0.0000,0.0000,0.0000,0.1181,-0.2746,0.0013,996,1502,1500,1500,1000,1000,1505,1000,1505,1418,1242,1077,1016,1.6014,-0.2742,-0.4920,-0.0544,-0.0124,1.0039,0.3940,0.1552,-0.3914,-0.1577,0.6090,0.0280,0.0777,0.6090,0.0280,0.0777,0.3000,0.0600,0.0002,0,-0.3000,-100.0000,-0.0010,-0.3000,-100.0000,-0.0010,15.6237,49.9018,0.0200,0.0000
-18.2959,45.0857,-8.5213,0.5801,0.0821,0.1200,0.0000,0.0000,0.0000,0.1179,-0.2740,0.0011,996,1502,1500,1500,1000,1000,1505,1000,1505,1417,1241,1077,1015,1.4675,-0.3679,-0.4209,-0.0528,-0.0117,1.0050,0.3930,0.1550,-0.3908,-0.1572,0.6083,0.0280,0.0777,0.6083,0.0280,0.0777,0.3000,0.0600,0.0002,0,-0.3000,-100.0000,-0.0010,-0.3000,-100.0000,-0.0010,15.6651,49.9396,0.0200,0.0000
-18.2617,45.0488,-8.5088,0.5801,0.0821,0.1200,0.0000,0.0000,0.0000,0.1178,-0.2739,0.0005,996,1502,1500,1500,1000,1000,1505,1000,1505,1417,1241,1077,1015,1.2885,-0.2532,-0.2363,-0.0511,-0.0098,1.0030,0.3922,0.1555,-0.3911,-0.1566,0.6083,0.0280,0.0777,0.6083,0.0280,0.0777,0.3000,0.0600,0.0002,0,-0.3000,-100.0000,-0.0010,-0.3000,-100.0000,-0.0010,15.7065,49.9775,0.0200,0.0000
-18.2276,45.0133,-8.4947,0.5801,0.0821,0.2400,0.0600,0.3200,0.0000,0.1185,-0.2737,0.0022,997,1503,1500,1500,1000,1000,1505,1000,1505,1418,1241,1077,1015,1.2255,-0.0854,-0.1562,-0.0512,-0.0093,1.0071,0.3944,0.1530,-0.3900,-0.1574,0.6090,0.0280,0.0777,0.6090,0.0280,0.0777,0.3000,0.0600,0.0002,0,-0.3000,-100.0000,-0.0010,-0.3000,-100.0000,-0.0010,15.7479,50.0153,0.0400,0.0100
-18.1945,44.9800,-8.4804,0.5801,0.0821,0.1200,0.0000,0.0000,0.0000,0.1176,-0.2736,-0.0001,996,1502,1500,1500,1000,1000,1505,1000,1505,1417,1241,1077,1015,0.9811,0.0153,-0.0169,-0.0510,-0.0103,1.0056,0.3912,0.1561,-0.3914,-0.1559,0.6083,0.0280,0.0777,0.6083,0.0280,0.0777,0.3000,0.0600,0.0002,0,-0.3000,-100.0000,-0.0010,-0.3000,-100.0000,-0.0010,15.7894,50.0531,0.0200,0.0000
-18.1624,44.9489,-8.4648,0.5801,0.0821,0.1200,0.0000,0.0000,0.0000,0.1175,-0.2736,-0.0004,996,1502,1500,1500,1000,1000,1505,1000,1505,1417,1241,1077,1015,0.9420,0.2034,0.0881,-0.0504,-0.0141,1.0024,0.3906,0.1566,-0.3915,-0.1557,0.6083,0.0280,0.0777,0.6083,0.0280,0.0777,0.3000,0.0600,0.0002,0,-0.3000,-100.0000,-0.0010,-0.3000,-100.0000,-0.0010,15.8308,50.0909,0.0200,0.0000
-18.1305,44.9187,-8.4478,0.6630,0.0821,0.1200,0.0000,0.0000,0.0000,0.1175,-0.2737,-0.0008,996,1502,1500,1500,1000,1000,1505,1000,1505,1418,1241,1077,1015,0.7661,0.1644,0.2215,-0.0530,-0.0073,1.0077,0.3904,0.1569,-0.3920,-0.1553,0.6090,0.0280,0.0777,0.6090,0.0280,0.0777,0.3000,0.0600,0.0002,0,-0.3000,-100.0000,-0.0010,-0.3000,-100.0000,-0.0010,15.8723,50.1287,0.0200,0.0000
-18.0997,44.8891,-8.4290,0.5801,0.0821,0.1200,0.0000,0.0000,0.0000,0.1176,-0.2736,-0.0012,996,1502,1500,1500,1000,1000,1505,1000,1505,1418,1241,1077,1015,0.5102,0.2379,0.3139,-0.0547,-0.0092,1.0073,0.3899,0.1572,-0.3923,-0.1548,0.6090,0.0280,0.0777,0.6090,0.0280,0.0777,0.3000,0.0600,0.0002,0,-0.3000,-100.0000,-0.0010,-0.3000,-100.0000,-0.0010,15.9137,50.1665,0.0200,0.0000
-18.0715,44.8593,-8.4096,0.5801,0.0821,0.1200,0.0000,0.0000,0.0000,0.1176,-0.2733,-0.0013,996,1502,1500,1500,1000,1000,1505,1000,1505,1418,1241,1077,1015,0.1788,0.1567,0.3755,-0.0543,-0.0091,1.0036,0.3896,0.1570,-0.3923,-0.1544,0.6090,0.0280,0.0777,0.6090,0.0280,0.0777,0.3000,0.0600,0.0002,0,-0.3000,-100.0000,-0.0010,-0.3000,-100.0000,-0.0010,15.9552,50.2043,0.0200,0.0000
-18.0453,44.8285,-8.3898,0.5801,0.0821,0.2400,0.0600,0.3200,0.0000,0.1183,-0.2726,0.0006,997,1503,1500,1500,1000,1000,1505,1000,1505,1418,1241,1077,1016,0.0446,-0.0128,0.3812,-0.0541,-0.0078,1.0069,0.3915,0.1537,-0.3904,-0.1549,0.6090,0.0280,0.0777,0.6090,0.0280,0.0777,0.3000,0.0600,0.0002,0,-0.3000,-100.0000,-0.0010,-0.3000,-100.0000,-0.0010,15.9967,50.2421,0.0400,0.0100
-18.0220,44.7958,-8.3696,0.5801,0.0821,0.1200,0.0000,0.0000,0.0000,0.1177,-0.2727,-0.0010,996,1502,1500,1500,1000,1000,1505,1000,1505,1418,1241,1077,1016,-0.3529,-0.1600,0.2805,-0.0581,-0.0105,1.0026,0.3894,0.1559,-0.3914,-0.1539,0.6090,0.0280,0.0777,0.6090,0.0280,0.0777,0.3000,0.0600,0.0002,0,-0.3000,-100.0000,-0.0010,-0.3000,-100.0000,-0.0010,16.0382,50.2798,0.0200,0.0000
-18.0028,44.7618,-8.3507,0.5801,0.0821,0.1200,0.0000,0.0000,0.0000,0.1177,-0.2721,-0.0005,996,1502,1500,1500,1000,1000,1505,1000,1505,1417,1241,1077,1015,-0.6129,-0.2102,0.1005,-0.0572,-0.0096,1.0036,0.3894,0.1549,-0.3904,-0.1539,0.6083,0.0280,0.0777,0.6083,0.0280,0.0777,0.3000,0.0600,0.0002,0,-0.3000,-100.0000,-0.0010,-0.3000,-100.0000,-0.0010,16.0798,50.3176,0.0200,0.0000
-17.9873,44.7265,-8.3340,0.4972,0.0821,0.1200,0.0000,0.0000,0.0000,0.1177,-0.2719,0.0001,996,1502,1500,1500,1000,1000,1505,1000,1505,1417,1241,1077,1015,-0.7200,-0.2568,-0.0902,-0.0550,-0.0100,1.0033,0.3897,0.1541,-0.3895,-0.1543,0.6083,0.0280,0.0777,0.6083,0.0280,0.0777,0.3000,0.0600,0.0002,0,-0.3000,-100.0000,-0.0010,-0.3000,-100.0000,-0.0010,16.1214,50.3554,0.0200,0.0000
-17.9754,44.6908,-8.3203,0.5801,0.0821,0.1200,0.0000,0.0000,0.0000,0.1179,-0.2720,0.0004,996,1502,1500,1500,1000,1000,1505,1000,1505,1418,1241,1077,1015,-0.8735,-0.1941,-0.1769,-0.0511,-0.0116,1.0062,0.3903,0.1538,-0.3895,-0.1545,0.6090,0.0280,0.0777,0.6090,0.0280,0.0777,0.3000,0.0600,0.0002,0,-0.3000,-100.0000,-0.0010,-0.3000,-100.0000,-0.0010,16.1630,50.3932,0.0200,0.0000
-17.9639,44.6555,-8.3061,0.5801,0.0821,0.1200,0.0000,0.0000,0.0000,0.1178,-0.2718,0.0000,996,1502,1500,1500,1000,1000,1505,1000,1505,1418,1241,1077,1015,-0.8765,-0.1921,-0.0825,-0.0517,-0.0123,1.0056,0.3896,0.1540,-0.3896,-0.1540,0.6090,0.0280,0.0777,0.6090,0.0280,0.0777,0.3000,0.0600,0.0002,0,-0.3000,-100.0000,-0.0010,-0.3000,-100.0000,-0.0010,16.2046,50.4310,0.0200,0.0000
-17.9510,44.6214,-8.2899,0.5801,0.1642,0.2400,0.0600,0.3200,0.0000,0.1183,-0.2710,0.0013,997,1503,1500,1500,1000,1000,1505,1000,1505,1417,1241,1077,1015,-0.8863,-0.1085,0.1311,-0.0528,-0.0127,1.0020,0.3907,0.1513,-0.3880,-0.1540,0.6083,0.0280,0.0777,0.6083,0.0280,0.0777,0.3000,0.0600,0.0002,0,-0.3000,-100.0000,-0.0010,-0.3000,-100.0000,-0.0010,16.2462,50.4688,0.0400,0.0100
-17.9361,44.5883,-8.2715,0.5801,0.0821,0.1200,0.0000,0.0000,0.0000,0.1176,-0.2715,-0.0011,996,1502,1500,1500,1000,1000,1505,1000,1505,1418,1241,1077,1015,-0.8562,-0.0690,0.2822,-0.0538,-0.0145,1.0027,0.3880,0.1550,-0.3902,-0.1528,0.6090,0.0280,0.0777,0.6090,0.0280,0.0777,0.3000,0.0600,0.0002,0,-0.3000,-100.0000,-0.0010,-0.3000,-100.0000,-0.0010,16.2878,50.5066,0.0200,0.0000
-17.9211,44.5566,-8.2513,0.5801,0.0821,0.1200,0.0000,0.0000,0.0000,0.1177,-0.2714,-0.0014,996,1502,1500,1500,1000,1000,1505,1000,1505,1418,1241,1077,1015,-1.1037,0.0734,0.3904,-0.0524,-0.0119,1.0003,0.3878,0.1551,-0.3905,-0.1523,0.6090,0.0280,0.0777,0.6090,0.0280,0.0777,0.3000,0.0600,0.0002,0,-0.3000,-100.0000,-0.0010,-0.3000,-100.0000,-0.0010,16.3294,50.5443,0.0200,0.0000
-17.9079,44.5258,-8.2319,0.5801,0.0821,0.1200,0.0000,0.0000,0.0000,0.1175,-0.2710,-0.0010,996,1502,1500,1500,1000,1000,1505,1000,1505,1417,1241,1077,1015,-1.0843,0.1561,0.2672,-0.0539,-0.0127,1.0026,0.3875,0.1545,-0.3895,-0.1525,0.6083,0.0280,0.0777,0.6083,0.0280,0.0777,0.3000,0.0600,0.0002,0,-0.3000,-100.0000,-0.0010,-0.3000,-100.0000,-0.0010,16.3711,50.5819,0.0200,0.0000
-17.8969,44.4958,-8.2147,0.5801,0.0821,0.1200,0.0000,0.0000,0.0000,0.1175,-0.2709,-0.0008,996,1502,1500,1500,1000,1000,1505,1000,1505,1417,1241,1077,1015,-1.2107,0.2655,0.1821,-0.0528,-0.0105,1.0052,0.3877,0.1541,-0.3892,-0.1526,0.6083,0.0280,0.0777,0.6083,0.0280,0.0777,0.3000,0.0600,0.0002,0,-0.3000,-100.0000,-0.0010,-0.3000,-100.0000,-0.0010,16.4127,50.6196,0.0200,0.0000
-17.8885,44.4658,-8.1979,0.5801,0.0821,0.1200,0.0000,0.0000,0.0000,0.1178,-0.2709,-0.0007,996,1502,1500,1500,1000,1000,1505,1000,1505,1418,1241,1077,1015,-1.4396,0.1905,0.1818,-0.0533,-0.0121,1.0012,0.3880,0.1539,-0.3895,-0.1524,0.6090,0.0280,0.0777,0.6090,0.0280,0.0777,0.3000,0.0600,0.0002,0,-0.3000,-100.0000,-0.0010,-0.3000,-100.0000,-0.0010,16.4543,50.6573,0.0200,0.0000
-17.8815,44.4343,-8.1820,0.5801,0.1642,0.2400,0.0600,0.3200,0.0000,0.1185,-0.2703,0.0018,997,1503,1500,1500,1000,1000,1505,1000,1505,1418,1241,1077,1015,-1.4271,0.0135,0.0072,-0.0531,-0.0125,1.0067,0.3905,0.1500,-0.3869,-0.1536,0.6090,0.0280,0.0777,0.6090,0.0280,0.0777,0.3000,0.0600,0.0002,0,-0.3000,-100.0000,-0.0010,-0.3000,-100.0000,-0.0010,16.4960,50.6949,0.0400,0.0100
-17.8756,44.4004,-8.1666,0.5801,0.0821,0.1200,0.0000,0.0000,0.0000,0.1178,-0.2703,-0.0001,996,1502,1500,1500,1000,1000,1505,1000,1505,1418,1241,1077,1015,-1.5835,-0.1784,-0.0096,-0.0556,-0.0144,1.0047,0.3879,0.1526,-0.3882,-0.1523,0.6090,0.0280,0.0777,0.6090,0.0280,0.0777,0.3000,0.0600,0.0002,0,-0.3000,-100.0000,-0.0010,-0.3000,-100.0000,-0.0010,16.5377,50.7326,0.0200,0.0000
-17.8703,44.3651,-8.1515,0.5801,0.0821,0.1200,0.0000,0.0000,0.0000,0.1177,-0.2700,0.0001,996,1502,1500,1500,1000,1000,1505,1000,1505,1418,1241,1077,1016,-1.4805,-0.2753,-0.1082,-0.0550,-0.0148,0.9986,0.3878,0.1521,-0.3875,-0.1524,0.6090,0.0280,0.0777,0.6090,0.0280,0.0777,0.3000,0.0600,0.0002,0,-0.3000,-100.0000,-0.0010,-0.3000,-100.0000,-0.0010,16.5794,50.7702,0.0200,0.0000
-17.8644,44.3288,-8.1362,0.5801,0.0821,0.1200,0.0000,0.0000,0.0000,0.1177,-0.2698,-0.0000,996,1502,1500,1500,1000,1000,1505,1000,1505,1418,1241,1077,1016,-1.5080,-0.2145,-0.0688,-0.0542,-0.0139,1.0013,0.3875,0.1521,-0.3875,-0.1521,0.6090,0.0280,0.0777,0.6090,0.0280,0.0777,0.3000,0.0600,0.0002,0,-0.3000,-100.0000,-0.0010,-0.3000,-100.0000,-0.0010,16.6211,50.8078,0.0200,0.0000
-17.8562,44.2928,-8.1198,0.5801,0.0821,0.1200,0.0000,0.0000,0.0000,0.1173,-0.2692,-0.0004,996,1502,1500,1500,1000,1000,1505,1000,1505,1417,1241,1077,1015,-1.2204,-0.3507,0.0558,-0.0561,-0.0134,1.0028,0.3861,0.1523,-0.3868,-0.1515,0.6083,0.0280,0.0777,0.6083,0.0280,0.0777,0.3000,0.0600,0.0002,0,-0.3000,-100.0000,-0.0010,-0.3000,-100.0000,-0.0010,16.6628,50.8454,0.0200,0.0000
-17.8450,44.2569,-8.1028,0.5801,0.0821,0.1200,0.0000,0.0000,0.0000,0.1171,-0.2690,-0.0006,996,1502,1500,1500,1000,1000,1505,1000,1505,1417,1241,1077,1015,-1.0096,-0.3104,0.1200,-0.0528,-0.0153,1.0079,0.3855,0.1525,-0.3867,-0.1513,0.6083,0.0280,0.0777,0.6083,0.0280,0.0777,0.3000,0.0600,0.0002,0,-0.3000,-100.0000,-0.0010,-0.3000,-100.0000,-0.0010,16.7045,50.8829,0.0200,0.0000
-17.8272,44.2206,-8.0826,0.5801,0.0821,0.2400,0.0600,0.3200,0.0000,0.1174,-0.2686,0.0007,997,1503,1500,1500,1000,1000,1505,1000,1505,1418,1241,1077,1016,-0.4483,-0.4207,0.3339,-0.0565,-0.0176,0.9996,0.3866,0.1506,-0.3853,-0.1519,0.6090,0.0280,0.0777,0.6090,0.0280,0.0777,0.3000,0.0600,0.0002,0,-0.3000,-100.0000,-0.0010,-0.3000,-100.0000,-0.0010,16.7463,50.9205,0.0400,0.0100
-17.8026,44.1850,-8.0610,0.5801,0.0821,0.1200,0.0000,0.0000,0.0000,0.1160,-0.2688,-0.0013,996,1502,1500,1500,1000,1000,1505,1000,1505,1418,1241,1077,1016,0.1207,-0.3208,0.3632,-0.0552,-0.0209,1.0020,0.3836,0.1541,-0.3862,-0.1515,0.6090,0.0280,0.0777,0.6090,0.0280,0.0777,0.3000,0.0600,0.0002,0,-0.3000,-100.0000,-0.0010,-0.3000,-100.0000,-0.0010,16.7881,50.9581,0.0200,0.0000
-17.7726,44.1501,-8.0396,0.5801,0.0821,0.1200,0.0000,0.0000,0.0000,0.1155,-0.2687,-0.0012,996,1502,1500,1500,1000,1000,1505,1000,1505,1418,1241,1077,1016,0.6143,-0.2565,0.3316,-0.0497,-0.0232,1.0073,0.3830,0.1544,-0.3853,-0.1520,0.6090,0.0280,0.0777,0.6090,0.0280,0.0777,0.3000,0.0600,0.0002,0,-0.3000,-100.0000,-0.0010,-0.3000,-100.0000,-0.0010,16.8299,50.9956,0.0200,0.0000
-17.7386,44.1160,-8.0196,0.5801,0.0821,0.1200,0.0000,0.0000,0.0000,0.1148,-0.2684,-0.0011,996,1502,1500,1500,1000,1000,1505,1000,1505,1417,1241,1077,1015,1.1114,-0.0197,0.3221,-0.0523,-0.0217,1.0038,0.3820,0.1547,-0.3842,-0.1525,0.6083,0.0280,0.0777,0.6083,0.0280,0.0777,0.3000,0.0600,0.0002,0,-0.3000,-100.0000,-0.0010,-0.3000,-100.0000,-0.0010,16.8717,51.0332,0.0200,0.0000
-17.7017,44.0834,-8.0012,0.5801,0.0821,0.1200,0.0000,0.0000,0.0000,0.1143,-0.2682,-0.0010,996,1502,1500,1500,1000,1000,1505,1000,1505,1417,1241,1077,1015,1.3648,0.0802,0.2588,-0.0538,-0.0168,1.0023,0.3816,0.1549,-0.3836,-0.1529,0.6083,0.0280,0.0777,0.6083,0.0280,0.0777,0.3000,0.0600,0.0002,0,-0.3000,-100.0000,-0.0010,-0.3000,-100.0000,-0.0010,16.9135,51.0707,0.0200,0.0000
-17.6615,44.0520,-7.9833,0.5801,0.1642,0.1200,0.0000,0.0000,0.0000,0.1139,-0.2684,-0.0009,996,1502,1500,1500,1000,1000,1505,1000,1505,1418,1241,1077,1015,1.7923,0.1653,0.2423,-0.0509,-0.0149,1.0092,0.3814,0.1554,-0.3832,-0.1536,0.6090,0.0280,0.0777,0.6090,0.0280,0.0777,0.3000,0.0600,0.0002,0,-0.3000,-100.0000,-0.0010,-0.3000,-100.0000,-0.0010,16.9554,51.1083,0.0200,0.0000
-17.6174,44.0216,-7.9651,0.6630,0.0821,0.2400,0.0600,0.3200,0.0000,0.1141,-0.2679,0.0006,997,1503,1500,1500,1000,1000,1505,1000,1505,1418,1241,1077,1015,2.0988,0.2282,0.3473,-0.0509,-0.0170,1.0033,0.3827,0.1532,-0.3814,-0.1544,0.6090,0.0280,0.0777,0.6090,0.0280,0.0777,0.3000,0.0600,0.0002,0,-0.3000,-100.0000,-0.0010,-0.3000,-100.0000,-0.0010,16.9972,51.1458,0.0400,0.0100
-17.5703,43.9918,-7.9457,0.5801,0.0821,0.1200,0.0000,0.0000,0.0000,0.1130,-0.2681,-0.0015,996,1502,1500,1500,1000,1000,1505,1000,1505,1418,1241,1077,1015,2.2521,0.2410,0.4226,-0.0536,-0.0157,1.0027,0.3796,0.1566,-0.3825,-0.1536,0.6090,0.0280,0.0777,0.6090,0.0280,0.0777,0.3000,0.0600,0.0002,0,-0.3000,-100.0000,-0.0010,-0.3000,-100.0000,-0.0010,17.0391,51.1834,0.0200,0.0000
-17.5221,43.9616,-7.9259,0.5801,0.0821,0.1200,0.0000,0.0000,0.0000,0.1127,-0.2679,-0.0016,996,1502,1500,1500,1000,1000,1505,1000,1505,1418,1241,1077,1015,2.2607,0.1617,0.4650,-0.0562,-0.0158,1.0045,0.3789,0.1568,-0.3821,-0.1536,0.6090,0.0280,0.0777,0.6090,0.0280,0.0777,0.3000,0.0600,0.0002,0,-0.3000,-100.0000,-0.0010,-0.3000,-100.0000,-0.0010,17.0810,51.2209,0.0200,0.0000
-17.4746,43.9312,-7.9058,0.5801,-0.0000,0.1200,0.0000,0.0000,0.0000,0.1125,-0.2676,-0.0013,996,1502,1500,1500,1000,1000,1505,1000,1505,1418,1241,1077,1015,2.0917,0.0540,0.3698,-0.0566,-0.0165,1.0066,0.3788,0.1564,-0.3814,-0.1538,0.6090,0.0280,0.0777,0.6090,0.0280,0.0777,0.3000,0.0600,0.0002,0,-0.3000,-100.0000,-0.0010,-0.3000,-100.0000,-0.0010,17.1229,51.2584,0.0200,0.0000
-17.4281,43.8995,-7.8857,0.5801,0.0821,0.1200,0.0000,0.0000,0.0000,0.1122,-0.2671,-0.0014,996,1502,1500,1500,1000,1000,1505,1000,1505,1417,1241,1077,1016,1.9525,0.0102,0.4048,-0.0519,-0.0132,1.0055,0.3779,0.1562,-0.3807,-0.1535,0.6083,0.0280,0.0777,0.6083,0.0280,0.0777,0.3000,0.0600,0.0002,0,-0.3000,-100.0000,-0.0010,-0.3000,-100.0000,-0.0010,17.1648,51.2959,0.0200,0.0000
-17.3832,43.8665,-7.8654,0.5801,0.0821,0.1200,0.0000,0.0000,0.0000,0.1121,-0.2668,-0.0013,996,1502,1500,1500,1000,1000,1505,1000,1505,1417,1241,1077,1016,1.8233,-0.1066,0.3578,-0.0550,-0.0112,1.0021,0.3775,0.1560,-0.3801,-0.1534,0.6083,0.0280,0.0777,0.6083,0.0280,0.0777,0.3000,0.0600,0.0002,0,-0.3000,-100.0000,-0.0010,-0.3000,-100.0000,-0.0010,17.2067,51.3334,0.0200,0.0000
-17.3401,43.8329,-7.8462,0.5801,0.0821,0.2400,0.0600,0.3200,0.0000,0.1127,-0.2664,0.0013,997,1503,1500,1500,1000,1000,1505,1000,1505,1418,1241,1077,1015,1.7135,-0.1828,0.1522,-0.0532,-0.0060,1.0012,0.3805,0.1524,-0.3778,-0.1550,0.6090,0.0280,0.0777,0.6090,0.0280,0.0777,0.3000,0.0600,0.0002,0,-0.3000,-100.0000,-0.0010,-0.3000,-100.0000,-0.0010,17.2487,51.3708,0.0400,0.0100
-17.2994,43.7982,-7.8289,0.5801,0.0821,0.1200,0.0000,0.0000,0.0000,0.1118,-0.2666,-0.0004,996,1502,1500,1500,1000,1000,1505,1000,1505,1418,1241,1077,1016,1.6179,-0.1369,0.0683,-0.0523,-0.0049,1.0071,0.3781,0.1552,-0.3788,-0.1544,0.6090,0.0280,0.0777,0.6090,0.0280,0.0777,0.3000,0.0600,0.0002,0,-0.3000,-100.0000,-0.0010,-0.3000,-100.0000,-0.0010,17.2906,51.4083,0.0200,0.0000
-17.2602,43.7632,-7.8128,0.5801,0.0821,0.1200,0.0000,0.0000,0.0000,0.1116,-0.2664,-0.0002,996,1502,1500,1500,1000,1000,1505,1000,1505,1418,1241,1077,1016,1.5367,-0.2092,0.0016,-0.0506,-0.0089,1.0005,0.3778,0.1549,-0.3782,-0.1545,0.6090,0.0280,0.0777,0.6090,0.0280,0.0777,0.3000,0.0600,0.0002,0,-0.3000,-100.0000,-0.0010,-0.3000,-100.0000,-0.0010,17.3325,51.4457,0.0200,0.0000
-17.2235,43.7284,-7.7972,0.5801,0.0821,0.1200,0.0000,0.0000,0.0000,0.1116,-0.2663,-0.0003,996,1502,1500,1500,1000,1000,1505,1000,1505,1418,1241,1077,1016,1.3636,0.0154,0.0319,-0.0551,-0.0104,1.0058,0.3776,0.1551,-0.3782,-0.1545,0.6090,0.0280,0.0777,0.6090,0.0280,0.0777,0.3000,0.0600,0.0002,0,-0.3000,-100.0000,-0.0010,-0.3000,-100.0000,-0.0010,17.3745,51.4831,0.0200,0.0000
-17.1890,43.6949,-7.7821,0.5801,0.0821,0.1200,0.0000,0.0000,0.0000,0.1115,-0.2661,-0.0003,996,1502,1500,1500,1000,1000,1505,1000,1505,1418,1241,1077,1016,1.1764,0.0130,0.0364,-0.0535,-0.0116,1.0031,0.3773,0.1550,-0.3779,-0.1543,0.6090,0.0280,0.0777,0.6090,0.0280,0.0777,0.3000,0.0600,0.0002,0,-0.3000,-100.0000,-0.0010,-0.3000,-100.0000,-0.0010,17.4165,51.5206,0.0200,0.0000
-17.1563,43.6621,-7.7669,0.5801,0.0821,0.1200,0.0000,0.0000,0.0000,0.1113,-0.2657,-0.0006,996,1502,1500,1500,1000,1000,1505,1000,1505,1417,1241,1077,1016,0.9595,0.1562,0.1203,-0.0512,-0.0112,1.0013,0.3765,0.1550,-0.3777,-0.1538,0.6083,0.0280,0.0777,0.6083,0.0280,0.0777,0.3000,0.0600,0.0002,0,-0.3000,-100.0000,-0.0010,-0.3000,-100.0000,-0.0010,17.4586,51.5581,0.0200,0.0000
-17.1244,43.6299,-7.7489,0.5801,0.0821,0.2400,0.0600,0.3200,0.0000,0.1122,-0.2653,0.0008,997,1503,1500,1500,1000,1000,1505,1000,1505,1418,1241,1077,1015,0.6383,-0.0112,0.3091,-0.0556,-0.0090,1.0024,0.3784,0.1523,-0.3768,-0.1539,0.6090,0.0280,0.0777,0.6090,0.0280,0.0777,0.3000,0.0600,0.0002,0,-0.3000,-100.0000,-0.0010,-0.3000,-100.0000,-0.0010,17.5006,51.5955,0.0400,0.0100
-17.0934,43.5972,-7.7299,0.5801,0.0821,0.1200,0.0000,0.0000,0.0000,0.1114,-0.2655,-0.0011,996,1502,1500,1500,1000,1000,1505,1000,1505,1418,1241,1077,1015,0.5778,-0.0376,0.2952,-0.0516,-0.0073,1.0041,0.3758,0.1552,-0.3779,-0.1530,0.6090,0.0280,0.0777,0.6090,0.0280,0.0777,0.3000,0.0600,0.0002,0,-0.3000,-100.0000,-0.0010,-0.3000,-100.0000,-0.0010,17.5426,51.6329,0.0200,0.0000
-17.0637,43.5645,-7.7105,0.5801,0.0821,0.1200,0.0000,0.0000,0.0000,0.1113,-0.2652,-0.0017,996,1502,1500,1500,1000,1000,1505,1000,1505,1418,1241,1077,1015,0.4492,-0.1195,0.4775,-0.0542,-0.0077,1.0039,0.3748,0.1556,-0.3782,-0.1522,0.6090,0.0280,0.0777,0.6090,0.0280,0.0777,0.3000,0.0600,0.0002,0,-0.3000,-100.0000,-0.0010,-0.3000,-100.0000,-0.0010,17.5847,51.6703,0.0200,0.0000
-17.0330,43.5317,-7.6884,0.5801,0.0821,0.1200,0.0000,0.0000,0.0000,0.1111,-0.2650,-0.0017,996,1502,1500,1500,1000,1000,1505,1000,1505,1418,1241,1077,1015,0.3982,-0.0822,0.4922,-0.0566,-0.0072,1.0065,0.3745,0.1556,-0.3779,-0.1522,0.6090,0.0280,0.0777,0.6090,0.0280,0.0777,0.3000,0.0600,0.0002,0,-0.3000,-100.0000,-0.0010,-0.3000,-100.0000,-0.0010,17.6267,51.7077,0.0200,0.0000
-17.0028,43.4985,-7.6658,0.5801,0.0821,0.1200,0.0000,0.0000,0.0000,0.1110,-0.2645,-0.0019,996,1502,1500,1500,1000,1000,1505,1000,1505,1417,1241,1077,1015,0.2304,-0.1440,0.5513,-0.0492,-0.0090,1.0060,0.3736,0.1554,-0.3774,-0.1516,0.6083,0.0280,0.0777,0.6083,0.0280,0.0777,0.3000,0.0600,0.0002,0,-0.3000,-100.0000,-0.0010,-0.3000,-100.0000,-0.0010,17.6688,51.7451,0.0200,0.0000
-16.9732,43.4658,-7.6426,0.4972,0.0821,0.1200,0.0000,0.0000,0.0000,0.1108,-0.2644,-0.0021,996,1502,1500,1500,1000,1000,1505,1000,1505,1417,1241,1077,1015,0.1945,-0.0223,0.6332,-0.0527,-0.0086,1.0031,0.3731,0.1557,-0.3773,-0.1515,0.6083,0.0280,0.0777,0.6083,0.0280,0.0777,0.3000,0.0600,0.0002,0,-0.3000,-100.0000,-0.0010,-0.3000,-100.0000,-0.0010,17.7109,51.7824,0.0200,0.0000
-16.9437,43.4346,-7.6182,0.5801,0.0821,0.2400,0.0600,0.3200,0.0000,0.1116,-0.2642,-0.0004,997,1503,1500,1500,1000,1000,1505,1000,1505,1418,1241,1077,1015,0.1104,0.0292,0.7088,-0.0516,-0.0080,1.0032,0.3753,0.1531,-0.3762,-0.1522,0.6090,0.0280,0.0777,0.6090,0.0280,0.0777,0.3000,0.0600,0.0002,0,-0.3000,-100.0000,-0.0010,-0.3000,-100.0000,-0.0010,17.7530,51.8198,0.0400,0.0100
-16.9168,43.4047,-7.5944,0.5801,0.0821,0.1200,0.0000,0.0000,0.0000,0.1109,-0.2645,-0.0022,996,1502,1500,1500,1000,1000,1505,1000,1505,1418,1241,1077,1016,-0.1698,0.2218,0.6474,-0.0492,-0.0098,1.0003,0.3732,0.1558,-0.3776,-0.1515,0.6090,0.0280,0.0777,0.6090,0.0280,0.0777,0.3000,0.0600,0.0002,0,-0.3000,-100.0000,-0.0010,-0.3000,-100.0000,-0.0010,17.7952,51.8572,0.0200,0.0000
-16.8941,43.3756,-7.5726,0.5801,0.0821,0.1200,0.0000,0.0000,0.0000,0.1109,-0.2644,-0.0020,996,1502,1500,1500,1000,1000,1505,1000,1505,1418,1241,1077,1016,-0.4191,0.3255,0.5932,-0.0504,-0.0119,1.0038,0.3733,0.1555,-0.3774,-0.1515,0.6090,0.0280,0.0777,0.6090,0.0280,0.0777,0.3000,0.0600,0.0002,0,-0.3000,-100.0000,-0.0010,-0.3000,-100.0000,-0.0010,17.8373,51.8945,0.0200,0.0000
-16.8744,43.3470,-7.5533,0.5801,0.0821,0.1200,0.0000,0.0000,0.0000,0.1109,-0.2642,-0.0012,996,1502,1500,1500,1000,1000,1505,1000,1505,1418,1241,1077,1016,-0.5555,0.2512,0.3229,-0.0519,-0.0096,1.0060,0.3739,0.1545,-0.3763,-0.1521,0.6090,0.0280,0.0777,0.6090,0.0280,0.0777,0.3000,0.0600,0.0002,0,-0.3000,-100.0000,-0.0010,-0.3000,-100.0000,-0.0010,17.8795,51.9319,0.0200,0.0000
-16.8594,43.3156,-7.5377,0.5801,0.0821,0.1200,0.0000,0.0000,0.0000,0.1109,-0.2639,-0.0002,996,1502,1500,1500,1000,1000,1505,1000,1505,1418,1241,1077,1016,-0.7016,0.1780,-0.0299,-0.0544,-0.0094,1.0017,0.3747,0.1532,-0.3750,-0.1528,0.6090,0.0280,0.0777,0.6090,0.0280,0.0777,0.3000,0.0600,0.0002,0,-0.3000,-100.0000,-0.0010,-0.3000,-100.0000,-0.0010,17.9217,51.9692,0.0200,0.0000
-16.8477,43.2820,-7.5258,0.5801,0.0821,0.1200,0.0000,0.0000,0.0000,0.1109,-0.2636,0.0007,996,1502,1500,1500,1000,1000,1505,1000,1505,1418,1241,1077,1016,-0.7138,-0.0106,-0.3262,-0.0547,-0.0089,1.0027,0.3752,0.1520,-0.3737,-0.1534,0.6090,0.0280,0.0777,0.6090,0.0280,0.0777,0.3000,0.0600,0.0002,0,-0.3000,-100.0000,-0.0010,-0.3000,-100.0000,-0.0010,17.9638,52.0065,0.0200,0.0000
-16.8379,43.2462,-7.5157,0.5801,0.0821,0.2400,0.0600,0.3200,0.0000,0.1116,-0.2629,0.0029,997,1503,1500,1500,1000,1000,1505,1000,1505,1418,1241,1077,1015,-0.7583,-0.1882,-0.4016,-0.0532,-0.0123,1.0020,0.3774,0.1484,-0.3715,-0.1542,0.6090,0.0280,0.0777,0.6090,0.0280,0.0777,0.3000,0.0600,0.0002,0,-0.3000,-100.0000,-0.0010,-0.3000,-100.0000,-0.0010,18.0061,52.0439,0.0400,0.0100
-16.8280,43.2090,-7.5060,0.5801,0.0821,0.1200,0.0000,0.0000,0.0000,0.1107,-0.2629,0.0008,996,1502,1500,1500,1000,1000,1505,1000,1505,1418,1241,1077,1015,-0.7022,-0.3038,-0.3809,-0.0563,-0.0112,0.9995,0.3745,0.1513,-0.3728,-0.1530,0.6090,0.0280,0.0777,0.6090,0.0280,0.0777,0.3000,0.0600,0.0002,0,-0.3000,-100.0000,-0.0010,-0.3000,-100.0000,-0.0010,18.0483,52.0812,0.0200,0.0000
-16.8172,43.1713,-7.4950,0.5801,0.0821,0.1200,0.0000,0.0000,0.0000,0.1106,-0.2624,0.0006,996,1502,1500,1500,1000,1000,1505,1000,1505,1417,1241,1077,1015,-0.7967,-0.2907,-0.2753,-0.0501,-0.0112,1.0020,0.3737,0.1511,-0.3724,-0.1524,0.6083,0.0280,0.0777,0.6083,0.0280,0.0777,0.3000,0.0600,0.0002,0,-0.3000,-100.0000,-0.0010,-0.3000,-100.0000,-0.0010,18.0906,52.1186,0.0200,0.0000
-16.8059,43.1339,-7.4831,0.5801,0.0821,0.1200,0.0000,0.0000,0.0000,0.1105,-0.2622,0.0002,996,1502,1500,1500,1000,1000,1505,1000,1505,1417,1241,1077,1015,-0.6866,-0.2681,-0.1700,-0.0520,-0.0114,1.0055,0.3729,0.1515,-0.3725,-0.1519,0.6083,0.0280,0.0777,0.6083,0.0280,0.0777,0.3000,0.0600,0.0002,0,-0.3000,-100.0000,-0.0010,-0.3000,-100.0000,-0.0010,18.1329,52.1559,0.0200,0.0000
-16.7941,43.0982,-7.4703,0.5801,0.0821,0.1200,0.0000,0.0000,0.0000,0.1106,-0.2625,0.0002,996,1502,1500,1500,1000,1000,1505,1000,1505,1418,1241,1077,1016,-0.7531,0.0170,-0.1272,-0.0500,-0.0102,1.0002,0.3733,0.1517,-0.3729,-0.1521,0.6090,0.0280,0.0777,0.6090,0.0280,0.0777,0.3000,0.0600,0.0002,0,-0.3000,-100.0000,-0.0010,-0.3000,-100.0000,-0.0010,18.1752,52.1933,0.0200,0.0000
-16.7834,43.0643,-7.4582,0.5801,0.1642,0.1200,0.0000,0.0000,0.0000,0.1106,-0.2623,0.0002,996,1502,1500,1500,1000,1000,1505,1000,1505,1418,1241,1077,1016,-0.8292,0.0590,-0.1384,-0.0519,-0.0119,1.0045,0.3731,0.1515,-0.3727,-0.1519,0.6090,0.0280,0.0777,0.6090,0.0280,0.0777,0.3000,0.0600,0.0002,0,-0.3000,-100.0000,-0.0010,-0.3000,-100.0000,-0.0010,18.2175,52.2306,0.0200,0.0000
-16.7716,43.0319,-7.4456,0.5801,0.1642,0.2400,0.0600,0.3200,0.0000,0.1110,-0.2615,0.0016,997,1503,1500,1500,1000,1000,1505,1000,1505,1417,1241,1077,1015,-0.6273,0.1749,0.0055,-0.0537,-0.0079,1.0054,0.3742,0.1489,-0.3709,-0.1522,0.6083,0.0280,0.0777,0.6083,0.0280,0.0777,0.3000,0.0600,0.0002,0,-0.3000,-100.0000,-0.0010,-0.3000,-100.0000,-0.0010,18.2598,52.2679,0.0400,0.0100
-16.7556,42.9988,-7.4308,0.5801,0.0821,0.1200,0.0000,0.0000,0.0000,0.1100,-0.2618,-0.0004,996,1502,1500,1500,1000,1000,1505,1000,1505,1418,1241,1077,1015,-0.2567,-0.0226,0.0635,-0.0570,-0.0134,1.0047,0.3714,0.1523,-0.3722,-0.1515,0.6090,0.0280,0.0777,0.6090,0.0280,0.0777,0.3000,0.0600,0.0002,0,-0.3000,-100.0000,-0.0010,-0.3000,-100.0000,-0.0010,18.3021,52.3051,0.0200,0.0000
-16.7344,42.9636,-7.4146,0.5801,0.0821,0.1200,0.0000,0.0000,0.0000,0.1096,-0.2614,-0.0007,996,1502,1500,1500,1000,1000,1505,1000,1505,1418,1241,1077,1015,0.0840,-0.3074,0.1412,-0.0564,-0.0159,1.0039,0.3703,0.1525,-0.3716,-0.1512,0.6090,0.0280,0.0777,0.6090,0.0280,0.0777,0.3000,0.0600,0.0002,0,-0.3000,-100.0000,-0.0010,-0.3000,-100.0000,-0.0010,18.3444,52.3423,0.0200,0.0000
-16.7096,42.9278,-7.3962,0.5801,0.0821,0.1200,0.0000,0.0000,0.0000,0.1094,-0.2613,-0.0011,996,1502,1500,1500,1000,1000,1505,1000,1505,1418,1242,1077,1015,0.1817,-0.2173,0.2885,-0.0541,-0.0141,1.0017,0.3695,0.1530,-0.3717,-0.1508,0.6090,0.0280,0.0777,0.6090,0.0280,0.0777,0.3000,0.0600,0.0002,0,-0.3000,-100.0000,-0.0010,-0.3000,-100.0000,-0.0010,18.3867,52.3794,0.0200,0.0000
-16.6836,42.8940,-7.3769,0.5801,0.1642,0.1200,0.0000,0.0000,0.0000,0.1093,-0.2612,-0.0015,996,1502,1500,1500,1000,1000,1505,1000,1505,1418,1242,1077,1015,0.1016,-0.0192,0.4105,-0.0504,-0.0099,1.0018,0.3690,0.1534,-0.3719,-0.1505,0.6090,0.0280,0.0777,0.6090,0.0280,0.0777,0.3000,0.0600,0.0002,0,-0.3000,-100.0000,-0.0010,-0.3000,-100.0000,-0.0010,18.4291,52.4166,0.0200,0.0000
-16.6595,42.8630,-7.3585,0.4972,0.0821,0.1200,0.0000,0.0000,0.0000,0.1091,-0.2610,-0.0011,996,1502,1500,1500,1000,1000,1505,1000,1505,1417,1241,1077,1015,-0.0223,0.3221,0.2760,-0.0489,-0.0092,1.0008,0.3690,0.1530,-0.3711,-0.1509,0.6083,0.0280,0.0777,0.6083,0.0280,0.0777,0.3000,0.0600,0.0002,0,-0.3000,-100.0000,-0.0010,-0.3000,-100.0000,-0.0010,18.4714,52.4538,0.0200,0.0000
-16.6384,42.8329,-7.3422,0.5801,0.0821,0.2400,0.0600,0.3200,0.0000,0.1099,-0.2608,0.0010,997,1503,1500,1500,1000,1000,1505,1000,1505,1418,1241,1077,1015,-0.1448,0.3581,0.2384,-0.0513,-0.0101,1.0047,0.3716,0.1499,-0.3697,-0.1519,0.6090,0.0280,0.0777,0.6090,0.0280,0.0777,0.3000,0.0600,0.0002,0,-0.3000,-100.0000,-0.0010,-0.3000,-100.0000,-0.0010,18.5138,52.4909,0.0400,0.0100
-16.6178,42.8034,-7.3264,0.5801,0.1642,0.1200,0.0000,0.0000,0.0000,0.1090,-0.2609,-0.0010,996,1502,1500,1500,1000,1000,1505,1000,1505,1418,1241,1077,1015,-0.1302,0.3142,0.2440,-0.0557,-0.0150,1.0017,0.3690,0.1529,-0.3709,-0.1509,0.6090,0.0280,0.0777,0.6090,0.0280,0.0777,0.3000,0.0600,0.0002,0,-0.3000,-100.0000,-0.0010,-0.3000,-100.0000,-0.0010,18.5561,52.5281,0.0200,0.0000
-16.5972,42.7725,-7.3098,0.5801,0.0821,0.1200,0.0000,0.0000,0.0000,0.1090,-0.2605,-0.0009,996,1502,1500,1500,1000,1000,1505,1000,1505,1418,1241,1077,1015,-0.2085,0.0226,0.2261,-0.0584,-0.0132,1.0053,0.3686,0.1524,-0.3704,-0.1506,0.6090,0.0280,0.0777,0.6090,0.0280,0.0777,0.3000,0.0600,0.0002,0,-0.3000,-100.0000,-0.0010,-0.3000,-100.0000,-0.0010,18.5985,52.5652,0.0200,0.0000
-16.5770,42.7386,-7.2929,0.5801,0.1642,0.1200,0.0000,0.0000,0.0000,0.1089,-0.2601,-0.0008,996,1502,1500,1500,1000,1000,1505,1000,1505,1418,1241,1077,1015,-0.2303,-0.1675,0.1850,-0.0562,-0.0131,1.0038,0.3682,0.1521,-0.3698,-0.1505,0.6090,0.0280,0.0777,0.6090,0.0280,0.0777,0.3000,0.0600,0.0002,0,-0.3000,-100.0000,-0.0010,-0.3000,-100.0000,-0.0010,18.6410,52.6024,0.0200,0.0000
-16.5566,42.7021,-7.2759,0.5801,0.0821,0.1200,0.0000,0.0000,0.0000,0.1086,-0.2595,-0.0004,996,1502,1500,1500,1000,1000,1505,1000,1505,1417,1241,1077,1016,-0.2386,-0.3662,0.0714,-0.0541,-0.0135,0.9990,0.3677,0.1513,-0.3685,-0.1504,0.6083,0.0280,0.0777,0.6083,0.0280,0.0777,0.3000,0.0600,0.0002,0,-0.3000,-100.0000,-0.0010,-0.3000,-100.0000,-0.0010,18.6834,52.6396,0.0200,0.0000
-16.5369,42.6638,-7.2601,0.5801,0.0821,0.1200,0.0000,0.0000,0.0000,0.1084,-0.2592,-0.0000,996,1502,1500,1500,1000,1000,1505,1000,1505,1417,1241,1077,1016,-0.1491,-0.4185,-0.0595,-0.0529,-0.0094,1.0032,0.3676,0.1508,-0.3677,-0.1508,0.6083,0.0280,0.0777,0.6083,0.0280,0.0777,0.3000,0.0600,0.0002,0,-0.3000,-100.0000,-0.0010,-0.3000,-100.0000,-0.0010,18.7259,52.6767,0.0200,0.0000
-16.5177,42.6256,-7.2466,0.5801,0.0821,0.2400,0.0600,0.3200,0.0000,0.1091,-0.2589,0.0022,997,1503,1500,1500,1000,1000,1505,1000,1505,1418,1241,1077,1015,-0.0914,-0.3585,-0.1796,-0.0518,-0.0121,1.0005,0.3703,0.1476,-0.3658,-0.1521,0.6090,0.0280,0.0777,0.6090,0.0280,0.0777,0.3000,0.0600,0.0002,0,-0.3000,-100.0000,-0.0010,-0.3000,-100.0000,-0.0010,18.7684,52.7138,0.0400,0.0100
-16.4987,42.5885,-7.2342,0.5801,0.1642,0.1200,0.0000,0.0000,0.0000,0.1081,-0.2590,0.0001,996,1502,1500,1500,1000,1000,1505,1000,1505,1417,1241,1077,1015,-0.0398,-0.1011,-0.1289,-0.0503,-0.0128,1.0054,0.3672,0.1508,-0.3670,-0.1510,0.6083,0.0280,0.0777,0.6083,0.0280,0.0777,0.3000,0.0600,0.0002,0,-0.3000,-100.0000,-0.0010,-0.3000,-100.0000,-0.0010,18.8109,52.7510,0.0200,0.0000
-16.4798,42.5550,-7.2219,0.5801,0.0821,0.1200,0.0000,0.0000,0.0000,0.1080,-0.2591,0.0001,996,1502,1500,1500,1000,1000,1505,1000,1505,1417,1241,1077,1015,-0.0567,0.2235,-0.1265,-0.0484,-0.0104,1.0000,0.3672,0.1509,-0.3669,-0.1512,0.6083,0.0280,0.0777,0.6083,0.0280,0.0777,0.3000,0.0600,0.0002,0,-0.3000,-100.0000,-0.0010,-0.3000,-100.0000,-0.0010,18.8534,52.7881,0.0200,0.0000
-16.4632,42.5243,-7.2117,0.5801,0.0821,0.1200,0.0000,0.0000,0.0000,0.1081,-0.2591,0.0004,996,1502,1500,1500,1000,1000,1505,1000,1505,1417,1241,1077,1016,-0.3011,0.5696,-0.2107,-0.0504,-0.0137,1.0039,0.3677,0.1506,-0.3668,-0.1514,0.6083,0.0280,0.0777,0.6083,0.0280,0.0777,0.3000,0.0600,0.0002,0,-0.3000,-100.0000,-0.0010,-0.3000,-100.0000,-0.0010,18.8959,52.8252,0.0200,0.0000
-16.4522,42.4967,-7.2034,0.5801,0.0821,0.1200,0.0000,0.0000,0.0000,0.1084,-0.2591,0.0006,996,1502,1500,1500,1000,1000,1505,1000,1505,1417,1241,1077,1016,-0.7861,0.7762,-0.2652,-0.0520,-0.0082,1.0067,0.3681,0.1501,-0.3670,-0.1513,0.6083,0.0280,0.0777,0.6083,0.0280,0.0777,0.3000,0.0600,0.0002,0,-0.3000,-100.0000,-0.0010,-0.3000,-100.0000,-0.0010,18.9385,52.8623,0.0200,0.0000
-16.4464,42.4700,-7.1968,0.4972,0.1642,0.1200,0.0000,0.0000,0.0000,0.1086,-0.2590,0.0011,996,1502,1500,1500,1000,1000,1505,1000,1505,1417,1241,1077,1015,-1.1302,0.8282,-0.4543,-0.0566,-0.0045,1.0021,0.3688,0.1492,-0.3665,-0.1515,0.6083,0.0280,0.0777,0.6083,0.0280,0.0777,0.3000,0.0600,0.0002,0,-0.3000,-100.0000,-0.0010,-0.3000,-100.0000,-0.0010,18.9810,52.8995,0.0200,0.0000
-16.4447,42.4409,-7.1920,0.5801,0.0821,0.2400,0.0600,0.3200,0.0000,0.1097,-0.2584,0.0031,997,1503,1500,1500,1000,1000,1505,1000,1505,1418,1241,1077,1015,-1.3611,0.4494,-0.5136,-0.0592,-0.0056,1.0017,0.3713,0.1456,-0.3650,-0.1519,0.6090,0.0280,0.0777,0.6090,0.0280,0.0777,0.3000,0.0600,0.0002,0,-0.3000,-100.0000,-0.0010,-0.3000,-100.0000,-0.0010,19.0236,52.9366,0.0400,0.0100
-16.4439,42.4075,-7.1850,0.5801,0.0821,0.1200,0.0000,0.0000,0.0000,0.1091,-0.2582,0.0010,996,1502,1500,1500,1000,1000,1505,1000,1505,1418,1241,1077,1015,-1.5730,-0.0512,-0.4283,-0.0575,-0.0053,1.0039,0.3683,0.1481,-0.3663,-0.1502,0.6090,0.0280,0.0777,0.6090,0.0280,0.0777,0.3000,0.0600,0.0002,0,-0.3000,-100.0000,-0.0010,-0.3000,-100.0000,-0.0010,19.0662,52.9736,0.0200,0.0000
-16.4427,42.3698,-7.1741,0.5801,0.0821,0.1200,0.0000,0.0000,0.0000,0.1091,-0.2574,0.0003,996,1502,1500,1500,1000,1000,1505,1000,1505,1417,1241,1077,1015,-1.7411,-0.4734,-0.1909,-0.0556,-0.0109,1.0013,0.3668,0.1480,-0.3662,-0.1486,0.6083,0.0280,0.0777,0.6083,0.0280,0.0777,0.3000,0.0600,0.0002,0,-0.3000,-100.0000,-0.0010,-0.3000,-100.0000,-0.0010,19.1088,53.0107,0.0200,0.0000
-16.4388,42.3295,-7.1581,0.5801,0.0821,0.1200,0.0000,0.0000,0.0000,0.1091,-0.2570,-0.0008,996,1502,1500,1500,1000,1000,1505,1000,1505,1417,1241,1077,1015,-1.8320,-0.7141,0.1591,-0.0538,-0.0138,1.0072,0.3653,0.1486,-0.3669,-0.1470,0.6083,0.0280,0.0777,0.6083,0.0280,0.0777,0.3000,0.0600,0.0002,0,-0.3000,-100.0000,-0.0010,-0.3000,-100.0000,-0.0010,19.1514,53.0478,0.0200,0.0000
-16.4331,42.2882,-7.1381,0.5801,0.0821,0.1200,0.0000,0.0000,0.0000,0.1092,-0.2569,-0.0013,996,1502,1500,1500,1000,1000,1505,1000,1505,1418,1241,1077,1016,-1.7512,-0.8698,0.3242,-0.0546,-0.0138,1.0052,0.3647,0.1490,-0.3673,-0.1464,0.6090,0.0280,0.0777,0.6090,0.0280,0.0777,0.3000,0.0600,0.0002,0,-0.3000,-100.0000,-0.0010,-0.3000,-100.0000,-0.0010,19.1941,53.0848,0.0200,0.0000
-16.4241,42.2485,-7.1142,0.5801,0.0821,0.1200,0.0000,0.0000,0.0000,0.1090,-0.2568,-0.0022,996,1502,1500,1500,1000,1000,1505,1000,1505,1418,1241,1077,1016,-1.6229,-0.5910,0.6706,-0.0518,-0.0130,0.9990,0.3636,0.1501,-0.3681,-0.1456,0.6090,0.0280,0.0777,0.6090,0.0280,0.0777,0.3000,0.0600,0.0002,0,-0.3000,-100.0000,-0.0010,-0.3000,-100.0000,-0.0010,19.2367,53.1218,0.0200,0.0000
-16.4106,42.2115,-7.0870,0.5801,0.0821,0.2400,0.0600,0.3200,0.0000,0.1095,-0.2563,-0.0012,997,1503,1500,1500,1000,1000,1505,1000,1505,1418,1241,1077,1015,-1.4188,-0.4616,0.9604,-0.0471,-0.0129,1.0026,0.3646,0.1481,-0.3671,-0.1456,0.6090,0.0280,0.0777,0.6090,0.0280,0.0777,0.3000,0.0600,0.0002,0,-0.3000,-100.0000,-0.0010,-0.3000,-100.0000,-0.0010,19.2794,53.1590,0.0400,0.0100
-16.3935,42.1783,-7.0590,0.5801,0.0821,0.1200,0.0000,0.0000,0.0000,0.1083,-0.2568,-0.0032,996,1502,1500,1500,1000,1000,1505,1000,1505,1418,1241,1077,1015,-1.0150,-0.0896,0.9761,-0.0475,-0.0166,1.0040,0.3620,0.1516,-0.3683,-0.1453,0.6090,0.0280,0.0777,0.6090,0.0280,0.0777,0.3000,0.0600,0.0002,0,-0.3000,-100.0000,-0.0010,-0.3000,-100.0000,-0.0010,19.3221,53.1960,0.0200,0.0000
-16.3746,42.1480,-7.0330,0.5801,0.0821,0.1200,0.0000,0.0000,0.0000,0.1081,-0.2569,-0.0027,996,1502,1500,1500,1000,1000,1505,1000,1505,1418,1241,1077,1015,-0.8162,0.2231,0.8548,-0.0488,-0.0215,1.0037,0.3623,0.1515,-0.3676,-0.1461,0.6090,0.0280,0.0777,0.6090,0.0280,0.0777,0.3000,0.0600,0.0002,0,-0.3000,-100.0000,-0.0010,-0.3000,-100.0000,-0.0010,19.3648,53.2331,0.0200,0.0000
-16.3574,42.1189,-7.0140,0.5801,0.0821,0.1200,0.0000,0.0000,0.0000,0.1077,-0.2568,-0.0011,996,1502,1500,1500,1000,1000,1505,1000,1505,1418,1242,1077,1016,-0.4527,0.3870,0.2989,-0.0556,-0.0202,1.0040,0.3634,0.1502,-0.3656,-0.1480,0.6090,0.0280,0.0777,0.6090,0.0280,0.0777,0.3000,0.0600,0.0002,0,-0.3000,-100.0000,-0.0010,-0.3000,-100.0000,-0.0010,19.4076,53.2702,0.0200,0.0000
-16.3415,42.0886,-7.0014,0.5801,0.0821,0.1200,0.0000,0.0000,0.0000,0.1075,-0.2566,0.0001,996,1502,1500,1500,1000,1000,1505,1000,1505,1418,1242,1077,1016,-0.2501,0.3502,-0.1353,-0.0562,-0.0202,1.0020,0.3642,0.1490,-0.3639,-0.1493,0.6090,0.0280,0.0777,0.6090,0.0280,0.0777,0.3000,0.0600,0.0002,0,-0.3000,-100.0000,-0.0010,-0.3000,-100.0000,-0.0010,19.4503,53.3073,0.0200,0.0000
-16.3260,42.0560,-6.9934,0.4972,0.0821,0.1200,0.0000,0.0000,0.0000,0.1069,-0.2560,0.0012,996,1502,1500,1500,1000,1000,1505,1000,1505,1417,1242,1077,1015,0.1784,0.1550,-0.4670,-0.0560,-0.0201,1.0031,0.3641,0.1478,-0.3617,-0.1502,0.6083,0.0280,0.0777,0.6083,0.0280,0.0777,0.3000,0.0600,0.0002,0,-0.3000,-100.0000,-0.0010,-0.3000,-100.0000,-0.0010,19.4931,53.3443,0.0200,0.0000
-16.3059,42.0202,-6.9867,0.5801,0.0821,0.2400,0.0600,0.3200,0.0000,0.1071,-0.2551,0.0033,997,1503,1500,1500,1000,1000,1505,1000,1505,1417,1241,1077,1015,0.6660,-0.1433,-0.5463,-0.0581,-0.0172,1.0051,0.3656,0.1447,-0.3590,-0.1513,0.6083,0.0280,0.0777,0.6083,0.0280,0.0777,0.3000,0.0600,0.0002,0,-0.3000,-100.0000,-0.0010,-0.3000,-100.0000,-0.0010,19.5358,53.3812,0.0400,0.0100
-16.2808,41.9820,-6.9787,0.5801,0.0821,0.1200,0.0000,0.0000,0.0000,0.1060,-0.2551,0.0010,996,1502,1500,1500,1000,1000,1505,1000,1505,1417,1241,1077,1015,0.9972,-0.3525,-0.4174,-0.0515,-0.0143,1.0042,0.3621,0.1481,-0.3601,-0.1501,0.6083,0.0280,0.0777,0.6083,0.0280,0.0777,0.3000,0.0600,0.0002,0,-0.3000,-100.0000,-0.0010,-0.3000,-100.0000,-0.0010,19.5786,53.4182,0.0200,0.0000
-16.2513,41.9435,-6.9690,0.5801,0.0821,0.1200,0.0000,0.0000,0.0000,0.1057,-0.2552,0.0009,996,1502,1500,1500,1000,1000,1505,1000,1505,1418,1241,1077,1016,1.2410,-0.2542,-0.3884,-0.0513,-0.0100,1.0031,0.3619,0.1486,-0.3600,-0.1504,0.6090,0.0280,0.0777,0.6090,0.0280,0.0777,0.3000,0.0600,0.0002,0,-0.3000,-100.0000,-0.0010,-0.3000,-100.0000,-0.0010,19.6214,53.4552,0.0200,0.0000
-16.2216,41.9067,-6.9601,0.5801,0.0821,0.1200,0.0000,0.0000,0.0000,0.1056,-0.2552,0.0008,996,1502,1500,1500,1000,1000,1505,1000,1505,1418,1241,1077,1016,1.1364,-0.0532,-0.3535,-0.0480,-0.0130,1.0045,0.3616,0.1487,-0.3600,-0.1503,0.6090,0.0280,0.0777,0.6090,0.0280,0.0777,0.3000,0.0600,0.0002,0,-0.3000,-100.0000,-0.0010,-0.3000,-100.0000,-0.0010,19.6642,53.4921,0.0200,0.0000
-16.1942,41.8741,-6.9519,0.5801,0.1642,0.1200,0.0000,0.0000,0.0000,0.1055,-0.2551,0.0008,996,1502,1500,1500,1000,1000,1505,1000,1505,1417,1241,1077,1015,0.8978,0.4937,-0.3405,-0.0483,-0.0114,1.0013,0.3614,0.1488,-0.3599,-0.1504,0.6083,0.0280,0.0777,0.6083,0.0280,0.0777,0.3000,0.0600,0.0002,0,-0.3000,-100.0000,-0.0010,-0.3000,-100.0000,-0.0010,19.7070,53.5291,0.0200,0.0000
-16.1716,41.8456,-6.9453,0.5801,0.0821,0.1200,0.0000,0.0000,0.0000,0.1058,-0.2552,0.0007,996,1502,1500,1500,1000,1000,1505,1000,1505,1417,1241,1077,1015,0.3969,0.7608,-0.2976,-0.0508,-0.0125,0.9993,0.3616,0.1487,-0.3602,-0.1501,0.6083,0.0280,0.0777,0.6083,0.0280,0.0777,0.3000,0.0600,0.0002,0,-0.3000,-100.0000,-0.0010,-0.3000,-100.0000,-0.0010,19.7498,53.5660,0.0200,0.0000
-16.1563,41.8190,-6.9408,0.5801,0.0821,0.2400,0.0600,0.3200,0.0000,0.1069,-0.2548,0.0029,997,1503,1500,1500,1000,1000,1505,1000,1505,1417,1241,1077,1015,-0.1586,0.9233,-0.4075,-0.0557,-0.0100,1.0047,0.3645,0.1450,-0.3587,-0.1508,0.6083,0.0280,0.0777,0.6083,0.0280,0.0777,0.3000,0.0600,0.0002,0,-0.3000,-100.0000,-0.0010,-0.3000,-100.0000,-0.0010,19.7926,53.6029,0.0400,0.0100
-16.1461,41.7924,-6.9366,0.5801,0.0821,0.1200,0.0000,0.0000,0.0000,0.1065,-0.2549,0.0012,996,1502,1500,1500,1000,1000,1505,1000,1505,1417,1241,1077,1015,-0.6529,0.8062,-0.4670,-0.0568,-0.0081,1.0047,0.3625,0.1472,-0.3601,-0.1496,0.6083,0.0280,0.0777,0.6083,0.0280,0.0777,0.3000,0.0600,0.0002,0,-0.3000,-100.0000,-0.0010,-0.3000,-100.0000,-0.0010,19.8355,53.6398,0.0200,0.0000
-16.1395,41.7632,-6.9301,0.5801,0.0821,0.1200,0.0000,0.0000,0.0000,0.1067,-0.2544,0.0010,996,1502,1500,1500,1000,1000,1505,1000,1505,1417,1241,1077,1015,-1.0753,0.4240,-0.3922,-0.0618,-0.0060,1.0067,0.3621,0.1467,-0.3602,-0.1486,0.6083,0.0280,0.0777,0.6083,0.0280,0.0777,0.3000,0.0600,0.0002,0,-0.3000,-100.0000,-0.0010,-0.3000,-100.0000,-0.0010,19.8784,53.6767,0.0200,0.0000
-16.1359,41.7294,-6.9219,0.5801,0.0821,0.1200,0.0000,0.0000,0.0000,0.1071,-0.2540,0.0006,996,1502,1500,1500,1000,1000,1505,1000,1505,1418,1241,1077,1015,-1.4661,-0.1089,-0.3068,-0.0573,-0.0096,1.0017,0.3618,0.1463,-0.3606,-0.1475,0.6090,0.0280,0.0777,0.6090,0.0280,0.0777,0.3000,0.0600,0.0002,0,-0.3000,-100.0000,-0.0010,-0.3000,-100.0000,-0.0010,19.9213,53.7136,0.0200,0.0000
-16.1321,41.6909,-6.9093,0.5801,0.0821,0.1200,0.0000,0.0000,0.0000,0.1072,-0.2535,0.0001,996,1502,1500,1500,1000,1000,1505,1000,1505,1418,1241,1077,1015,-1.5675,-0.4961,-0.1097,-0.0562,-0.0106,1.0001,0.3608,0.1463,-0.3606,-0.1464,0.6090,0.0280,0.0777,0.6090,0.0280,0.0777,0.3000,0.0600,0.0002,0,-0.3000,-100.0000,-0.0010,-0.3000,-100.0000,-0.0010,19.9642,53.7505,0.0200,0.0000
-16.1277,41.6492,-6.8938,0.5801,0.0821,0.1200,0.0000,0.0000,0.0000,0.1073,-0.2531,-0.0001,996,1502,1500,1500,1000,1000,1505,1000,1505,1418,1241,1077,1015,-1.7553,-0.7615,-0.0453,-0.0565,-0.0108,1.0040,0.3603,0.1458,-0.3604,-0.1457,0.6090,0.0280,0.0777,0.6090,0.0280,0.0777,0.3000,0.0600,0.0002,0,-0.3000,-100.0000,-0.0010,-0.3000,-100.0000,-0.0010,20.0071,53.7874,0.0200,0.0000
-16.1248,41.6071,-6.8766,0.5801,0.0821,0.2400,0.0600,0.3200,0.0000,0.1082,-0.2524,0.0014,997,1503,1500,1500,1000,1000,1505,1000,1505,1418,1241,1077,1015,-1.9730,-0.7998,0.0952,-0.0501,-0.0131,0.9992,0.3620,0.1428,-0.3592,-0.1456,0.6090,0.0280,0.0777,0.6090,0.0280,0.0777,0.3000,0.0600,0.0002,0,-0.3000,-100.0000,-0.0010,-0.3000,-100.0000,-0.0010,20.0501,53.8243,0.0400,0.0100
-16.1223,41.5665,-6.8586,0.5801,0.0821,0.1200,0.0000,0.0000,0.0000,0.1074,-0.2527,-0.0006,996,1502,1500,1500,1000,1000,1505,1000,1505,1418,1241,1077,1015,-1.9854,-0.5614,0.1407,-0.0501,-0.0159,1.0021,0.3595,0.1459,-0.3608,-0.1446,0.6090,0.0280,0.0777,0.6090,0.0280,0.0777,0.3000,0.0600,0.0002,0,-0.3000,-100.0000,-0.0010,-0.3000,-100.0000,-0.0010,20.0931,53.8611,0.0200,0.0000
-16.1212,41.5289,-6.8415,0.5801,0.0821,0.1200,0.0000,0.0000,0.0000,0.1075,-0.2528,-0.0006,996,1502,1500,1500,1000,1000,1505,1000,1505,1418,1241,1077,1015,-2.0821,-0.1757,0.1420,-0.0474,-0.0190,1.0017,0.3597,0.1459,-0.3609,-0.1446,0.6090,0.0280,0.0777,0.6090,0.0280,0.0777,0.3000,0.0600,0.0002,0,-0.3000,-100.0000,-0.0010,-0.3000,-100.0000,-0.0010,20.1361,53.8980,0.0200,0.0000
-16.1219,41.4956,-6.8262,0.5801,0.0821,0.1200,0.0000,0.0000,0.0000,0.1075,-0.2529,-0.0007,996,1502,1500,1500,1000,1000,1505,1000,1505,1418,1241,1077,1015,-2.0947,0.1925,0.1759,-0.0507,-0.0198,1.0024,0.3597,0.1461,-0.3611,-0.1446,0.6090,0.0280,0.0777,0.6090,0.0280,0.0777,0.3000,0.0600,0.0002,0,-0.3000,-100.0000,-0.0010,-0.3000,-100.0000,-0.0010,20.1791,53.9349,0.0200,0.0000
-16.1239,41.4656,-6.8127,0.5801,0.0821,0.1200,0.0000,0.0000,0.0000,0.1076,-0.2529,-0.0006,996,1502,1500,1500,1000,1000,1505,1000,1505,1418,1241,1077,1015,-2.1296,0.5322,0.1272,-0.0488,-0.0155,1.0028,0.3599,0.1460,-0.3611,-0.1448,0.6090,0.0280,0.0777,0.6090,0.0280,0.0777,0.3000,0.0600,0.0002,0,-0.3000,-100.0000,-0.0010,-0.3000,-100.0000,-0.0010,20.2221,53.9718,0.0200,0.0000
-16.1274,41.4381,-6.8007,0.5801,0.0821,0.1200,0.0000,0.0000,0.0000,0.1077,-0.2529,-0.0007,996,1502,1500,1500,1000,1000,1505,1000,1505,1418,1241,1077,1015,-2.2335,0.7124,0.1355,-0.0540,-0.0126,1.0032,0.3599,0.1459,-0.3612,-0.1446,0.6090,0.0280,0.0777,0.6090,0.0280,0.0777,0.3000,0.0600,0.0002,0,-0.3000,-100.0000,-0.0010,-0.3000,-100.0000,-0.0010,20.2651,54.0086,0.0200,0.0000
-16.1311,41.4111,-6.7875,0.5801,0.0821,0.2400,0.0600,0.3200,0.0000,0.1084,-0.2520,0.0010,997,1503,1500,1500,1000,1000,1505,1000,1505,1417,1241,1077,1015,-2.3567,0.5778,0.2287,-0.0584,-0.0138,1.0032,0.3614,0.1426,-0.3594,-0.1446,0.6083,0.0280,0.0777,0.6083,0.0280,0.0777,0.3000,0.0600,0.0002,0,-0.3000,-100.0000,-0.0010,-0.3000,-100.0000,-0.0010,20.3082,54.0454,0.0400,0.0100
-16.1352,41.3822,-6.7727,0.5801,0.0821,0.1200,0.0000,0.0000,0.0000,0.1079,-0.2523,-0.0010,996,1502,1500,1500,1000,1000,1505,1000,1505,1418,1241,1077,1015,-2.4540,0.4216,0.2422,-0.0561,-0.0164,1.0047,0.3592,0.1455,-0.3612,-0.1435,0.6090,0.0280,0.0777,0.6090,0.0280,0.0777,0.3000,0.0600,0.0002,0,-0.3000,-100.0000,-0.0010,-0.3000,-100.0000,-0.0010,20.3512,54.0822,0.0200,0.0000
-16.1383,41.3508,-6.7553,0.5801,0.0821,0.1200,0.0000,0.0000,0.0000,0.1080,-0.2518,-0.0018,996,1502,1500,1500,1000,1000,1505,1000,1505,1418,1241,1077,1015,-2.5157,-0.0010,0.4929,-0.0555,-0.0165,1.0070,0.3580,0.1456,-0.3615,-0.1421,0.6090,0.0280,0.0777,0.6090,0.0280,0.0777,0.3000,0.0600,0.0002,0,-0.3000,-100.0000,-0.0010,-0.3000,-100.0000,-0.0010,20.3943,54.1191,0.0200,0.0000
-16.1392,41.3161,-6.7333,0.5801,0.0821,0.1200,0.0000,0.0000,0.0000,0.1080,-0.2514,-0.0022,996,1502,1500,1500,1000,1000,1505,1000,1505,1418,1241,1077,1015,-2.5344,-0.3231,0.6620,-0.0572,-0.0224,1.0054,0.3571,0.1456,-0.3616,-0.1412,0.6090,0.0280,0.0777,0.6090,0.0280,0.0777,0.3000,0.0600,0.0002,0,-0.3000,-100.0000,-0.0010,-0.3000,-100.0000,-0.0010,20.4373,54.1558,0.0200,0.0000
-16.1387,41.2798,-6.7092,0.5801,0.1642,0.1200,0.0000,0.0000,0.0000,0.1080,-0.2511,-0.0026,996,1502,1500,1500,1000,1000,1505,1000,1505,1418,1241,1077,1015,-2.5499,-0.4249,0.7799,-0.0544,-0.0216,1.0043,0.3565,0.1456,-0.3616,-0.1405,0.6090,0.0280,0.0777,0.6090,0.0280,0.0777,0.3000,0.0600,0.0002,0,-0.3000,-100.0000,-0.0010,-0.3000,-100.0000,-0.0010,20.4804,54.1926,0.0200,0.0000
-16.1368,41.2424,-6.6836,0.5801,0.0821,0.1200,0.0000,0.0000,0.0000,0.1078,-0.2505,-0.0027,996,1502,1500,1500,1000,1000,1505,1000,1505,1417,1241,1077,1016,-2.4779,-0.5163,0.8169,-0.0548,-0.0232,1.0057,0.3556,0.1454,-0.3610,-0.1400,0.6083,0.0280,0.0777,0.6083,0.0280,0.0777,0.3000,0.0600,0.0002,0,-0.3000,-100.0000,-0.0010,-0.3000,-100.0000,-0.0010,20.5236,54.2294,0.0200,0.0000
-16.1345,41.2050,-6.6595,0.5801,0.0821,0.2400,0.0600,0.3200,0.0000,0.1084,-0.2500,-0.0000,997,1503,1500,1500,1000,1000,1505,1000,1505,1417,1241,1077,1015,-2.3144,-0.4046,0.5830,-0.0518,-0.0248,1.0071,0.3584,0.1416,-0.3584,-0.1416,0.6083,0.0280,0.0777,0.6083,0.0280,0.0777,0.3000,0.0600,0.0002,0,-0.3000,-100.0000,-0.0010,-0.3000,-100.0000,-0.0010,20.5667,54.2663,0.0400,0.0100
-16.1347,41.1694,-6.6411,0.5801,0.0821,0.1200,0.0000,0.0000,0.0000,0.1075,-0.2504,-0.0005,996,1502,1500,1500,1000,1000,1505,1000,1505,1417,1241,1077,1015,-2.1286,-0.0108,0.0898,-0.0510,-0.0232,1.0041,0.3575,0.1434,-0.3584,-0.1425,0.6083,0.0280,0.0777,0.6083,0.0280,0.0777,0.3000,0.0600,0.0002,0,-0.3000,-100.0000,-0.0010,-0.3000,-100.0000,-0.0010,20.6099,54.3030,0.0200,0.0000
-16.1375,41.1352,-6.6298,0.5801,0.0821,0.1200,0.0000,0.0000,0.0000,0.1075,-0.2507,0.0007,996,1502,1500,1500,1000,1000,1505,1000,1505,1418,1241,1077,1015,-1.9312,0.2532,-0.3092,-0.0517,-0.0229,1.0031,0.3589,0.1425,-0.3575,-0.1439,0.6090,0.0280,0.0777,0.6090,0.0280,0.0777,0.3000,0.0600,0.0002,0,-0.3000,-100.0000,-0.0010,-0.3000,-100.0000,-0.0010,20.6530,54.3398,0.0200,0.0000
-16.1425,41.1024,-6.6256,0.5801,0.0821,0.1200,0.0000,0.0000,0.0000,0.1074,-0.2506,0.0020,996,1502,1500,1500,1000,1000,1505,1000,1505,1418,1241,1077,1015,-1.7280,0.4108,-0.7459,-0.0540,-0.0249,1.0067,0.3600,0.1413,-0.3560,-0.1453,0.6090,0.0280,0.0777,0.6090,0.0280,0.0777,0.3000,0.0600,0.0002,0,-0.3000,-100.0000,-0.0010,-0.3000,-100.0000,-0.0010,20.6962,54.3766,0.0200,0.0000
-16.1468,41.0684,-6.6252,0.5801,0.1642,0.1200,0.0000,0.0000,0.0000,0.1070,-0.2500,0.0025,996,1502,1500,1500,1000,1000,1505,1000,1505,1417,1241,1077,1015,-1.2971,0.2063,-0.9106,-0.0538,-0.0214,1.0019,0.3594,0.1405,-0.3545,-0.1455,0.6083,0.0280,0.0777,0.6083,0.0280,0.0777,0.3000,0.0600,0.0002,0,-0.3000,-100.0000,-0.0010,-0.3000,-100.0000,-0.0010,20.7394,54.4133,0.0200,0.0000
-16.1456,41.0320,-6.6238,0.5801,0.0821,0.1200,0.0000,0.0000,0.0000,0.1066,-0.2496,0.0021,996,1502,1500,1500,1000,1000,1505,1000,1505,1417,1241,1077,1015,-0.9134,-0.0414,-0.7770,-0.0564,-0.0215,1.0026,0.3583,0.1409,-0.3542,-0.1450,0.6083,0.0280,0.0777,0.6083,0.0280,0.0777,0.3000,0.0600,0.0002,0,-0.3000,-100.0000,-0.0010,-0.3000,-100.0000,-0.0010,20.7826,54.4501,0.0200,0.0000
-16.1388,40.9944,-6.6196,0.5801,0.0821,0.2400,0.0600,0.3200,0.0000,0.1070,-0.2489,0.0031,997,1503,1500,1500,1000,1000,1505,1000,1505,1417,1241,1077,1016,-0.5081,-0.1338,-0.5017,-0.0563,-0.0250,1.0045,0.3590,0.1388,-0.3528,-0.1450,0.6083,0.0280,0.0777,0.6083,0.0280,0.0777,0.3000,0.0600,0.0002,0,-0.3000,-100.0000,-0.0010,-0.3000,-100.0000,-0.0010,20.8259,54.4868,0.0400,0.0100
-16.1259,40.9572,-6.6102,0.5801,0.0821,0.1200,0.0000,0.0000,0.0000,0.1062,-0.2493,0.0002,996,1502,1500,1500,1000,1000,1505,1000,1505,1418,1241,1077,1015,-0.3840,-0.1408,-0.1542,-0.0538,-0.0270,1.0010,0.3557,0.1429,-0.3554,-0.1433,0.6090,0.0280,0.0777,0.6090,0.0280,0.0777,0.3000,0.0600,0.0002,0,-0.3000,-100.0000,-0.0010,-0.3000,-100.0000,-0.0010,20.8691,54.5236,0.0200,0.0000
-16.1086,40.9206,-6.5960,0.5801,0.0821,0.1200,0.0000,0.0000,0.0000,0.1060,-0.2490,-0.0009,996,1502,1500,1500,1000,1000,1505,1000,1505,1418,1241,1077,1015,-0.2395,-0.2133,0.2024,-0.0528,-0.0269,1.0048,0.3542,0.1439,-0.3559,-0.1422,0.6090,0.0280,0.0777,0.6090,0.0280,0.0777,0.3000,0.0600,0.0002,0,-0.3000,-100.0000,-0.0010,-0.3000,-100.0000,-0.0010,20.9124,54.5603,0.0200,0.0000
-16.0866,40.8855,-6.5774,0.5801,0.0821,0.1200,0.0000,0.0000,0.0000,0.1058,-0.2489,-0.0016,996,1502,1500,1500,1000,1000,1505,1000,1505,1418,1241,1077,1016,-0.1036,-0.1126,0.4389,-0.0544,-0.0198,1.0068,0.3531,0.1447,-0.3563,-0.1416,0.6090,0.0280,0.0777,0.6090,0.0280,0.0777,0.3000,0.0600,0.0002,0,-0.3000,-100.0000,-0.0010,-0.3000,-100.0000,-0.0010,20.9557,54.5970,0.0200,0.0000
-16.0621,40.8520,-6.5564,0.5801,0.0821,0.1200,0.0000,0.0000,0.0000,0.1055,-0.2488,-0.0023,996,1502,1500,1500,1000,1000,1505,1000,1505,1418,1241,1077,1016,0.0097,-0.0349,0.6860,-0.0529,-0.0213,0.9998,0.3520,0.1455,-0.3566,-0.1409,0.6090,0.0280,0.0777,0.6090,0.0280,0.0777,0.3000,0.0600,0.0002,0,-0.3000,-100.0000,-0.0010,-0.3000,-100.0000,-0.0010,20.9990,54.6338,0.0200,0.0000
-16.0369,40.8194,-6.5356,0.5801,0.0821,0.1200,0.0000,0.0000,0.0000,0.1052,-0.2484,-0.0016,996,1502,1500,1500,1000,1000,1505,1000,1505,1417,1241,1077,1015,0.0683,0.1554,0.4807,-0.0566,-0.0205,1.0041,0.3520,0.1449,-0.3553,-0.1416,0.6083,0.0280,0.0777,0.6083,0.0280,0.0777,0.3000,0.0600,0.0002,0,-0.3000,-100.0000,-0.0010,-0.3000,-100.0000,-0.0010,21.0423,54.6704,0.0200,0.0000
-16.0143,40.7877,-6.5188,0.5801,0.0821,0.2400,0.0600,0.3200,0.0000,0.1059,-0.2479,0.0012,997,1503,1500,1500,1000,1000,1505,1000,1505,1417,1241,1077,1016,-0.0050,0.2169,0.1759,-0.0493,-0.0250,1.0033,0.3550,0.1408,-0.3526,-0.1433,0.6083,0.0280,0.0777,0.6083,0.0280,0.0777,0.3000,0.0600,0.0002,0,-0.3000,-100.0000,-0.0010,-0.3000,-100.0000,-0.0010,21.0856,54.7071,0.0400,0.0100
-15.9954,40.7551,-6.5061,0.5801,0.0821,0.1200,0.0000,0.0000,0.0000,0.1051,-0.2480,0.0002,996,1502,1500,1500,1000,1000,1505,1000,1505,1417,1241,1077,1016,-0.0766,0.0823,-0.1273,-0.0564,-0.0245,1.0084,0.3533,0.1427,-0.3529,-0.1431,0.6083,0.0280,0.0777,0.6083,0.0280,0.0777,0.3000,0.0600,0.0002,0,-0.3000,-100.0000,-0.0010,-0.3000,-100.0000,-0.0010,21.1290,54.7438,0.0200,0.0000
-15.9791,40.7207,-6.4972,0.5801,0.0821,0.1200,0.0000,0.0000,0.0000,0.1050,-0.2477,0.0009,996,1502,1500,1500,1000,1000,1505,1000,1505,1417,1241,1077,1015,-0.0545,0.0263,-0.3661,-0.0589,-0.0248,1.0050,0.3536,0.1419,-0.3518,-0.1437,0.6083,0.0280,0.0777,0.6083,0.0280,0.0777,0.3000,0.0600,0.0002,0,-0.3000,-100.0000,-0.0010,-0.3000,-100.0000,-0.0010,21.1723,54.7804,0.0200,0.0000
-15.9640,40.6839,-6.4907,0.5801,0.0821,0.1200,0.0000,0.0000,0.0000,0.1048,-0.2474,0.0013,996,1502,1500,1500,1000,1000,1505,1000,1505,1417,1241,1077,1015,0.0326,-0.1259,-0.5145,-0.0565,-0.0231,1.0025,0.3535,0.1413,-0.3509,-0.1439,0.6083,0.0280,0.0777,0.6083,0.0280,0.0777,0.3000,0.0600,0.0002,0,-0.3000,-100.0000,-0.0010,-0.3000,-100.0000,-0.0010,21.2157,54.8171,0.0200,0.0000
-15.9471,40.6447,-6.4844,0.5801,-0.0000,0.1200,0.0000,0.0000,0.0000,0.1046,-0.2470,0.0014,996,1502,1500,1500,1000,1000,1505,1000,1505,1417,1241,1077,1015,0.1921,-0.3325,-0.5568,-0.0587,-0.0205,1.0010,0.3530,0.1410,-0.3501,-0.1439,0.6083,0.0280,0.0777,0.6083,0.0280,0.0777,0.3000,0.0600,0.0002,0,-0.3000,-100.0000,-0.0010,-0.3000,-100.0000,-0.0010,21.2592,54.8538,0.0200,0.0000
-15.9281,40.6040,-6.4777,0.5801,0.0821,0.1200,0.0000,0.0000,0.0000,0.1043,-0.2467,0.0015,996,1502,1500,1500,1000,1000,1505,1000,1505,1417,1241,1077,1015,0.3611,-0.3973,-0.5987,-0.0531,-0.0196,1.0004,0.3526,0.1408,-0.3495,-0.1439,0.6083,0.0280,0.0777,0.6083,0.0280,0.0777,0.3000,0.0600,0.0002,0,-0.3000,-100.0000,-0.0010,-0.3000,-100.0000,-0.0010,21.3026,54.8904,0.0200,0.0000
-15.9078,40.5645,-6.4704,0.5801,0.0821,0.2400,0.0600,0.3200,0.0000,0.1049,-0.2462,0.0031,997,1503,1500,1500,1000,1000,1505,1000,1505,1417,1241,1077,1015,0.4401,-0.2481,-0.4691,-0.0543,-0.0226,1.0055,0.3542,0.1382,-0.3480,-0.1445,0.6083,0.0280,0.0777,0.6083,0.0280,0.0777,0.3000,0.0600,0.0002,0,-0.3000,-100.0000,-0.0010,-0.3000,-100.0000,-0.0010,21.3460,54.9271,0.0400,0.0100
-15.8855,40.5270,-6.4631,0.5801,0.0821,0.1200,0.0000,0.0000,0.0000,0.1039,-0.2468,0.0010,996,1502,1500,1500,1000,1000,1505,1000,1505,1418,1241,1077,1015,0.6638,-0.0145,-0.3969,-0.0530,-0.0220,1.0020,0.3517,0.1419,-0.3498,-0.1438,0.6090,0.0280,0.0777,0.6090,0.0280,0.0777,0.3000,0.0600,0.0002,0,-0.3000,-100.0000,-0.0010,-0.3000,-100.0000,-0.0010,21.3894,54.9637,0.0200,0.0000
-15.8623,40.4912,-6.4549,0.5801,0.0821,0.1200,0.0000,0.0000,0.0000,0.1038,-0.2466,0.0007,996,1502,1500,1500,1000,1000,1505,1000,1505,1418,1241,1077,1015,0.6611,0.0149,-0.3094,-0.0492,-0.0266,1.0013,0.3511,0.1421,-0.3497,-0.1435,0.6090,0.0280,0.0777,0.6090,0.0280,0.0777,0.3000,0.0600,0.0002,0,-0.3000,-100.0000,-0.0010,-0.3000,-100.0000,-0.0010,21.4328,55.0002,0.0200,0.0000
-15.8368,40.4567,-6.4454,0.5801,0.0821,0.1200,0.0000,0.0000,0.0000,0.1034,-0.2463,-0.0001,996,1502,1500,1500,1000,1000,1505,1000,1505,1417,1241,1077,1015,0.8399,0.2186,-0.0662,-0.0554,-0.0244,1.0057,0.3496,0.1429,-0.3498,-0.1428,0.6083,0.0280,0.0777,0.6083,0.0280,0.0777,0.3000,0.0600,0.0002,0,-0.3000,-100.0000,-0.0010,-0.3000,-100.0000,-0.0010,21.4763,55.0368,0.0200,0.0000
-15.8077,40.4230,-6.4337,0.5801,0.0821,0.1200,0.0000,0.0000,0.0000,0.1030,-0.2460,-0.0003,996,1502,1500,1500,1000,1000,1505,1000,1505,1417,1241,1077,1015,1.0891,0.0874,0.0135,-0.0565,-0.0214,1.0001,0.3487,0.1432,-0.3493,-0.1426,0.6083,0.0280,0.0777,0.6083,0.0280,0.0777,0.3000,0.0600,0.0002,0,-0.3000,-100.0000,-0.0010,-0.3000,-100.0000,-0.0010,21.5197,55.0733,0.0200,0.0000
-15.7742,40.3875,-6.4198,0.5801,0.0821,0.1200,0.0000,0.0000,0.0000,0.1027,-0.2458,-0.0005,996,1502,1500,1500,1000,1000,1505,1000,1505,1418,1241,1077,1015,1.3896,-0.2043,0.1047,-0.0534,-0.0213,1.0031,0.3480,0.1436,-0.3490,-0.1426,0.6090,0.0280,0.0777,0.6090,0.0280,0.0777,0.3000,0.0600,0.0002,0,-0.3000,-100.0000,-0.0010,-0.3000,-100.0000,-0.0010,21.5632,55.1099,0.0200,0.0000
-15.7377,40.3511,-6.4035,0.4972,0.1642,0.2400,0.0600,0.3200,0.0000,0.1031,-0.2450,0.0011,997,1503,1500,1500,1000,1000,1505,1000,1505,1417,1241,1077,1016,1.3687,-0.1225,0.2256,-0.0556,-0.0241,1.0045,0.3492,0.1408,-0.3471,-0.1429,0.6083,0.0280,0.0777,0.6083,0.0280,0.0777,0.3000,0.0600,0.0002,0,-0.3000,-100.0000,-0.0010,-0.3000,-100.0000,-0.0010,21.6067,55.1464,0.0400,0.0100
-15.7008,40.3152,-6.3866,0.5801,0.0821,0.1200,0.0000,0.0000,0.0000,0.1022,-0.2451,-0.0011,996,1502,1500,1500,1000,1000,1505,1000,1505,1417,1241,1077,1016,1.3504,-0.2503,0.2887,-0.0549,-0.0202,1.0065,0.3462,0.1439,-0.3483,-0.1418,0.6083,0.0280,0.0777,0.6083,0.0280,0.0777,0.3000,0.0600,0.0002,0,-0.3000,-100.0000,-0.0010,-0.3000,-100.0000,-0.0010,21.6502,55.1830,0.0200,0.0000
-15.6657,40.2798,-6.3702,0.5801,0.0821,0.1200,0.0000,0.0000,0.0000,0.1021,-0.2450,-0.0010,996,1502,1500,1500,1000,1000,1505,1000,1505,1417,1242,1077,1015,1.1634,-0.0194,0.2579,-0.0569,-0.0168,1.0010,0.3462,0.1439,-0.3482,-0.1419,0.6083,0.0280,0.0777,0.6083,0.0280,0.0777,0.3000,0.0600,0.0002,0,-0.3000,-100.0000,-0.0010,-0.3000,-100.0000,-0.0010,21.6938,55.2196,0.0200,0.0000
-15.6315,40.2454,-6.3534,0.5801,0.0821,0.1200,0.0000,0.0000,0.0000,0.1020,-0.2448,-0.0012,996,1502,1500,1500,1000,1000,1505,1000,1505,1417,1242,1077,1015,1.0842,-0.0133,0.3240,-0.0554,-0.0202,1.0065,0.3456,0.1440,-0.3480,-0.1416,0.6083,0.0280,0.0777,0.6083,0.0280,0.0777,0.3000,0.0600,0.0002,0,-0.3000,-100.0000,-0.0010,-0.3000,-100.0000,-0.0010,21.7374,55.2562,0.0200,0.0000
-15.5976,40.2113,-6.3362,0.5801,0.0821,0.1200,0.0000,0.0000,0.0000,0.1019,-0.2449,-0.0012,996,1502,1500,1500,1000,1000,1505,1000,1505,1418,1241,1077,1015,1.0422,-0.0307,0.3276,-0.0540,-0.0164,1.0005,0.3456,0.1441,-0.3479,-0.1418,0.6090,0.0280,0.0777,0.6090,0.0280,0.0777,0.3000,0.0600,0.0002,0,-0.3000,-100.0000,-0.0010,-0.3000,-100.0000,-0.0010,21.7810,55.2928,0.0200,0.0000
-15.5659,40.1765,-6.3196,0.5801,0.0821,0.1200,0.0000,0.0000,0.0000,0.1018,-0.2446,-0.0009,996,1502,1500,1500,1000,1000,1505,1000,1505,1418,1241,1077,1015,0.8660,-0.0888,0.2253,-0.0534,-0.0204,1.0031,0.3456,0.1436,-0.3473,-0.1419,0.6090,0.0280,0.0777,0.6090,0.0280,0.0777,0.3000,0.0600,0.0002,0,-0.3000,-100.0000,-0.0010,-0.3000,-100.0000,-0.0010,21.8246,55.3293,0.0200,0.0000
-15.5357,40.1409,-6.3038,0.5801,0.0821,0.2400,0.0600,0.3200,0.0000,0.1025,-0.2440,0.0012,997,1503,1500,1500,1000,1000,1505,1000,1505,1418,1241,1077,1016,0.7433,-0.1669,0.1767,-0.0506,-0.0217,1.0020,0.3477,0.1403,-0.3452,-0.1427,0.6090,0.0280,0.0777,0.6090,0.0280,0.0777,0.3000,0.0600,0.0002,0,-0.3000,-100.0000,-0.0010,-0.3000,-100.0000,-0.0010,21.8682,55.3658,0.0400,0.0100
-15.5073,40.1041,-6.2899,0.5801,0.0821,0.1200,0.0000,0.0000,0.0000,0.1016,-0.2441,0.0000,996,1502,1500,1500,1000,1000,1505,1000,1505,1418,1241,1077,1016,0.7587,-0.1972,-0.0630,-0.0559,-0.0200,1.0046,0.3457,0.1425,-0.3456,-0.1425,0.6090,0.0280,0.0777,0.6090,0.0280,0.0777,0.3000,0.0600,0.0002,0,-0.3000,-100.0000,-0.0010,-0.3000,-100.0000,-0.0010,21.9118,55.4024,0.0200,0.0000
-15.4797,40.0662,-6.2778,0.5801,0.0821,0.1200,0.0000,0.0000,0.0000,0.1013,-0.2437,0.0003,996,1502,1500,1500,1000,1000,1505,1000,1505,1418,1241,1077,1016,0.8882,-0.3691,-0.1448,-0.0539,-0.0185,1.0034,0.3453,0.1421,-0.3447,-0.1427,0.6090,0.0280,0.0777,0.6090,0.0280,0.0777,0.3000,0.0600,0.0002,0,-0.3000,-100.0000,-0.0010,-0.3000,-100.0000,-0.0010,21.9555,55.4389,0.0200,0.0000
-15.4508,40.0262,-6.2667,0.5801,0.0821,0.1200,0.0000,0.0000,0.0000,0.1010,-0.2434,0.0006,996,1502,1500,1500,1000,1000,1505,1000,1505,1418,1241,1077,1016,1.0567,-0.4136,-0.2710,-0.0523,-0.0183,1.0006,0.3450,0.1418,-0.3438,-0.1431,0.6090,0.0280,0.0777,0.6090,0.0280,0.0777,0.3000,0.0600,0.0002,0,-0.3000,-100.0000,-0.0010,-0.3000,-100.0000,-0.0010,21.9992,55.4755,0.0200,0.0000
-15.4216,39.9863,-6.2577,0.5801,0.0821,0.1200,0.0000,0.0000,0.0000,0.1007,-0.2433,0.0011,996,1502,1500,1500,1000,1000,1505,1000,1505,1418,1241,1077,1016,1.2301,-0.2711,-0.4403,-0.0516,-0.0183,1.0045,0.3451,0.1415,-0.3429,-0.1437,0.6090,0.0280,0.0777,0.6090,0.0280,0.0777,0.3000,0.0600,0.0002,0,-0.3000,-100.0000,-0.0010,-0.3000,-100.0000,-0.0010,22.0429,55.5120,0.0200,0.0000
-15.3923,39.9472,-6.2505,0.5801,0.0821,0.1200,0.0000,0.0000,0.0000,0.1003,-0.2428,0.0013,996,1502,1500,1500,1000,1000,1505,1000,1505,1417,1241,1077,1016,1.3437,-0.2294,-0.5136,-0.0535,-0.0243,1.0006,0.3445,0.1412,-0.3418,-0.1438,0.6083,0.0280,0.0777,0.6083,0.0280,0.0777,0.3000,0.0600,0.0002,0,-0.3000,-100.0000,-0.0010,-0.3000,-100.0000,-0.0010,22.0866,55.5485,0.0200,0.0000
-15.3617,39.9089,-6.2443,0.5801,0.0821,0.2400,0.0600,0.3200,0.0000,0.1008,-0.2426,0.0035,997,1503,1500,1500,1000,1000,1505,1000,1505,1418,1242,1077,1016,1.5757,-0.1463,-0.6106,-0.0554,-0.0187,1.0025,0.3469,0.1382,-0.3398,-0.1453,0.6090,0.0280,0.0777,0.6090,0.0280,0.0777,0.3000,0.0600,0.0002,0,-0.3000,-100.0000,-0.0010,-0.3000,-100.0000,-0.0010,22.1303,55.5851,0.0400,0.0100
-15.3292,39.8720,-6.2393,0.5801,0.0821,0.1200,0.0000,0.0000,0.0000,0.0997,-0.2428,0.0015,996,1502,1500,1500,1000,1000,1505,1000,1505,1418,1242,1077,1016,1.8506,0.0028,-0.5747,-0.0536,-0.0182,1.0052,0.3440,0.1416,-0.3410,-0.1447,0.6090,0.0280,0.0777,0.6090,0.0280,0.0777,0.3000,0.0600,0.0002,0,-0.3000,-100.0000,-0.0010,-0.3000,-100.0000,-0.0010,22.1741,55.6216,0.0200,0.0000
-15.2937,39.8346,-6.2347,0.5801,0.0821,0.1200,0.0000,0.0000,0.0000,0.0991,-0.2423,0.0017,996,1502,1500,1500,1000,1000,1505,1000,1505,1417,1241,1077,1015,2.1114,-0.0423,-0.6300,-0.0548,-0.0183,0.9990,0.3431,0.1415,-0.3397,-0.1449,0.6083,0.0280,0.0777,0.6083,0.0280,0.0777,0.3000,0.0600,0.0002,0,-0.3000,-100.0000,-0.0010,-0.3000,-100.0000,-0.0010,22.2178,55.6581,0.0200,0.0000
-15.2561,39.7977,-6.2305,0.5801,0.0821,0.1200,0.0000,0.0000,0.0000,0.0987,-0.2421,0.0017,996,1502,1500,1500,1000,1000,1505,1000,1505,1417,1241,1077,1015,2.3245,-0.0423,-0.6292,-0.0536,-0.0187,1.0024,0.3425,0.1417,-0.3391,-0.1450,0.6083,0.0280,0.0777,0.6083,0.0280,0.0777,0.3000,0.0600,0.0002,0,-0.3000,-100.0000,-0.0010,-0.3000,-100.0000,-0.0010,22.2616,55.6945,0.0200,0.0000
-15.2173,39.7605,-6.2269,0.4972,0.0821,0.1200,0.0000,0.0000,0.0000,0.0985,-0.2422,0.0018,996,1502,1500,1500,1000,1000,1505,1000,1505,1418,1242,1077,1016,2.4018,0.0890,-0.6864,-0.0523,-0.0175,1.0065,0.3426,0.1418,-0.3389,-0.1455,0.6090,0.0280,0.0777,0.6090,0.0280,0.0777,0.3000,0.0600,0.0002,0,-0.3000,-100.0000,-0.0010,-0.3000,-100.0000,-0.0010,22.3054,55.7310,0.0200,0.0000
-15.1780,39.7240,-6.2230,0.5801,0.0821,0.1200,0.0000,0.0000,0.0000,0.0983,-0.2420,0.0015,996,1502,1500,1500,1000,1000,1505,1000,1505,1418,1242,1077,1016,2.3528,0.1226,-0.5724,-0.0529,-0.0146,1.0081,0.3419,0.1422,-0.3389,-0.1452,0.6090,0.0280,0.0777,0.6090,0.0280,0.0777,0.3000,0.0600,0.0002,0,-0.3000,-100.0000,-0.0010,-0.3000,-100.0000,-0.0010,22.3492,55.7674,0.0200,0.0000
-15.1365,39.6893,-6.2156,0.5801,0.0821,0.2400,0.0600,0.3200,0.0000,0.0988,-0.2414,0.0022,997,1503,1500,1500,1000,1000,1505,1000,1505,1418,1241,1077,1016,2.4111,0.1072,-0.1823,-0.0551,-0.0121,1.0019,0.3424,0.1404,-0.3379,-0.1449,0.6090,0.0280,0.0777,0.6090,0.0280,0.0777,0.3000,0.0600,0.0002,0,-0.3000,-100.0000,-0.0010,-0.3000,-100.0000,-0.0010,22.3930,55.8039,0.0400,0.0100
-15.0930,39.6547,-6.2027,0.5801,0.0821,0.1200,0.0000,0.0000,0.0000,0.0979,-0.2415,-0.0009,996,1502,1500,1500,1000,1000,1505,1000,1505,1418,1241,1077,1015,2.1854,0.0274,0.2185,-0.0532,-0.0123,1.0016,0.3386,0.1444,-0.3403,-0.1427,0.6090,0.0280,0.0777,0.6090,0.0280,0.0777,0.3000,0.0600,0.0002,0,-0.3000,-100.0000,-0.0010,-0.3000,-100.0000,-0.0010,22.4369,55.8403,0.0200,0.0000
-15.0470,39.6208,-6.1848,0.5801,0.0821,0.1200,0.0000,0.0000,0.0000,0.0977,-0.2413,-0.0020,996,1502,1500,1500,1000,1000,1505,1000,1505,1418,1241,1077,1015,2.1125,-0.0187,0.5948,-0.0557,-0.0084,1.0033,0.3370,0.1456,-0.3410,-0.1416,0.6090,0.0280,0.0777,0.6090,0.0280,0.0777,0.3000,0.0600,0.0002,0,-0.3000,-100.0000,-0.0010,-0.3000,-100.0000,-0.0010,22.4807,55.8768,0.0200,0.0000
-15.0015,39.5874,-6.1633,0.5801,0.0821,0.1200,0.0000,0.0000,0.0000,0.0976,-0.2408,-0.0025,996,1502,1500,1500,1000,1000,1505,1000,1505,1417,1241,1077,1015,1.7307,0.0111,0.7636,-0.0523,-0.0131,1.0022,0.3360,0.1457,-0.3410,-0.1407,0.6083,0.0280,0.0777,0.6083,0.0280,0.0777,0.3000,0.0600,0.0002,0,-0.3000,-100.0000,-0.0010,-0.3000,-100.0000,-0.0010,22.5246,55.9132,0.0200,0.0000
-14.9597,39.5542,-6.1411,0.5801,0.0821,0.1200,0.0000,0.0000,0.0000,0.0977,-0.2406,-0.0027,996,1502,1500,1500,1000,1000,1505,1000,1505,1417,1241,1077,1015,1.3694,-0.0022,0.8160,-0.0524,-0.0126,1.0039,0.3356,0.1457,-0.3410,-0.1402,0.6083,0.0280,0.0777,0.6083,0.0280,0.0777,0.3000,0.0600,0.0002,0,-0.3000,-100.0000,-0.0010,-0.3000,-100.0000,-0.0010,22.5685,55.9496,0.0200,0.0000
-14.9216,39.5205,-6.1185,0.5801,0.0821,0.1200,0.0000,0.0000,0.0000,0.0977,-0.2403,-0.0025,996,1502,1500,1500,1000,1000,1505,1000,1505,1417,1241,1077,1015,1.0381,-0.1821,0.7495,-0.0545,-0.0148,1.0003,0.3355,0.1450,-0.3404,-0.1401,0.6083,0.0280,0.0777,0.6083,0.0280,0.0777,0.3000,0.0600,0.0002,0,-0.3000,-100.0000,-0.0010,-0.3000,-100.0000,-0.0010,22.6123,55.9859,0.0200,0.0000
-14.8867,39.4847,-6.0966,0.5801,0.0821,0.2400,0.0600,0.3200,0.0000,0.0984,-0.2396,0.0001,997,1503,1500,1500,1000,1000,1505,1000,1505,1417,1241,1077,1016,0.7822,-0.2640,0.5598,-0.0539,-0.0158,1.0094,0.3381,0.1412,-0.3380,-0.1413,0.6083,0.0280,0.0777,0.6083,0.0280,0.0777,0.3000,0.0600,0.0002,0,-0.3000,-100.0000,-0.0010,-0.3000,-100.0000,-0.0010,22.6562,56.0223,0.0400,0.0100
-14.8557,39.4469,-6.0767,0.5801,0.0821,0.1200,0.0000,0.0000,0.0000,0.0976,-0.2396,-0.0014,996,1502,1500,1500,1000,1000,1505,1000,1505,1417,1241,1077,1016,0.6845,-0.4207,0.4055,-0.0521,-0.0144,1.0061,0.3358,0.1435,-0.3386,-0.1407,0.6083,0.0280,0.0777,0.6083,0.0280,0.0777,0.3000,0.0600,0.0002,0,-0.3000,-100.0000,-0.0010,-0.3000,-100.0000,-0.0010,22.7001,56.0586,0.0200,0.0000
-14.8262,39.4083,-6.0594,0.5801,0.0821,0.1200,0.0000,0.0000,0.0000,0.0976,-0.2398,-0.0007,996,1502,1500,1500,1000,1000,1505,1000,1505,1418,1242,1077,1016,0.6105,-0.2991,0.1678,-0.0556,-0.0135,1.0039,0.3366,0.1429,-0.3380,-0.1415,0.6090,0.0280,0.0777,0.6090,0.0280,0.0777,0.3000,0.0600,0.0002,0,-0.3000,-100.0000,-0.0010,-0.3000,-100.0000,-0.0010,22.7440,56.0950,0.0200,0.0000
-14.7998,39.3698,-6.0459,0.5801,0.0821,0.1200,0.0000,0.0000,0.0000,0.0974,-0.2395,0.0001,996,1502,1500,1500,1000,1000,1505,1000,1505,1418,1242,1077,1016,0.5548,-0.3231,-0.0833,-0.0507,-0.0122,1.0018,0.3370,0.1420,-0.3369,-0.1421,0.6090,0.0280,0.0777,0.6090,0.0280,0.0777,0.3000,0.0600,0.0002,0,-0.3000,-100.0000,-0.0010,-0.3000,-100.0000,-0.0010,22.7880,56.1313,0.0200,0.0000
-14.7754,39.3311,-6.0358,0.5801,0.0821,0.1200,0.0000,0.0000,0.0000,0.0972,-0.2394,0.0005,996,1502,1500,1500,1000,1000,1505,1000,1505,1418,1241,1077,1015,0.6194,-0.1813,-0.2304,-0.0517,-0.0106,1.0020,0.3371,0.1417,-0.3362,-0.1426,0.6090,0.0280,0.0777,0.6090,0.0280,0.0777,0.3000,0.0600,0.0002,0,-0.3000,-100.0000,-0.0010,-0.3000,-100.0000,-0.0010,22.8319,56.1677,0.0200,0.0000
-14.7511,39.2938,-6.0268,0.5801,0.0821,0.1200,0.0000,0.0000,0.0000,0.0970,-0.2392,0.0006,996,1502,1500,1500,1000,1000,1505,1000,1505,1418,1241,1077,1015,0.7107,-0.0821,-0.2815,-0.0513,-0.0133,1.0060,0.3369,0.1416,-0.3356,-0.1429,0.6090,0.0280,0.0777,0.6090,0.0280,0.0777,0.3000,0.0600,0.0002,0,-0.3000,-100.0000,-0.0010,-0.3000,-100.0000,-0.0010,22.8759,56.2041,0.0200,0.0000
-14.7269,39.2573,-6.0192,0.5801,0.0821,0.2400,0.0600,0.3200,0.0000,0.0976,-0.2387,0.0028,997,1503,1500,1500,1000,1000,1505,1000,1505,1418,1241,1077,1016,0.7326,0.0338,-0.3517,-0.0560,-0.0169,1.0030,0.3391,0.1384,-0.3335,-0.1440,0.6090,0.0280,0.0777,0.6090,0.0280,0.0777,0.3000,0.0600,0.0002,0,-0.3000,-100.0000,-0.0010,-0.3000,-100.0000,-0.0010,22.9200,56.2405,0.0400,0.0100
-14.7037,39.2219,-6.0119,0.5801,0.0821,0.1200,0.0000,0.0000,0.0000,0.0967,-0.2390,0.0009,996,1502,1500,1500,1000,1000,1505,1000,1505,1418,1241,1077,1016,0.6829,0.2003,-0.3586,-0.0523,-0.0167,1.0027,0.3366,0.1414,-0.3349,-0.1432,0.6090,0.0280,0.0777,0.6090,0.0280,0.0777,0.3000,0.0600,0.0002,0,-0.3000,-100.0000,-0.0010,-0.3000,-100.0000,-0.0010,22.9640,56.2769,0.0200,0.0000
-14.6802,39.1876,-6.0042,0.5801,0.0821,0.1200,0.0000,0.0000,0.0000,0.0966,-0.2388,0.0005,996,1502,1500,1500,1000,1000,1505,1000,1505,1418,1241,1077,1016,0.6404,0.1622,-0.2580,-0.0513,-0.0140,1.0085,0.3360,0.1416,-0.3349,-0.1427,0.6090,0.0280,0.0777,0.6090,0.0280,0.0777,0.3000,0.0600,0.0002,0,-0.3000,-100.0000,-0.0010,-0.3000,-100.0000,-0.0010,23.0081,56.3133,0.0200,0.0000
-14.6565,39.1524,-5.9963,0.5801,0.0821,0.1200,0.0000,0.0000,0.0000,0.0964,-0.2385,0.0007,996,1502,1500,1500,1000,1000,1505,1000,1505,1418,1241,1077,1015,0.7501,0.0529,-0.3039,-0.0556,-0.0097,1.0104,0.3356,0.1414,-0.3342,-0.1428,0.6090,0.0280,0.0777,0.6090,0.0280,0.0777,0.3000,0.0600,0.0002,0,-0.3000,-100.0000,-0.0010,-0.3000,-100.0000,-0.0010,23.0522,56.3496,0.0200,0.0000
-14.6312,39.1158,-5.9875,0.5801,0.0821,0.1200,0.0000,0.0000,0.0000,0.0962,-0.2381,0.0007,996,1502,1500,1500,1000,1000,1505,1000,1505,1418,1241,1077,1015,0.8412,-0.1590,-0.3158,-0.0554,-0.0075,1.0058,0.3350,0.1412,-0.3336,-0.1426,0.6090,0.0280,0.0777,0.6090,0.0280,0.0777,0.3000,0.0600,0.0002,0,-0.3000,-100.0000,-0.0010,-0.3000,-100.0000,-0.0010,23.0963,56.3859,0.0200,0.0000
-14.6033,39.0774,-5.9770,0.5801,0.0821,0.1200,0.0000,0.0000,0.0000,0.0959,-0.2377,-0.0001,996,1502,1500,1500,1000,1000,1505,1000,1505,1418,1241,1077,1016,0.9607,-0.3285,-0.0772,-0.0543,-0.0116,1.0107,0.3336,0.1419,-0.3337,-0.1418,0.6090,0.0280,0.0777,0.6090,0.0280,0.0777,0.3000,0.0600,0.0002,0,-0.3000,-100.0000,-0.0010,-0.3000,-100.0000,-0.0010,23.1404,56.4223,0.0200,0.0000
-14.5720,39.0387,-5.9630,0.5801,0.0821,0.2400,0.0600,0.3200,0.0000,0.0963,-0.2369,0.0012,997,1503,1500,1500,1000,1000,1505,1000,1505,1417,1241,1077,1016,1.0559,-0.2998,0.1536,-0.0524,-0.0084,1.0048,0.3344,0.1394,-0.3320,-0.1418,0.6083,0.0280,0.0777,0.6083,0.0280,0.0777,0.3000,0.0600,0.0002,0,-0.3000,-100.0000,-0.0010,-0.3000,-100.0000,-0.0010,23.1845,56.4586,0.0400,0.0100
-14.5381,39.0007,-5.9464,0.5801,0.0821,0.1200,0.0000,0.0000,0.0000,0.0952,-0.2370,-0.0012,996,1502,1500,1500,1000,1000,1505,1000,1505,1417,1241,1077,1016,1.2069,-0.3073,0.3255,-0.0519,-0.0153,1.0005,0.3310,0.1430,-0.3335,-0.1406,0.6083,0.0280,0.0777,0.6083,0.0280,0.0777,0.3000,0.0600,0.0002,0,-0.3000,-100.0000,-0.0010,-0.3000,-100.0000,-0.0010,23.2286,56.4950,0.0200,0.0000
-14.5029,38.9640,-5.9280,0.5801,0.0821,0.1200,0.0000,0.0000,0.0000,0.0950,-0.2370,-0.0016,996,1502,1500,1500,1000,1000,1505,1000,1505,1417,1241,1077,1015,1.1679,-0.0940,0.4683,-0.0533,-0.0173,1.0009,0.3304,0.1435,-0.3336,-0.1403,0.6083,0.0280,0.0777,0.6083,0.0280,0.0777,0.3000,0.0600,0.0002,0,-0.3000,-100.0000,-0.0010,-0.3000,-100.0000,-0.0010,23.2728,56.5313,0.0200,0.0000
-14.4676,38.9288,-5.9101,0.5801,0.0821,0.1200,0.0000,0.0000,0.0000,0.0948,-0.2368,-0.0017,996,1502,1500,1500,1000,1000,1505,1000,1505,1417,1241,1077,1015,1.2241,-0.0342,0.4763,-0.0494,-0.0157,1.0043,0.3299,0.1437,-0.3333,-0.1403,0.6083,0.0280,0.0777,0.6083,0.0280,0.0777,0.3000,0.0600,0.0002,0,-0.3000,-100.0000,-0.0010,-0.3000,-100.0000,-0.0010,23.3170,56.5677,0.0200,0.0000
-14.4333,38.8941,-5.8942,0.5801,0.0821,0.1200,0.0000,0.0000,0.0000,0.0945,-0.2366,-0.0008,996,1502,1500,1500,1000,1000,1505,1000,1505,1417,1241,1077,1015,1.2606,0.0481,0.2200,-0.0544,-0.0130,1.0022,0.3303,0.1429,-0.3320,-0.1413,0.6083,0.0280,0.0777,0.6083,0.0280,0.0777,0.3000,0.0600,0.0002,0,-0.3000,-100.0000,-0.0010,-0.3000,-100.0000,-0.0010,23.3612,56.6040,0.0200,0.0000
-14.4011,38.8602,-5.8816,0.5801,0.0821,0.1200,0.0000,0.0000,0.0000,0.0944,-0.2365,0.0001,996,1502,1500,1500,1000,1000,1505,1000,1505,1417,1241,1077,1015,1.1933,0.1658,-0.0912,-0.0561,-0.0084,1.0032,0.3310,0.1420,-0.3308,-0.1422,0.6083,0.0280,0.0777,0.6083,0.0280,0.0777,0.3000,0.0600,0.0002,0,-0.3000,-100.0000,-0.0010,-0.3000,-100.0000,-0.0010,23.4053,56.6401,0.0200,0.0000
-14.3693,38.8255,-5.8718,0.5801,0.0821,0.2400,0.0600,0.3200,0.0000,0.0948,-0.2359,0.0025,997,1503,1500,1500,1000,1000,1505,1000,1505,1417,1241,1077,1015,1.3877,0.1184,-0.2382,-0.0529,-0.0059,1.0031,0.3332,0.1387,-0.3282,-0.1436,0.6083,0.0280,0.0777,0.6083,0.0280,0.0777,0.3000,0.0600,0.0002,0,-0.3000,-100.0000,-0.0010,-0.3000,-100.0000,-0.0010,23.4495,56.6764,0.0400,0.0100
-14.3386,38.7901,-5.8648,0.5801,0.0821,0.1200,0.0000,0.0000,0.0000,0.0940,-0.2363,0.0013,996,1502,1500,1500,1000,1000,1505,1000,1505,1418,1241,1077,1015,1.3717,0.0711,-0.4814,-0.0533,-0.0098,1.0074,0.3316,0.1410,-0.3290,-0.1436,0.6090,0.0280,0.0777,0.6090,0.0280,0.0777,0.3000,0.0600,0.0002,0,-0.3000,-100.0000,-0.0010,-0.3000,-100.0000,-0.0010,23.4937,56.7126,0.0200,0.0000
-14.3102,38.7533,-5.8599,0.5801,0.0821,0.1200,0.0000,0.0000,0.0000,0.0939,-0.2360,0.0016,996,1502,1500,1500,1000,1000,1505,1000,1505,1418,1241,1077,1015,1.2595,0.0316,-0.6006,-0.0549,-0.0093,1.0057,0.3315,0.1405,-0.3283,-0.1438,0.6090,0.0280,0.0777,0.6090,0.0280,0.0777,0.3000,0.0600,0.0002,0,-0.3000,-100.0000,-0.0010,-0.3000,-100.0000,-0.0010,23.5379,56.7488,0.0200,0.0000
-14.2842,38.7162,-5.8557,0.5801,0.0821,0.1200,0.0000,0.0000,0.0000,0.0939,-0.2358,0.0018,996,1502,1500,1500,1000,1000,1505,1000,1505,1418,1241,1077,1015,1.0110,0.0377,-0.6594,-0.0529,-0.0121,1.0009,0.3316,0.1401,-0.3279,-0.1437,0.6090,0.0280,0.0777,0.6090,0.0280,0.0777,0.3000,0.0600,0.0002,0,-0.3000,-100.0000,-0.0010,-0.3000,-100.0000,-0.0010,23.5822,56.7851,0.0200,0.0000
-14.2600,38.6790,-5.8516,0.5801,0.0821,0.1200,0.0000,0.0000,0.0000,0.0939,-0.2355,0.0014,996,1502,1500,1500,1000,1000,1505,1000,1505,1418,1241,1077,1015,0.8256,-0.0124,-0.5239,-0.0539,-0.0084,1.0058,0.3308,0.1403,-0.3281,-0.1430,0.6090,0.0280,0.0777,0.6090,0.0280,0.0777,0.3000,0.0600,0.0002,0,-0.3000,-100.0000,-0.0010,-0.3000,-100.0000,-0.0010,23.6265,56.8213,0.0200,0.0000
-14.2360,38.6421,-5.8449,0.5801,0.0821,0.1200,0.0000,0.0000,0.0000,0.0939,-0.2353,0.0008,996,1502,1500,1500,1000,1000,1505,1000,1505,1418,1241,1077,1016,0.7131,-0.0205,-0.3266,-0.0531,-0.0055,1.0067,0.3299,0.1407,-0.3284,-0.1422,0.6090,0.0280,0.0777,0.6090,0.0280,0.0777,0.3000,0.0600,0.0002,0,-0.3000,-100.0000,-0.0010,-0.3000,-100.0000,-0.0010,23.6708,56.8575,0.0200,0.0000
-14.2112,38.6063,-5.8348,0.5801,0.0821,0.2400,0.0600,0.3200,0.0000,0.0946,-0.2347,0.0018,997,1503,1500,1500,1000,1000,1505,1000,1505,1418,1241,1077,1015,0.5483,-0.0152,-0.0467,-0.0527,-0.0048,1.0034,0.3312,0.1383,-0.3275,-0.1420,0.6090,0.0280,0.0777,0.6090,0.0280,0.0777,0.3000,0.0600,0.0002,0,-0.3000,-100.0000,-0.0010,-0.3000,-100.0000,-0.0010,23.7151,56.8937,0.0400,0.0100
-14.1858,38.5709,-5.8215,0.5801,0.0821,0.1200,0.0000,0.0000,0.0000,0.0938,-0.2349,-0.0009,996,1502,1500,1500,1000,1000,1505,1000,1505,1418,1241,1077,1015,0.4243,0.0211,0.2385,-0.0544,-0.0007,1.0000,0.3278,0.1421,-0.3296,-0.1402,0.6090,0.0280,0.0777,0.6090,0.0280,0.0777,0.3000,0.0600,0.0002,0,-0.3000,-100.0000,-0.0010,-0.3000,-100.0000,-0.0010,23.7593,56.9299,0.0200,0.0000
-14.1604,38.5357,-5.8053,0.5801,0.0821,0.1200,0.0000,0.0000,0.0000,0.0938,-0.2346,-0.0014,996,1502,1500,1500,1000,1000,1505,1000,1505,1418,1241,1077,1015,0.2393,-0.0759,0.3924,-0.0542,-0.0042,1.0018,0.3270,0.1423,-0.3298,-0.1394,0.6090,0.0280,0.0777,0.6090,0.0280,0.0777,0.3000,0.0600,0.0002,0,-0.3000,-100.0000,-0.0010,-0.3000,-100.0000,-0.0010,23.8037,56.9661,0.0200,0.0000
-14.1351,38.4998,-5.7868,0.5801,0.0821,0.1200,0.0000,0.0000,0.0000,0.0937,-0.2343,-0.0019,996,1502,1500,1500,1000,1000,1505,1000,1505,1418,1241,1077,1015,0.0941,-0.2179,0.5661,-0.0560,-0.0068,1.0061,0.3261,0.1425,-0.3300,-0.1386,0.6090,0.0280,0.0777,0.6090,0.0280,0.0777,0.3000,0.0600,0.0002,0,-0.3000,-100.0000,-0.0010,-0.3000,-100.0000,-0.0010,23.8480,57.0023,0.0200,0.0000
-14.1096,38.4629,-5.7664,0.5801,0.0821,0.1200,0.0000,0.0000,0.0000,0.0936,-0.2340,-0.0021,996,1502,1500,1500,1000,1000,1505,1000,1505,1418,1241,1077,1016,0.0726,-0.3241,0.6265,-0.0538,-0.0127,1.0029,0.3255,0.1425,-0.3297,-0.1383,0.6090,0.0280,0.0777,0.6090,0.0280,0.0777,0.3000,0.0600,0.0002,0,-0.3000,-100.0000,-0.0010,-0.3000,-100.0000,-0.0010,23.8924,57.0384,0.0200,0.0000
-14.0837,38.4251,-5.7444,0.5801,0.0821,0.1200,0.0000,0.0000,0.0000,0.0935,-0.2337,-0.0025,996,1502,1500,1500,1000,1000,1505,1000,1505,1418,1241,1077,1016,0.0366,-0.3998,0.7455,-0.0539,-0.0149,1.0005,0.3246,0.1427,-0.3297,-0.1377,0.6090,0.0280,0.0777,0.6090,0.0280,0.0777,0.3000,0.0600,0.0002,0,-0.3000,-100.0000,-0.0010,-0.3000,-100.0000,-0.0010,23.9368,57.0746,0.0200,0.0000
-14.0576,38.3872,-5.7224,0.5801,0.0821,0.2400,0.0600,0.3200,0.0000,0.0939,-0.2329,-0.0002,997,1503,1500,1500,1000,1000,1505,1000,1505,1417,1241,1077,1015,0.1405,-0.3644,0.6509,-0.0495,-0.0159,1.0054,0.3265,0.1392,-0.3270,-0.1388,0.6083,0.0280,0.0777,0.6083,0.0280,0.0777,0.3000,0.0600,0.0002,0,-0.3000,-100.0000,-0.0010,-0.3000,-100.0000,-0.0010,23.9812,57.1108,0.0400,0.0100
-14.0317,38.3494,-5.7022,0.5801,0.0821,0.1200,0.0000,0.0000,0.0000,0.0929,-0.2331,-0.0017,996,1502,1500,1500,1000,1000,1505,1000,1505,1417,1241,1077,1015,0.1868,-0.2455,0.5192,-0.0524,-0.0111,1.0068,0.3243,0.1419,-0.3278,-0.1384,0.6083,0.0280,0.0777,0.6083,0.0280,0.0777,0.3000,0.0600,0.0002,0,-0.3000,-100.0000,-0.0010,-0.3000,-100.0000,-0.0010,24.0256,57.1470,0.0200,0.0000
-14.0071,38.3131,-5.6850,0.5801,0.0821,0.1200,0.0000,0.0000,0.0000,0.0927,-0.2330,-0.0008,996,1502,1500,1500,1000,1000,1505,1000,1505,1417,1241,1077,1015,0.3449,-0.0497,0.2265,-0.0522,-0.0101,0.9998,0.3249,0.1412,-0.3265,-0.1395,0.6083,0.0280,0.0777,0.6083,0.0280,0.0777,0.3000,0.0600,0.0002,0,-0.3000,-100.0000,-0.0010,-0.3000,-100.0000,-0.0010,24.0701,57.1832,0.0200,0.0000
-13.9824,38.2777,-5.6714,0.5801,0.0821,0.1200,0.0000,0.0000,0.0000,0.0925,-0.2332,-0.0003,996,1502,1500,1500,1000,1000,1505,1000,1505,1418,1241,1077,1016,0.4675,0.0733,0.0537,-0.0538,-0.0059,1.0037,0.3254,0.1410,-0.3260,-0.1403,0.6090,0.0280,0.0777,0.6090,0.0280,0.0777,0.3000,0.0600,0.0002,0,-0.3000,-100.0000,-0.0010,-0.3000,-100.0000,-0.0010,24.1146,57.2194,0.0200,0.0000
-13.9586,38.2424,-5.6607,0.5801,0.0821,0.1200,0.0000,0.0000,0.0000,0.0922,-0.2329,0.0003,996,1502,1500,1500,1000,1000,1505,1000,1505,1418,1241,1077,1016,0.6565,0.0634,-0.1699,-0.0550,-0.0053,1.0008,0.3255,0.1404,-0.3248,-0.1411,0.6090,0.0280,0.0777,0.6090,0.0280,0.0777,0.3000,0.0600,0.0002,0,-0.3000,-100.0000,-0.0010,-0.3000,-100.0000,-0.0010,24.1591,57.2556,0.0200,0.0000
-13.9337,38.2068,-5.6526,0.5801,0.0821,0.1200,0.0000,0.0000,0.0000,0.0919,-0.2327,0.0009,996,1502,1500,1500,1000,1000,1505,1000,1505,1418,1241,1077,1016,0.8268,0.0336,-0.3673,-0.0554,-0.0096,1.0049,0.3255,0.1399,-0.3238,-0.1416,0.6090,0.0280,0.0777,0.6090,0.0280,0.0777,0.3000,0.0600,0.0002,0,-0.3000,-100.0000,-0.0010,-0.3000,-100.0000,-0.0010,24.2036,57.2918,0.0200,0.0000
-13.9089,38.1701,-5.6467,0.5801,0.0821,0.2400,0.0600,0.3200,0.0000,0.0924,-0.2321,0.0031,997,1503,1500,1500,1000,1000,1505,1000,1505,1418,1241,1077,1016,1.0006,-0.0300,-0.4746,-0.0575,-0.0148,1.0015,0.3276,0.1365,-0.3213,-0.1428,0.6090,0.0280,0.0777,0.6090,0.0280,0.0777,0.3000,0.0600,0.0002,0,-0.3000,-100.0000,-0.0010,-0.3000,-100.0000,-0.0010,24.2481,57.3279,0.0400,0.0100
-13.8823,38.1319,-5.6412,0.5801,0.0821,0.1200,0.0000,0.0000,0.0000,0.0913,-0.2321,0.0013,996,1502,1500,1500,1000,1000,1505,1000,1505,1418,1241,1077,1016,1.1965,-0.1599,-0.5149,-0.0510,-0.0131,1.0026,0.3248,0.1394,-0.3221,-0.1421,0.6090,0.0280,0.0777,0.6090,0.0280,0.0777,0.3000,0.0600,0.0002,0,-0.3000,-100.0000,-0.0010,-0.3000,-100.0000,-0.0010,24.2926,57.3641,0.0200,0.0000
-13.8544,38.0927,-5.6352,0.5801,0.0821,0.1200,0.0000,0.0000,0.0000,0.0911,-0.2318,0.0011,996,1502,1500,1500,1000,1000,1505,1000,1505,1418,1241,1077,1016,1.2291,-0.2063,-0.4463,-0.0526,-0.0133,1.0028,0.3241,0.1396,-0.3218,-0.1418,0.6090,0.0280,0.0777,0.6090,0.0280,0.0777,0.3000,0.0600,0.0002,0,-0.3000,-100.0000,-0.0010,-0.3000,-100.0000,-0.0010,24.3371,57.4002,0.0200,0.0000
-13.8255,38.0532,-5.6288,0.5801,0.1642,0.1200,0.0000,0.0000,0.0000,0.0909,-0.2316,0.0013,996,1502,1500,1500,1000,1000,1505,1000,1505,1418,1241,1077,1016,1.3422,-0.2092,-0.4872,-0.0520,-0.0115,1.0060,0.3238,0.1394,-0.3211,-0.1420,0.6090,0.0280,0.0777,0.6090,0.0280,0.0777,0.3000,0.0600,0.0002,0,-0.3000,-100.0000,-0.0010,-0.3000,-100.0000,-0.0010,24.3817,57.4363,0.0200,0.0000
-13.7956,38.0144,-5.6228,0.5801,0.0821,0.1200,0.0000,0.0000,0.0000,0.0906,-0.2315,0.0009,996,1502,1500,1500,1000,1000,1505,1000,1505,1418,1241,1077,1016,1.4222,-0.0735,-0.3902,-0.0519,-0.0075,1.0036,0.3230,0.1399,-0.3212,-0.1417,0.6090,0.0280,0.0777,0.6090,0.0280,0.0777,0.3000,0.0600,0.0002,0,-0.3000,-100.0000,-0.0010,-0.3000,-100.0000,-0.0010,24.4263,57.4724,0.0200,0.0000
-13.7631,37.9761,-5.6151,0.4972,0.1642,0.1200,0.0000,0.0000,0.0000,0.0903,-0.2312,0.0009,996,1502,1500,1500,1000,1000,1505,1000,1505,1418,1241,1077,1016,1.6091,-0.1532,-0.3671,-0.0553,-0.0060,1.0028,0.3224,0.1399,-0.3205,-0.1418,0.6090,0.0280,0.0777,0.6090,0.0280,0.0777,0.3000,0.0600,0.0002,0,-0.3000,-100.0000,-0.0010,-0.3000,-100.0000,-0.0010,24.4708,57.5085,0.0200,0.0000
-13.7273,37.9384,-5.6059,0.5801,0.0821,0.2400,0.0600,0.3200,0.0000,0.0905,-0.2303,0.0019,997,1503,1500,1500,1000,1000,1505,1000,1505,1417,1241,1077,1015,1.8887,-0.1876,-0.0767,-0.0488,-0.0046,1.0066,0.3227,0.1379,-0.3188,-0.1417,0.6083,0.0280,0.0777,0.6083,0.0280,0.0777,0.3000,0.0600,0.0002,0,-0.3000,-100.0000,-0.0010,-0.3000,-100.0000,-0.0010,24.5154,57.5445,0.0400,0.0100
-13.6864,37.9011,-5.5927,0.5801,0.0821,0.1200,0.0000,0.0000,0.0000,0.0895,-0.2307,-0.0010,996,1502,1500,1500,1000,1000,1505,1000,1505,1418,1242,1077,1015,2.0619,-0.1338,0.2470,-0.0540,-0.0087,1.0041,0.3192,0.1422,-0.3212,-0.1402,0.6090,0.0280,0.0777,0.6090,0.0280,0.0777,0.3000,0.0600,0.0002,0,-0.3000,-100.0000,-0.0010,-0.3000,-100.0000,-0.0010,24.5600,57.5806,0.0200,0.0000
-13.6423,37.8645,-5.5757,0.5801,0.0821,0.1200,0.0000,0.0000,0.0000,0.0892,-0.2306,-0.0019,996,1502,1500,1500,1000,1000,1505,1000,1505,1418,1242,1077,1015,2.0998,-0.0374,0.5313,-0.0522,-0.0129,1.0031,0.3179,0.1432,-0.3216,-0.1395,0.6090,0.0280,0.0777,0.6090,0.0280,0.0777,0.3000,0.0600,0.0002,0,-0.3000,-100.0000,-0.0010,-0.3000,-100.0000,-0.0010,24.6046,57.6166,0.0200,0.0000
-13.5965,37.8295,-5.5566,0.5801,0.0821,0.1200,0.0000,0.0000,0.0000,0.0889,-0.2304,-0.0020,996,1502,1500,1500,1000,1000,1505,1000,1505,1418,1241,1077,1016,2.1505,0.0559,0.6233,-0.0559,-0.0110,1.0068,0.3173,0.1436,-0.3213,-0.1395,0.6090,0.0280,0.0777,0.6090,0.0280,0.0777,0.3000,0.0600,0.0002,0,-0.3000,-100.0000,-0.0010,-0.3000,-100.0000,-0.0010,24.6492,57.6527,0.0200,0.0000
-13.5524,37.7958,-5.5389,0.5801,0.0821,0.1200,0.0000,0.0000,0.0000,0.0887,-0.2304,-0.0015,996,1502,1500,1500,1000,1000,1505,1000,1505,1418,1241,1077,1016,1.9848,0.2277,0.4329,-0.0531,-0.0110,0.9988,0.3176,0.1431,-0.3205,-0.1402,0.6090,0.0280,0.0777,0.6090,0.0280,0.0777,0.3000,0.0600,0.0002,0,-0.3000,-100.0000,-0.0010,-0.3000,-100.0000,-0.0010,24.6939,57.6887,0.0200,0.0000
-13.5115,37.7621,-5.5243,0.4972,0.0821,0.1200,0.0000,0.0000,0.0000,0.0884,-0.2298,-0.0007,996,1502,1500,1500,1000,1000,1505,1000,1505,1417,1241,1077,1016,1.9092,0.1535,0.1791,-0.0537,-0.0070,1.0030,0.3176,0.1421,-0.3190,-0.1407,0.6083,0.0280,0.0777,0.6083,0.0280,0.0777,0.3000,0.0600,0.0002,0,-0.3000,-100.0000,-0.0010,-0.3000,-100.0000,-0.0010,24.7386,57.7248,0.0200,0.0000
-13.4731,37.7287,-5.5112,0.5801,0.0821,0.2400,0.0600,0.3200,0.0000,0.0892,-0.2296,0.0016,997,1503,1500,1500,1000,1000,1505,1000,1505,1418,1242,1077,1015,1.6802,0.2175,0.0715,-0.0549,-0.0007,1.0000,0.3204,0.1388,-0.3172,-0.1419,0.6090,0.0280,0.0777,0.6090,0.0280,0.0777,0.3000,0.0600,0.0002,0,-0.3000,-100.0000,-0.0010,-0.3000,-100.0000,-0.0010,24.7834,57.7609,0.0400,0.0100
-13.4380,37.6936,-5.5004,0.5801,0.1642,0.1200,0.0000,0.0000,0.0000,0.0884,-0.2296,0.0005,996,1502,1500,1500,1000,1000,1505,1000,1505,1418,1242,1077,1015,1.4974,-0.0025,-0.1938,-0.0546,0.0001,1.0045,0.3184,0.1407,-0.3175,-0.1416,0.6090,0.0280,0.0777,0.6090,0.0280,0.0777,0.3000,0.0600,0.0002,0,-0.3000,-100.0000,-0.0010,-0.3000,-100.0000,-0.0010,24.8281,57.7969,0.0200,0.0000
-13.4055,37.6570,-5.4915,0.5801,0.0821,0.1200,0.0000,0.0000,0.0000,0.0884,-0.2294,0.0007,996,1502,1500,1500,1000,1000,1505,1000,1505,1418,1241,1077,1016,1.2981,0.0572,-0.2794,-0.0531,0.0027,1.0020,0.3184,0.1403,-0.3170,-0.1417,0.6090,0.0280,0.0777,0.6090,0.0280,0.0777,0.3000,0.0600,0.0002,0,-0.3000,-100.0000,-0.0010,-0.3000,-100.0000,-0.0010,24.8728,57.8330,0.0200,0.0000
-13.3761,37.6199,-5.4829,0.5801,0.0821,0.1200,0.0000,0.0000,0.0000,0.0884,-0.2291,0.0004,996,1502,1500,1500,1000,1000,1505,1000,1505,1418,1241,1077,1016,1.0032,-0.0335,-0.2023,-0.0532,-0.0011,1.0036,0.3178,0.1403,-0.3171,-0.1410,0.6090,0.0280,0.0777,0.6090,0.0280,0.0777,0.3000,0.0600,0.0002,0,-0.3000,-100.0000,-0.0010,-0.3000,-100.0000,-0.0010,24.9176,57.8690,0.0200,0.0000
-13.3497,37.5827,-5.4734,0.5801,0.0821,0.1200,0.0000,0.0000,0.0000,0.0884,-0.2286,0.0002,996,1502,1500,1500,1000,1000,1505,1000,1505,1417,1241,1077,1016,0.6420,-0.0660,-0.1492,-0.0530,-0.0040,1.0062,0.3172,0.1399,-0.3168,-0.1403,0.6083,0.0280,0.0777,0.6083,0.0280,0.0777,0.3000,0.0600,0.0002,0,-0.3000,-100.0000,-0.0010,-0.3000,-100.0000,-0.0010,24.9623,57.9051,0.0200,0.0000
-13.3272,37.5457,-5.4629,0.5801,0.0821,0.1200,0.0000,0.0000,0.0000,0.0886,-0.2284,-0.0001,996,1502,1500,1500,1000,1000,1505,1000,1505,1417,1241,1077,1016,0.1950,-0.0636,-0.0513,-0.0549,-0.0045,1.0080,0.3169,0.1398,-0.3171,-0.1396,0.6083,0.0280,0.0777,0.6083,0.0280,0.0777,0.3000,0.0600,0.0002,0,-0.3000,-100.0000,-0.0010,-0.3000,-100.0000,-0.0010,25.0071,57.9411,0.0200,0.0000
-13.3079,37.5095,-5.4500,0.5801,0.0821,0.2400,0.0600,0.3200,0.0000,0.0897,-0.2280,0.0010,997,1503,1500,1500,1000,1000,1505,1000,1505,1418,1241,1077,1015,-0.2523,-0.0497,0.2132,-0.0554,-0.0023,1.0047,0.3187,0.1373,-0.3167,-0.1394,0.6090,0.0280,0.0777,0.6090,0.0280,0.0777,0.3000,0.0600,0.0002,0,-0.3000,-100.0000,-0.0010,-0.3000,-100.0000,-0.0010,25.0519,57.9771,0.0400,0.0100
-13.2911,37.4736,-5.4345,0.5801,0.1642,0.1200,0.0000,0.0000,0.0000,0.0891,-0.2279,-0.0011,996,1502,1500,1500,1000,1000,1505,1000,1505,1417,1241,1077,1015,-0.6139,-0.0437,0.3005,-0.0545,0.0046,1.0045,0.3159,0.1400,-0.3181,-0.1378,0.6083,0.0280,0.0777,0.6083,0.0280,0.0777,0.3000,0.0600,0.0002,0,-0.3000,-100.0000,-0.0010,-0.3000,-100.0000,-0.0010,25.0967,58.0131,0.0200,0.0000
-13.2767,37.4375,-5.4196,0.5801,0.0821,0.1200,0.0000,0.0000,0.0000,0.0891,-0.2277,-0.0005,996,1502,1500,1500,1000,1000,1505,1000,1505,1417,1241,1077,1015,-0.7470,-0.1070,0.1121,-0.0560,0.0010,1.0051,0.3162,0.1391,-0.3172,-0.1381,0.6083,0.0280,0.0777,0.6083,0.0280,0.0777,0.3000,0.0600,0.0002,0,-0.3000,-100.0000,-0.0010,-0.3000,-100.0000,-0.0010,25.1416,58.0491,0.0200,0.0000
-13.2646,37.3996,-5.4052,0.5801,0.0821,0.1200,0.0000,0.0000,0.0000,0.0892,-0.2276,-0.0005,996,1502,1500,1500,1000,1000,1505,1000,1505,1418,1241,1077,1015,-0.8602,-0.1952,0.1098,-0.0538,-0.0015,1.0032,0.3163,0.1389,-0.3173,-0.1380,0.6090,0.0280,0.0777,0.6090,0.0280,0.0777,0.3000,0.0600,0.0002,0,-0.3000,-100.0000,-0.0010,-0.3000,-100.0000,-0.0010,25.1865,58.0852,0.0200,0.0000
-13.2540,37.3602,-5.3915,0.5801,0.0821,0.1200,0.0000,0.0000,0.0000,0.0892,-0.2273,-0.0004,996,1502,1500,1500,1000,1000,1505,1000,1505,1418,1241,1077,1015,-0.9867,-0.2896,0.0549,-0.0543,-0.0051,1.0037,0.3161,0.1385,-0.3169,-0.1377,0.6090,0.0280,0.0777,0.6090,0.0280,0.0777,0.3000,0.0600,0.0002,0,-0.3000,-100.0000,-0.0010,-0.3000,-100.0000,-0.0010,25.2314,58.1212,0.0200,0.0000
-13.2463,37.3207,-5.3799,0.5801,0.0821,0.1200,0.0000,0.0000,0.0000,0.0892,-0.2271,0.0001,996,1502,1500,1500,1000,1000,1505,1000,1505,1418,1241,1077,1015,-1.0763,-0.2732,-0.1054,-0.0501,-0.0044,0.9982,0.3164,0.1377,-0.3162,-0.1379,0.6090,0.0280,0.0777,0.6090,0.0280,0.0777,0.3000,0.0600,0.0002,0,-0.3000,-100.0000,-0.0010,-0.3000,-100.0000,-0.0010,25.2764,58.1573,0.0200,0.0000
-13.2401,37.2824,-5.3695,0.5801,0.0821,0.2400,0.0600,0.3200,0.0000,0.0900,-0.2266,0.0021,997,1503,1500,1500,1000,1000,1505,1000,1505,1418,1241,1077,1015,-1.2409,-0.1036,-0.1175,-0.0497,-0.0038,0.9999,0.3187,0.1345,-0.3146,-0.1386,0.6090,0.0280,0.0777,0.6090,0.0280,0.0777,0.3000,0.0600,0.0002,0,-0.3000,-100.0000,-0.0010,-0.3000,-100.0000,-0.0010,25.3213,58.1933,0.0400,0.0100
-13.2367,37.2471,-5.3603,0.5801,0.1642,0.1200,0.0000,0.0000,0.0000,0.0895,-0.2271,0.0002,996,1502,1500,1500,1000,1000,1505,1000,1505,1418,1241,1077,1015,-1.4678,0.3295,-0.1301,-0.0500,-0.0043,1.0026,0.3167,0.1374,-0.3164,-0.1378,0.6090,0.0280,0.0777,0.6090,0.0280,0.0777,0.3000,0.0600,0.0002,0,-0.3000,-100.0000,-0.0010,-0.3000,-100.0000,-0.0010,25.3663,58.2293,0.0200,0.0000
-13.2350,37.2142,-5.3510,0.5801,0.0821,0.1200,0.0000,0.0000,0.0000,0.0895,-0.2269,-0.0001,996,1502,1500,1500,1000,1000,1505,1000,1505,1418,1241,1077,1016,-1.4841,0.3928,-0.0404,-0.0524,-0.0028,1.0036,0.3163,0.1376,-0.3165,-0.1373,0.6090,0.0280,0.0777,0.6090,0.0280,0.0777,0.3000,0.0600,0.0002,0,-0.3000,-100.0000,-0.0010,-0.3000,-100.0000,-0.0010,25.4112,58.2653,0.0200,0.0000
-13.2338,37.1815,-5.3413,0.5801,0.0821,0.1200,0.0000,0.0000,0.0000,0.0895,-0.2267,-0.0002,996,1502,1500,1500,1000,1000,1505,1000,1505,1418,1241,1077,1016,-1.5846,0.3402,-0.0409,-0.0532,-0.0028,1.0019,0.3161,0.1373,-0.3164,-0.1370,0.6090,0.0280,0.0777,0.6090,0.0280,0.0777,0.3000,0.0600,0.0002,0,-0.3000,-100.0000,-0.0010,-0.3000,-100.0000,-0.0010,25.4561,58.3011,0.0200,0.0000
-13.2323,37.1477,-5.3302,0.5801,0.0821,0.1200,0.0000,0.0000,0.0000,0.0896,-0.2263,-0.0003,996,1502,1500,1500,1000,1000,1505,1000,1505,1418,1241,1077,1015,-1.6924,0.1422,0.0127,-0.0536,-0.0041,1.0067,0.3157,0.1370,-0.3162,-0.1365,0.6090,0.0280,0.0777,0.6090,0.0280,0.0777,0.3000,0.0600,0.0002,0,-0.3000,-100.0000,-0.0010,-0.3000,-100.0000,-0.0010,25.5010,58.3371,0.0200,0.0000
-13.2300,37.1116,-5.3174,0.5801,0.0821,0.1200,0.0000,0.0000,0.0000,0.0896,-0.2259,-0.0008,996,1502,1500,1500,1000,1000,1505,1000,1505,1418,1241,1077,1015,-1.6280,-0.1164,0.1789,-0.0560,-0.0033,1.0008,0.3147,0.1371,-0.3163,-0.1356,0.6090,0.0280,0.0777,0.6090,0.0280,0.0777,0.3000,0.0600,0.0002,0,-0.3000,-100.0000,-0.0010,-0.3000,-100.0000,-0.0010,25.5460,58.3729,0.0200,0.0000
-13.2258,37.0738,-5.3025,0.5801,0.0821,0.2400,0.0600,0.3200,0.0000,0.0901,-0.2249,0.0008,997,1503,1500,1500,1000,1000,1505,1000,1505,1417,1241,1077,1016,-1.5922,-0.2919,0.3102,-0.0545,-0.0044,1.0029,0.3159,0.1340,-0.3143,-0.1356,0.6083,0.0280,0.0777,0.6083,0.0280,0.0777,0.3000,0.0600,0.0002,0,-0.3000,-100.0000,-0.0010,-0.3000,-100.0000,-0.0010,25.5909,58.4088,0.0400,0.0100
-13.2199,37.0346,-5.2847,0.5801,-0.0000,0.1200,0.0000,0.0000,0.0000,0.0894,-0.2250,-0.0018,996,1502,1500,1500,1000,1000,1505,1000,1505,1417,1241,1077,1015,-1.5907,-0.4081,0.5337,-0.0537,-0.0062,1.0037,0.3125,0.1374,-0.3162,-0.1338,0.6083,0.0280,0.0777,0.6083,0.0280,0.0777,0.3000,0.0600,0.0002,0,-0.3000,-100.0000,-0.0010,-0.3000,-100.0000,-0.0010,25.6359,58.4447,0.0200,0.0000
-13.2122,36.9957,-5.2649,0.5801,0.0821,0.1200,0.0000,0.0000,0.0000,0.0892,-0.2248,-0.0022,996,1502,1500,1500,1000,1000,1505,1000,1505,1417,1241,1077,1015,-1.4248,-0.3563,0.6677,-0.0531,-0.0103,1.0040,0.3118,0.1378,-0.3162,-0.1334,0.6083,0.0280,0.0777,0.6083,0.0280,0.0777,0.3000,0.0600,0.0002,0,-0.3000,-100.0000,-0.0010,-0.3000,-100.0000,-0.0010,25.6810,58.4806,0.0200,0.0000
-13.2029,36.9577,-5.2438,0.5801,0.0821,0.1200,0.0000,0.0000,0.0000,0.0891,-0.2246,-0.0024,996,1502,1500,1500,1000,1000,1505,1000,1505,1417,1241,1077,1015,-1.3670,-0.2659,0.7411,-0.0507,-0.0111,0.9984,0.3113,0.1380,-0.3162,-0.1331,0.6083,0.0280,0.0777,0.6083,0.0280,0.0777,0.3000,0.0600,0.0002,0,-0.3000,-100.0000,-0.0010,-0.3000,-100.0000,-0.0010,25.7260,58.5166,0.0200,0.0000
-13.1928,36.9214,-5.2230,0.5801,0.0821,0.1200,0.0000,0.0000,0.0000,0.0890,-0.2246,-0.0020,996,1502,1500,1500,1000,1000,1505,1000,1505,1417,1241,1077,1015,-1.2925,-0.0634,0.6146,-0.0537,-0.0128,1.0042,0.3115,0.1376,-0.3156,-0.1335,0.6083,0.0280,0.0777,0.6083,0.0280,0.0777,0.3000,0.0600,0.0002,0,-0.3000,-100.0000,-0.0010,-0.3000,-100.0000,-0.0010,25.7711,58.5525,0.0200,0.0000
-13.1821,36.8859,-5.2046,0.5801,0.0821,0.1200,0.0000,0.0000,0.0000,0.0888,-0.2246,-0.0017,996,1502,1500,1500,1000,1000,1505,1000,1505,1418,1241,1077,1015,-1.0159,0.0081,0.5129,-0.0538,-0.0120,1.0016,0.3117,0.1376,-0.3152,-0.1341,0.6090,0.0280,0.0777,0.6090,0.0280,0.0777,0.3000,0.0600,0.0002,0,-0.3000,-100.0000,-0.0010,-0.3000,-100.0000,-0.0010,25.8162,58.5884,0.0200,0.0000
-13.1691,36.8505,-5.1884,0.5801,0.0821,0.2400,0.0600,0.3200,0.0000,0.0892,-0.2240,0.0007,997,1503,1500,1500,1000,1000,1505,1000,1505,1418,1241,1077,1015,-0.7184,-0.0391,0.3276,-0.0516,-0.0118,1.0013,0.3140,0.1341,-0.3125,-0.1356,0.6090,0.0280,0.0777,0.6090,0.0280,0.0777,0.3000,0.0600,0.0002,0,-0.3000,-100.0000,-0.0010,-0.3000,-100.0000,-0.0010,25.8613,58.6243,0.0400,0.0100
-13.1546,36.8144,-5.1745,0.5801,0.0821,0.1200,0.0000,0.0000,0.0000,0.0881,-0.2242,-0.0006,996,1502,1500,1500,1000,1000,1505,1000,1505,1418,1241,1077,1015,-0.3917,0.0005,0.1378,-0.0517,-0.0106,1.0016,0.3117,0.1367,-0.3130,-0.1354,0.6090,0.0280,0.0777,0.6090,0.0280,0.0777,0.3000,0.0600,0.0002,0,-0.3000,-100.0000,-0.0010,-0.3000,-100.0000,-0.0010,25.9064,58.6602,0.0200,0.0000
-13.1390,36.7777,-5.1638,0.5801,0.0821,0.1200,0.0000,0.0000,0.0000,0.0877,-0.2237,0.0001,996,1502,1500,1500,1000,1000,1505,1000,1505,1417,1241,1077,1016,-0.1075,-0.0249,-0.1216,-0.0537,-0.0109,1.0037,0.3116,0.1358,-0.3113,-0.1361,0.6083,0.0280,0.0777,0.6083,0.0280,0.0777,0.3000,0.0600,0.0002,0,-0.3000,-100.0000,-0.0010,-0.3000,-100.0000,-0.0010,25.9516,58.6961,0.0200,0.0000
-13.1217,36.7404,-5.1545,0.5801,0.0821,0.1200,0.0000,0.0000,0.0000,0.0875,-0.2235,0.0002,996,1502,1500,1500,1000,1000,1505,1000,1505,1417,1241,1077,1016,0.0770,-0.0074,-0.1477,-0.0544,-0.0143,1.0040,0.3112,0.1358,-0.3108,-0.1362,0.6083,0.0280,0.0777,0.6083,0.0280,0.0777,0.3000,0.0600,0.0002,0,-0.3000,-100.0000,-0.0010,-0.3000,-100.0000,-0.0010,25.9968,58.7320,0.0200,0.0000
-13.1024,36.7032,-5.1457,0.5801,0.0821,0.1200,0.0000,0.0000,0.0000,0.0872,-0.2233,0.0003,996,1502,1500,1500,1000,1000,1505,1000,1505,1417,1241,1077,1015,0.3134,-0.0330,-0.1769,-0.0525,-0.0112,1.0047,0.3107,0.1358,-0.3102,-0.1363,0.6083,0.0280,0.0777,0.6083,0.0280,0.0777,0.3000,0.0600,0.0002,0,-0.3000,-100.0000,-0.0010,-0.3000,-100.0000,-0.0010,26.0419,58.7680,0.0200,0.0000
-13.0796,36.6649,-5.1354,0.5801,0.0821,0.1200,0.0000,0.0000,0.0000,0.0868,-0.2229,-0.0002,996,1502,1500,1500,1000,1000,1505,1000,1505,1417,1241,1077,1015,0.6126,-0.2165,0.0040,-0.0581,-0.0094,1.0044,0.3095,0.1363,-0.3099,-0.1358,0.6083,0.0280,0.0777,0.6083,0.0280,0.0777,0.3000,0.0600,0.0002,0,-0.3000,-100.0000,-0.0010,-0.3000,-100.0000,-0.0010,26.0872,58.8039,0.0200,0.0000
-13.0522,36.6259,-5.1235,0.5801,0.0821,0.2400,0.0600,0.3200,0.0000,0.0872,-0.2225,0.0014,997,1503,1500,1500,1000,1000,1505,1000,1505,1418,1241,1077,1015,0.9662,-0.2169,0.0932,-0.0538,-0.0102,1.0037,0.3111,0.1339,-0.3083,-0.1367,0.6090,0.0280,0.0777,0.6090,0.0280,0.0777,0.3000,0.0600,0.0002,0,-0.3000,-100.0000,-0.0010,-0.3000,-100.0000,-0.0010,26.1324,58.8398,0.0400,0.0100
-13.0216,36.5867,-5.1107,0.5801,0.0821,0.1200,0.0000,0.0000,0.0000,0.0861,-0.2226,-0.0006,996,1502,1500,1500,1000,1000,1505,1000,1505,1418,1241,1077,1016,1.1454,-0.3067,0.1151,-0.0496,-0.0080,1.0079,0.3081,0.1370,-0.3093,-0.1359,0.6090,0.0280,0.0777,0.6090,0.0280,0.0777,0.3000,0.0600,0.0002,0,-0.3000,-100.0000,-0.0010,-0.3000,-100.0000,-0.0010,26.1776,58.8756,0.0200,0.0000
-12.9894,36.5478,-5.0982,0.5801,0.0821,0.1200,0.0000,0.0000,0.0000,0.0858,-0.2224,-0.0004,996,1502,1500,1500,1000,1000,1505,1000,1505,1418,1241,1077,1016,1.3392,-0.1660,0.0603,-0.0537,-0.0079,1.0031,0.3078,0.1371,-0.3087,-0.1362,0.6090,0.0280,0.0777,0.6090,0.0280,0.0777,0.3000,0.0600,0.0002,0,-0.3000,-100.0000,-0.0010,-0.3000,-100.0000,-0.0010,26.2228,58.9114,0.0200,0.0000
-12.9559,36.5105,-5.0870,0.5801,0.0821,0.1200,0.0000,0.0000,0.0000,0.0855,-0.2224,-0.0002,996,1502,1500,1500,1000,1000,1505,1000,1505,1418,1241,1077,1015,1.4685,0.0068,-0.0144,-0.0527,-0.0095,1.0017,0.3076,0.1371,-0.3081,-0.1367,0.6090,0.0280,0.0777,0.6090,0.0280,0.0777,0.3000,0.0600,0.0002,0,-0.3000,-100.0000,-0.0010,-0.3000,-100.0000,-0.0010,26.2681,58.9473,0.0200,0.0000
-12.9223,36.4737,-5.0773,0.5801,0.0821,0.1200,0.0000,0.0000,0.0000,0.0852,-0.2221,0.0003,996,1502,1500,1500,1000,1000,1505,1000,1505,1418,1241,1077,1015,1.5522,-0.0024,-0.1547,-0.0523,-0.0103,1.0027,0.3076,0.1366,-0.3071,-0.1372,0.6090,0.0280,0.0777,0.6090,0.0280,0.0777,0.3000,0.0600,0.0002,0,-0.3000,-100.0000,-0.0010,-0.3000,-100.0000,-0.0010,26.3133,58.9832,0.0200,0.0000
-12.8890,36.4371,-5.0698,0.5801,0.0821,0.1200,0.0000,0.0000,0.0000,0.0848,-0.2217,0.0008,996,1502,1500,1500,1000,1000,1505,1000,1505,1417,1241,1077,1015,1.7261,0.0825,-0.3405,-0.0531,-0.0068,1.0041,0.3073,0.1361,-0.3057,-0.1378,0.6083,0.0280,0.0777,0.6083,0.0280,0.0777,0.3000,0.0600,0.0002,0,-0.3000,-100.0000,-0.0010,-0.3000,-100.0000,-0.0010,26.3587,59.0190,0.0200,0.0000
-12.8550,36.4004,-5.0631,0.5801,0.0821,0.2400,0.0600,0.3200,0.0000,0.0853,-0.2210,0.0026,997,1503,1500,1500,1000,1000,1505,1000,1505,1417,1241,1077,1015,1.7363,-0.0391,-0.3112,-0.0544,-0.0046,1.0060,0.3090,0.1331,-0.3037,-0.1384,0.6083,0.0280,0.0777,0.6083,0.0280,0.0777,0.3000,0.0600,0.0002,0,-0.3000,-100.0000,-0.0010,-0.3000,-100.0000,-0.0010,26.4040,59.0549,0.0400,0.0100
-12.8208,36.3632,-5.0561,0.5801,0.0821,0.1200,0.0000,0.0000,0.0000,0.0844,-0.2212,0.0006,996,1502,1500,1500,1000,1000,1505,1000,1505,1417,1241,1077,1015,1.6730,0.0322,-0.2826,-0.0552,-0.0043,1.0013,0.3063,0.1362,-0.3050,-0.1374,0.6083,0.0280,0.0777,0.6083,0.0280,0.0777,0.3000,0.0600,0.0002,0,-0.3000,-100.0000,-0.0010,-0.3000,-100.0000,-0.0010,26.4493,59.0907,0.0200,0.0000
-12.7863,36.3261,-5.0481,0.5801,0.0821,0.1200,0.0000,0.0000,0.0000,0.0842,-0.2212,0.0002,996,1502,1500,1500,1000,1000,1505,1000,1505,1418,1241,1077,1015,1.7444,-0.0618,-0.1705,-0.0540,-0.0024,1.0031,0.3057,0.1367,-0.3052,-0.1372,0.6090,0.0280,0.0777,0.6090,0.0280,0.0777,0.3000,0.0600,0.0002,0,-0.3000,-100.0000,-0.0010,-0.3000,-100.0000,-0.0010,26.4947,59.1265,0.0200,0.0000
-12.7505,36.2889,-5.0382,0.5801,0.0821,0.1200,0.0000,0.0000,0.0000,0.0841,-0.2210,-0.0003,996,1502,1500,1500,1000,1000,1505,1000,1505,1418,1241,1077,1015,1.6218,0.0183,0.0030,-0.0539,0.0007,1.0030,0.3048,0.1372,-0.3054,-0.1366,0.6090,0.0280,0.0777,0.6090,0.0280,0.0777,0.3000,0.0600,0.0002,0,-0.3000,-100.0000,-0.0010,-0.3000,-100.0000,-0.0010,26.5401,59.1623,0.0200,0.0000
-12.7157,36.2523,-5.0264,0.5801,0.0821,0.1200,0.0000,0.0000,0.0000,0.0841,-0.2208,-0.0004,996,1502,1500,1500,1000,1000,1505,1000,1505,1418,1241,1077,1016,1.4094,-0.0109,0.0578,-0.0531,-0.0040,1.0080,0.3045,0.1371,-0.3052,-0.1363,0.6090,0.0280,0.0777,0.6090,0.0280,0.0777,0.3000,0.0600,0.0002,0,-0.3000,-100.0000,-0.0010,-0.3000,-100.0000,-0.0010,26.5854,59.1981,0.0200,0.0000
-12.6834,36.2156,-5.0144,0.4972,0.0821,0.1200,0.0000,0.0000,0.0000,0.0841,-0.2205,-0.0004,996,1502,1500,1500,1000,1000,1505,1000,1505,1418,1241,1077,1016,1.1748,-0.0661,0.0638,-0.0523,-0.0050,1.0014,0.3041,0.1369,-0.3050,-0.1360,0.6090,0.0280,0.0777,0.6090,0.0280,0.0777,0.3000,0.0600,0.0002,0,-0.3000,-100.0000,-0.0010,-0.3000,-100.0000,-0.0010,26.6307,59.2338,0.0200,0.0000
-12.6542,36.1788,-5.0030,0.5801,0.0821,0.2400,0.0600,0.3200,0.0000,0.0848,-0.2197,0.0017,997,1503,1500,1500,1000,1000,1505,1000,1505,1417,1241,1077,1015,0.8279,-0.0427,0.0137,-0.0517,-0.0024,1.0071,0.3061,0.1332,-0.3028,-0.1366,0.6083,0.0280,0.0777,0.6083,0.0280,0.0777,0.3000,0.0600,0.0002,0,-0.3000,-100.0000,-0.0010,-0.3000,-100.0000,-0.0010,26.6761,59.2696,0.0400,0.0100
-12.6287,36.1414,-4.9930,0.5801,0.0821,0.1200,0.0000,0.0000,0.0000,0.0840,-0.2199,0.0002,996,1502,1500,1500,1000,1000,1505,1000,1505,1417,1241,1077,1015,0.6426,0.0444,-0.1337,-0.0543,-0.0024,1.0039,0.3042,0.1356,-0.3037,-0.1361,0.6083,0.0280,0.0777,0.6083,0.0280,0.0777,0.3000,0.0600,0.0002,0,-0.3000,-100.0000,-0.0010,-0.3000,-100.0000,-0.0010,26.7215,59.3054,0.0200,0.0000
-12.6066,36.1040,-4.9847,0.5801,0.0821,0.1200,0.0000,0.0000,0.0000,0.0842,-0.2196,0.0005,996,1502,1500,1500,1000,1000,1505,1000,1505,1417,1241,1077,1015,0.3036,-0.0533,-0.2331,-0.0541,0.0014,1.0018,0.3042,0.1349,-0.3033,-0.1359,0.6083,0.0280,0.0777,0.6083,0.0280,0.0777,0.3000,0.0600,0.0002,0,-0.3000,-100.0000,-0.0010,-0.3000,-100.0000,-0.0010,26.7669,59.3411,0.0200,0.0000
-12.5874,36.0663,-4.9757,0.5801,0.0821,0.1200,0.0000,0.0000,0.0000,0.0844,-0.2196,0.0001,996,1502,1500,1500,1000,1000,1505,1000,1505,1418,1241,1077,1015,-0.0022,-0.0837,-0.1273,-0.0548,0.0042,1.0010,0.3041,0.1351,-0.3038,-0.1353,0.6090,0.0280,0.0777,0.6090,0.0280,0.0777,0.3000,0.0600,0.0002,0,-0.3000,-100.0000,-0.0010,-0.3000,-100.0000,-0.0010,26.8123,59.3768,0.0200,0.0000
-12.5698,36.0289,-4.9646,0.5801,0.0821,0.1200,0.0000,0.0000,0.0000,0.0845,-0.2194,-0.0002,996,1502,1500,1500,1000,1000,1505,1000,1505,1418,1241,1077,1015,-0.2458,-0.0319,-0.0041,-0.0548,0.0000,1.0088,0.3036,0.1351,-0.3041,-0.1347,0.6090,0.0280,0.0777,0.6090,0.0280,0.0777,0.3000,0.0600,0.0002,0,-0.3000,-100.0000,-0.0010,-0.3000,-100.0000,-0.0010,26.8578,59.4125,0.0200,0.0000
-12.5540,35.9913,-4.9519,0.6630,0.0821,0.1200,0.0000,0.0000,0.0000,0.0845,-0.2190,-0.0009,996,1502,1500,1500,1000,1000,1505,1000,1505,1418,1241,1077,1015,-0.3928,-0.2296,0.2261,-0.0556,-0.0034,1.0042,0.3026,0.1354,-0.3044,-0.1336,0.6090,0.0280,0.0777,0.6090,0.0280,0.0777,0.3000,0.0600,0.0002,0,-0.3000,-100.0000,-0.0010,-0.3000,-100.0000,-0.0010,26.9033,59.4483,0.0200,0.0000
-12.5375,35.9530,-4.9370,0.4972,0.0821,0.2400,0.0600,0.3200,0.0000,0.0852,-0.2184,0.0008,997,1503,1500,1500,1000,1000,1505,1000,1505,1418,1242,1077,1015,-0.4613,-0.2031,0.2998,-0.0534,-0.0040,1.0040,0.3044,0.1324,-0.3028,-0.1341,0.6090,0.0280,0.0777,0.6090,0.0280,0.0777,0.3000,0.0600,0.0002,0,-0.3000,-100.0000,-0.0010,-0.3000,-100.0000,-0.0010,26.9488,59.4841,0.0400,0.0100
-12.5209,35.9142,-4.9203,0.5801,0.0821,0.1200,0.0000,0.0000,0.0000,0.0844,-0.2184,-0.0016,996,1502,1500,1500,1000,1000,1505,1000,1505,1418,1242,1077,1015,-0.4906,-0.3488,0.4763,-0.0523,-0.0060,1.0035,0.3012,0.1357,-0.3044,-0.1325,0.6090,0.0280,0.0777,0.6090,0.0280,0.0777,0.3000,0.0600,0.0002,0,-0.3000,-100.0000,-0.0010,-0.3000,-100.0000,-0.0010,26.9944,59.5199,0.0200,0.0000
-12.5032,35.8748,-4.9020,0.5801,0.0821,0.1200,0.0000,0.0000,0.0000,0.0842,-0.2182,-0.0016,996,1502,1500,1500,1000,1000,1505,1000,1505,1418,1241,1077,1016,-0.4623,-0.3286,0.4804,-0.0527,-0.0037,1.0037,0.3008,0.1356,-0.3041,-0.1324,0.6090,0.0280,0.0777,0.6090,0.0280,0.0777,0.3000,0.0600,0.0002,0,-0.3000,-100.0000,-0.0010,-0.3000,-100.0000,-0.0010,27.0399,59.5556,0.0200,0.0000
-12.4865,35.8355,-4.8852,0.5801,0.0821,0.1200,0.0000,0.0000,0.0000,0.0841,-0.2180,-0.0013,996,1502,1500,1500,1000,1000,1505,1000,1505,1418,1241,1077,1016,-0.4592,-0.2808,0.3605,-0.0497,-0.0067,0.9993,0.3008,0.1352,-0.3034,-0.1326,0.6090,0.0280,0.0777,0.6090,0.0280,0.0777,0.3000,0.0600,0.0002,0,-0.3000,-100.0000,-0.0010,-0.3000,-100.0000,-0.0010,27.0855,59.5914,0.0200,0.0000
-12.4706,35.7975,-4.8709,0.5801,0.0821,0.1200,0.0000,0.0000,0.0000,0.0840,-0.2179,-0.0007,996,1502,1500,1500,1000,1000,1505,1000,1505,1418,1241,1077,1015,-0.4130,-0.0860,0.1823,-0.0526,-0.0042,1.0049,0.3012,0.1347,-0.3027,-0.1332,0.6090,0.0280,0.0777,0.6090,0.0280,0.0777,0.3000,0.0600,0.0002,0,-0.3000,-100.0000,-0.0010,-0.3000,-100.0000,-0.0010,27.1311,59.6272,0.0200,0.0000
-12.4555,35.7614,-4.8581,0.5801,0.0821,0.1200,0.0000,0.0000,0.0000,0.0839,-0.2179,-0.0007,996,1502,1500,1500,1000,1000,1505,1000,1505,1418,1241,1077,1015,-0.4608,0.1128,0.1640,-0.0488,-0.0057,1.0022,0.3011,0.1346,-0.3025,-0.1332,0.6090,0.0280,0.0777,0.6090,0.0280,0.0777,0.3000,0.0600,0.0002,0,-0.3000,-100.0000,-0.0010,-0.3000,-100.0000,-0.0010,27.1767,59.6629,0.0200,0.0000
-12.4416,35.7260,-4.8469,0.5801,0.0821,0.2400,0.0600,0.3200,0.0000,0.0845,-0.2174,0.0018,997,1503,1500,1500,1000,1000,1505,1000,1505,1418,1241,1077,1016,-0.3499,0.2341,-0.0278,-0.0518,-0.0085,1.0023,0.3037,0.1311,-0.3000,-0.1347,0.6090,0.0280,0.0777,0.6090,0.0280,0.0777,0.3000,0.0600,0.0002,0,-0.3000,-100.0000,-0.0010,-0.3000,-100.0000,-0.0010,27.2223,59.6985,0.0400,0.0100
-12.4266,35.6909,-4.8366,0.5801,0.0821,0.1200,0.0000,0.0000,0.0000,0.0835,-0.2172,-0.0003,996,1502,1500,1500,1000,1000,1505,1000,1505,1417,1241,1077,1015,-0.2334,0.1253,0.0220,-0.0572,-0.0059,1.0048,0.3005,0.1340,-0.3010,-0.1335,0.6083,0.0280,0.0777,0.6083,0.0280,0.0777,0.3000,0.0600,0.0002,0,-0.3000,-100.0000,-0.0010,-0.3000,-100.0000,-0.0010,27.2679,59.7342,0.0200,0.0000
-12.4109,35.6551,-4.8257,0.5801,0.0821,0.1200,0.0000,0.0000,0.0000,0.0834,-0.2170,-0.0004,996,1502,1500,1500,1000,1000,1505,1000,1505,1417,1241,1077,1015,-0.2207,0.0782,0.0581,-0.0527,-0.0048,1.0074,0.2999,0.1340,-0.3008,-0.1332,0.6083,0.0280,0.0777,0.6083,0.0280,0.0777,0.3000,0.0600,0.0002,0,-0.3000,-100.0000,-0.0010,-0.3000,-100.0000,-0.0010,27.3134,59.7698,0.0200,0.0000
-12.3932,35.6184,-4.8142,0.5801,0.0821,0.1200,0.0000,0.0000,0.0000,0.0832,-0.2169,-0.0002,996,1502,1500,1500,1000,1000,1505,1000,1505,1418,1241,1077,1016,0.0277,-0.0501,0.0232,-0.0531,-0.0054,1.0093,0.2998,0.1339,-0.3003,-0.1335,0.6090,0.0280,0.0777,0.6090,0.0280,0.0777,0.3000,0.0600,0.0002,0,-0.3000,-100.0000,-0.0010,-0.3000,-100.0000,-0.0010,27.3590,59.8054,0.0200,0.0000
-12.3747,35.5798,-4.8035,0.5801,0.0821,0.1200,0.0000,0.0000,0.0000,0.0830,-0.2165,-0.0001,996,1502,1500,1500,1000,1000,1505,1000,1505,1418,1241,1077,1016,0.0645,-0.1888,-0.0340,-0.0528,-0.0069,1.0044,0.2994,0.1336,-0.2997,-0.1334,0.6090,0.0280,0.0777,0.6090,0.0280,0.0777,0.3000,0.0600,0.0002,0,-0.3000,-100.0000,-0.0010,-0.3000,-100.0000,-0.0010,27.4047,59.8411,0.0200,0.0000
-12.3554,35.5402,-4.7928,0.4972,0.0821,0.1200,0.0000,0.0000,0.0000,0.0828,-0.2163,-0.0001,996,1502,1500,1500,1000,1000,1505,1000,1505,1418,1241,1077,1016,0.1736,-0.2275,-0.0397,-0.0546,-0.0096,1.0027,0.2990,0.1335,-0.2992,-0.1334,0.6090,0.0280,0.0777,0.6090,0.0280,0.0777,0.3000,0.0600,0.0002,0,-0.3000,-100.0000,-0.0010,-0.3000,-100.0000,-0.0010,27.4504,59.8768,0.0200,0.0000
-12.3349,35.5002,-4.7830,0.5801,0.0821,0.2400,0.0600,0.3200,0.0000,0.0832,-0.2157,0.0022,997,1503,1500,1500,1000,1000,1505,1000,1505,1418,1241,1077,1016,0.4322,-0.2152,-0.1552,-0.0545,-0.0094,1.0040,0.3011,0.1302,-0.2967,-0.1346,0.6090,0.0280,0.0777,0.6090,0.0280,0.0777,0.3000,0.0600,0.0002,0,-0.3000,-100.0000,-0.0010,-0.3000,-100.0000,-0.0010,27.4961,59.9125,0.0400,0.0100
-12.3129,35.4603,-4.7742,0.5801,0.0821,0.1200,0.0000,0.0000,0.0000,0.0823,-0.2158,0.0003,996,1502,1500,1500,1000,1000,1505,1000,1505,1418,1241,1077,1016,0.5248,-0.1845,-0.1750,-0.0576,-0.0090,1.0051,0.2985,0.1332,-0.2978,-0.1339,0.6090,0.0280,0.0777,0.6090,0.0280,0.0777,0.3000,0.0600,0.0002,0,-0.3000,-100.0000,-0.0010,-0.3000,-100.0000,-0.0010,27.5418,59.9482,0.0200,0.0000
-12.2896,35.4212,-4.7664,0.5801,0.0821,0.1200,0.0000,0.0000,0.0000,0.0819,-0.2156,0.0005,996,1502,1500,1500,1000,1000,1505,1000,1505,1418,1241,1077,1016,0.7971,-0.1352,-0.2446,-0.0548,-0.0071,1.0054,0.2981,0.1332,-0.2970,-0.1342,0.6090,0.0280,0.0777,0.6090,0.0280,0.0777,0.3000,0.0600,0.0002,0,-0.3000,-100.0000,-0.0010,-0.3000,-100.0000,-0.0010,27.5875,59.9839,0.0200,0.0000
-12.2626,35.3823,-4.7580,0.5801,0.0821,0.1200,0.0000,0.0000,0.0000,0.0815,-0.2154,0.0003,996,1502,1500,1500,1000,1000,1505,1000,1505,1418,1241,1077,1016,1.1295,-0.0935,-0.1729,-0.0520,-0.0036,1.0062,0.2972,0.1336,-0.2966,-0.1342,0.6090,0.0280,0.0777,0.6090,0.0280,0.0777,0.3000,0.0600,0.0002,0,-0.3000,-100.0000,-0.0010,-0.3000,-100.0000,-0.0010,27.6333,60.0196,0.0200,0.0000
-12.2321,35.3444,-4.7493,0.6630,0.0821,0.1200,0.0000,0.0000,0.0000,0.0811,-0.2153,0.0003,996,1502,1500,1500,1000,1000,1505,1000,1505,1418,1241,1077,1016,1.3937,0.0319,-0.1550,-0.0500,-0.0024,1.0044,0.2967,0.1339,-0.2961,-0.1344,0.6090,0.0280,0.0777,0.6090,0.0280,0.0777,0.3000,0.0600,0.0002,0,-0.3000,-100.0000,-0.0010,-0.3000,-100.0000,-0.0010,27.6791,60.0553,0.0200,0.0000
-12.1989,35.3078,-4.7397,0.5801,-0.0000,0.1200,0.0000,0.0000,0.0000,0.0808,-0.2151,-0.0004,996,1502,1500,1500,1000,1000,1505,1000,1505,1418,1241,1077,1016,1.5408,0.1012,0.0543,-0.0528,-0.0029,1.0041,0.2955,0.1347,-0.2963,-0.1339,0.6090,0.0280,0.0777,0.6090,0.0280,0.0777,0.3000,0.0600,0.0002,0,-0.3000,-100.0000,-0.0010,-0.3000,-100.0000,-0.0010,27.7249,60.0910,0.0200,0.0000
-12.1642,35.2714,-4.7296,0.5801,0.0821,0.2400,0.0600,0.3200,0.0000,0.0811,-0.2143,0.0019,997,1503,1500,1500,1000,1000,1505,1000,1505,1417,1241,1077,1015,1.6860,0.0835,-0.0553,-0.0541,-0.0067,1.0064,0.2973,0.1312,-0.2935,-0.1350,0.6083,0.0280,0.0777,0.6083,0.0280,0.0777,0.3000,0.0600,0.0002,0,-0.3000,-100.0000,-0.0010,-0.3000,-100.0000,-0.0010,27.7707,60.1266,0.0400,0.0100
-12.1287,35.2349,-4.7206,0.5801,0.0821,0.1200,0.0000,0.0000,0.0000,0.0802,-0.2146,0.0001,996,1502,1500,1500,1000,1000,1505,1000,1505,1418,1241,1077,1015,1.8105,0.0008,-0.1038,-0.0542,-0.0077,1.0061,0.2949,0.1343,-0.2947,-0.1345,0.6090,0.0280,0.0777,0.6090,0.0280,0.0777,0.3000,0.0600,0.0002,0,-0.3000,-100.0000,-0.0010,-0.3000,-100.0000,-0.0010,27.8165,60.1624,0.0200,0.0000
-12.0933,35.1964,-4.7125,0.5801,0.0821,0.1200,0.0000,0.0000,0.0000,0.0799,-0.2142,0.0006,996,1502,1500,1500,1000,1000,1505,1000,1505,1418,1241,1077,1015,1.8280,-0.1734,-0.2800,-0.0541,-0.0066,1.0052,0.2948,0.1336,-0.2935,-0.1349,0.6090,0.0280,0.0777,0.6090,0.0280,0.0777,0.3000,0.0600,0.0002,0,-0.3000,-100.0000,-0.0010,-0.3000,-100.0000,-0.0010,27.8623,60.1981,0.0200,0.0000
-12.0578,35.1566,-4.7054,0.5801,0.0821,0.1200,0.0000,0.0000,0.0000,0.0796,-0.2137,0.0009,996,1502,1500,1500,1000,1000,1505,1000,1505,1417,1241,1077,1015,1.8396,-0.2177,-0.3914,-0.0508,-0.0023,1.0044,0.2943,0.1331,-0.2924,-0.1350,0.6083,0.0280,0.0777,0.6083,0.0280,0.0777,0.3000,0.0600,0.0002,0,-0.3000,-100.0000,-0.0010,-0.3000,-100.0000,-0.0010,27.9082,60.2338,0.0200,0.0000
-12.0231,35.1159,-4.7002,0.5801,0.0821,0.1200,0.0000,0.0000,0.0000,0.0794,-0.2135,0.0012,996,1502,1500,1500,1000,1000,1505,1000,1505,1417,1241,1077,1015,1.8814,-0.1490,-0.4723,-0.0508,-0.0010,1.0062,0.2941,0.1329,-0.2917,-0.1353,0.6083,0.0280,0.0777,0.6083,0.0280,0.0777,0.3000,0.0600,0.0002,0,-0.3000,-100.0000,-0.0010,-0.3000,-100.0000,-0.0010,27.9542,60.2695,0.0200,0.0000
-11.9898,35.0759,-4.6967,0.5801,0.0821,0.1200,0.0000,0.0000,0.0000,0.0794,-0.2135,0.0015,996,1502,1500,1500,1000,1000,1505,1000,1505,1418,1241,1077,1016,1.7862,-0.0959,-0.6081,-0.0521,0.0007,1.0027,0.2944,0.1326,-0.2913,-0.1357,0.6090,0.0280,0.0777,0.6090,0.0280,0.0777,0.3000,0.0600,0.0002,0,-0.3000,-100.0000,-0.0010,-0.3000,-100.0000,-0.0010,28.0001,60.3052,0.0200,0.0000
-11.9579,35.0369,-4.6938,0.5801,0.0821,0.2400,0.0600,0.3200,0.0000,0.0800,-0.2130,0.0034,997,1503,1500,1500,1000,1000,1505,1000,1505,1418,1241,1077,1016,1.6847,-0.0102,-0.5787,-0.0484,-0.0032,1.0070,0.2964,0.1296,-0.2895,-0.1365,0.6090,0.0280,0.0777,0.6090,0.0280,0.0777,0.3000,0.0600,0.0002,0,-0.3000,-100.0000,-0.0010,-0.3000,-100.0000,-0.0010,28.0460,60.3408,0.0400,0.0100
-11.9255,34.9986,-4.6901,0.5801,0.0821,0.1200,0.0000,0.0000,0.0000,0.0790,-0.2132,0.0010,996,1502,1500,1500,1000,1000,1505,1000,1505,1418,1241,1077,1016,1.7642,0.0487,-0.4340,-0.0551,-0.0012,1.0011,0.2932,0.1332,-0.2911,-0.1352,0.6090,0.0280,0.0777,0.6090,0.0280,0.0777,0.3000,0.0600,0.0002,0,-0.3000,-100.0000,-0.0010,-0.3000,-100.0000,-0.0010,28.0920,60.3765,0.0200,0.0000
-11.8914,34.9597,-4.6841,0.5801,0.0821,0.1200,0.0000,0.0000,0.0000,0.0787,-0.2128,0.0006,996,1502,1500,1500,1000,1000,1505,1000,1505,1418,1241,1077,1015,1.7958,-0.1169,-0.2919,-0.0538,0.0010,1.0047,0.2922,0.1334,-0.2909,-0.1347,0.6090,0.0280,0.0777,0.6090,0.0280,0.0777,0.3000,0.0600,0.0002,0,-0.3000,-100.0000,-0.0010,-0.3000,-100.0000,-0.0010,28.1379,60.4121,0.0200,0.0000
