roll_imu,pitch_imu,yaw_imu,alpha,beta,roll_des,pitch_des,yaw_des,throttle_des,roll_pid,pitch_pid,yaw_pid,radio_ch1,radio_ch2,radio_ch3,radio_ch4,radio_ch5,radio_ch6,radio_ch7,radio_ch8,radio_ch9,radio_ch10,radio_ch11,radio_ch12,radio_ch13,GyroX,GyroY,GyroZ,AccX,AccY,AccZ,s1_command,s2_command,s3_command,s4_command,kp_roll,ki_roll,kd_roll,kp_pitch,ki_pitch,kd_pitch,kp_yaw,ki_yaw,kd_yaw,failsafeTriggered,kp_alphaRoll,ki_alphaRoll,kd_alphaRoll,kp_betaPitch,ki_betaPitch,kd_betaPitch,ripIMU_roll,ripIMU_pitch,ripRoll_des,ripPitch_des
0.0000,0.0000,0.0000,1.3260,5.9508,0.0000,0.0000,0.0000,0.0000,0.0000,0.0000,0.0000,1000,1500,1500,1500,2000,1000,1000,1000,1500,1500,1500,1500,1500,0.0000,0.0000,0.0000,0.0000,0.0000,0.0000,0.0000,0.0000,0.0000,0.0000,0.8627,0.2400,0.1321,0.8627,0.2400,0.1321,0.3000,0.0600,0.0002,0,-0.3000,-100.0000,-0.0010,-0.3000,-100.0000,-0.0010,0.0000,0.0000,0.0000,0.0000
-7.8842,40.1522,-2.7528,-0.0000,0.0000,-7.8600,-8.0400,-42.8800,0.0000,0.0602,-0.4158,-0.2574,910,1369,1366,1366,2008,1000,1505,1000,1000,1505,1005,1000,1014,0.0112,0.0008,0.0174,-0.0072,-0.0013,0.3647,0.2185,0.6130,-0.7334,-0.0981,0.8627,0.2400,0.1321,0.8627,0.2400,0.1321,0.3000,0.0600,0.0002,0,-2.2635,-3.5000,-0.0010,-2.2635,-3.5000,-0.0010,-22.9800,35.1679,-1.3100,-1.3400
-7.7519,39.6801,-2.6668,0.0829,-0.0821,-0.6000,-0.7800,-4.1600,0.0000,0.1217,-0.3490,-0.0158,991,1490,1487,1487,2008,1000,1505,971,1000,1505,1502,1502,2008,-0.0222,-0.0438,0.0465,-0.0226,-0.0018,0.9800,0.4549,0.2431,-0.4865,-0.2114,0.8627,0.2400,0.1321,0.8627,0.2400,0.1321,0.3000,0.0600,0.0002,0,-2.2635,-351.4000,-0.0060,-2.2635,-351.4000,-0.0060,-22.6203,34.8188,-0.1000,-0.1300
-7.7417,39.6414,-2.6598,0.0829,0.0000,0.0000,-0.1800,-0.9600,0.0000,0.1269,-0.3435,-0.0063,996,1500,1497,1497,2008,1000,1505,1000,1000,1505,1005,1000,1014,-0.0614,-0.0410,0.0393,-0.0245,-0.0043,1.0034,0.4641,0.2229,-0.4766,-0.2104,0.8627,0.2400,0.1321,0.8627,0.2400,0.1321,0.3000,0.0600,0.0002,0,-2.2635,-3.5000,-0.0010,-2.2635,-3.5000,-0.0010,-22.5900,34.7956,0.0000,-0.0300
-7.7310,39.6027,-2.6521,0.0829,0.0000,0.1200,0.0000,0.0000,0.0000,0.1278,-0.3415,-0.0036,998,1504,1501,1501,2008,1000,1505,1000,1000,1505,1005,1000,1014,-0.0357,-0.0963,0.0967,-0.0247,-0.0050,1.0031,0.4657,0.2173,-0.4729,-0.2102,0.8627,0.2400,0.1321,0.8627,0.2400,0.1321,0.3000,0.0600,0.0002,0,-2.2635,-3.5000,-0.0010,-2.2635,-3.5000,-0.0010,-22.5605,34.7717,0.0200,0.0000
-7.7199,39.5638,-2.6446,0.0829,0.0000,0.1200,0.0000,0.0000,0.0000,0.1276,-0.3412,-0.0032,996,1502,1500,1500,2008,1000,1505,1000,1000,1505,1005,1000,1014,0.0037,-0.0578,-0.0012,-0.0236,-0.0025,1.0002,0.4656,0.2168,-0.4721,-0.2104,0.8627,0.2400,0.1321,0.8627,0.2400,0.1321,0.3000,0.0600,0.0002,0,-2.2635,-3.5000,-0.0010,-2.2635,-3.5000,-0.0010,-22.5304,34.7479,0.0200,0.0000
-7.7086,39.5255,-2.6363,0.0829,0.0000,0.1200,0.0000,0.0000,0.0000,0.1276,-0.3410,-0.0036,996,1502,1500,1500,2008,1000,1505,1000,1000,1505,1005,1000,1014,-0.0250,-0.0259,0.1196,-0.0245,-0.0031,1.0027,0.4649,0.2170,-0.4721,-0.2098,0.8627,0.2400,0.1321,0.8627,0.2400,0.1321,0.3000,0.0600,0.0002,0,-2.2635,-3.5000,-0.0010,-2.2635,-3.5000,-0.0010,-22.4999,34.7240,0.0200,0.0000
-7.6972,39.4874,-2.6281,0.0829,-0.0821,0.1200,0.0000,0.0000,0.0000,0.1274,-0.3406,-0.0034,996,1502,1500,1500,2008,1000,1505,1000,1000,1505,1005,1000,1014,0.0131,-0.0134,0.0608,-0.0248,-0.0033,1.0087,0.4647,0.2166,-0.4715,-0.2098,0.8627,0.2400,0.1321,0.8627,0.2400,0.1321,0.3000,0.0600,0.0002,0,-2.2635,-3.5000,-0.0010,-2.2635,-3.5000,-0.0010,-22.4701,34.7002,0.0200,0.0000
-7.6861,39.4496,-2.6197,-0.0000,-0.0821,0.1200,0.0000,0.0000,0.0000,0.1274,-0.3403,-0.0037,996,1502,1500,1500,2008,1000,1505,1000,1000,1505,1005,1000,1014,-0.0120,-0.0111,0.1415,-0.0203,-0.0040,1.0038,0.4640,0.2166,-0.4713,-0.2093,0.8627,0.2400,0.1321,0.8627,0.2400,0.1321,0.3000,0.0600,0.0002,0,-2.2635,-3.5000,-0.0010,-2.2635,-3.5000,-0.0010,-22.4401,34.6766,0.0200,0.0000
-7.6743,39.4115,-2.6107,0.0829,0.0000,0.1200,0.0000,0.0000,0.0000,0.1273,-0.3399,-0.0039,996,1502,1500,1500,2008,1000,1505,1000,1000,1505,1005,1000,1014,-0.0416,-0.0443,0.2330,-0.0201,-0.0030,1.0020,0.4633,0.2166,-0.4712,-0.2087,0.8627,0.2400,0.1321,0.8627,0.2400,0.1321,0.3000,0.0600,0.0002,0,-2.2635,-3.5000,-0.0010,-2.2635,-3.5000,-0.0010,-22.4103,34.6533,0.0200,0.0000
-7.6624,39.3733,-2.6013,-0.0000,-0.0821,0.1200,0.0000,0.0000,0.0000,0.1272,-0.3396,-0.0036,998,1504,1501,1501,2008,1000,1505,1000,1000,1505,1005,1000,1014,-0.0148,-0.0635,0.1333,-0.0209,-0.0053,1.0043,0.4631,0.2161,-0.4704,-0.2088,0.8627,0.2400,0.1321,0.8627,0.2400,0.1321,0.3000,0.0600,0.0002,0,-2.2635,-3.5000,-0.0010,-2.2635,-3.5000,-0.0010,-22.3795,34.6298,0.0200,0.0000
-7.6507,39.3343,-2.5926,-0.0000,-0.1642,0.1200,0.0000,0.0000,0.0000,0.1270,-0.3391,-0.0036,996,1502,1500,1500,2008,1000,1505,1000,1000,1505,1005,1000,1014,-0.0062,-0.1816,0.1115,-0.0220,-0.0046,1.0038,0.4625,0.2157,-0.4698,-0.2084,0.8627,0.2400,0.1321,0.8627,0.2400,0.1321,0.3000,0.0600,0.0002,0,-2.2635,-3.5000,-0.0010,-2.2635,-3.5000,-0.0010,-22.3488,34.6060,0.0200,0.0000
-7.6389,39.2948,-2.5835,-0.0000,0.0000,0.1200,0.0000,0.0000,0.0000,0.1270,-0.3388,-0.0038,996,1502,1500,1500,2008,1000,1505,1000,1000,1505,1005,1000,1014,-0.0314,-0.1188,0.1854,-0.0242,-0.0023,1.0095,0.4620,0.2157,-0.4697,-0.2080,0.8627,0.2400,0.1321,0.8627,0.2400,0.1321,0.3000,0.0600,0.0002,0,-2.2635,-3.5000,-0.0010,-2.2635,-3.5000,-0.0010,-22.3187,34.5824,0.0200,0.0000
-7.6277,39.2556,-2.5742,-0.0000,-0.1642,0.1200,0.0000,0.0000,0.0000,0.1269,-0.3385,-0.0038,996,1502,1500,1500,2008,1000,1505,1000,1000,1505,1005,1000,1014,-0.0638,-0.1259,0.1878,-0.0233,-0.0029,1.0087,0.4616,0.2154,-0.4692,-0.2078,0.8627,0.2400,0.1321,0.8627,0.2400,0.1321,0.3000,0.0600,0.0002,0,-2.2635,-3.5000,-0.0010,-2.2635,-3.5000,-0.0010,-22.2887,34.5582,0.0200,0.0000
-7.6162,39.2167,-2.5652,0.1657,-0.0821,0.1200,0.0000,0.0000,0.0000,0.1269,-0.3382,-0.0038,996,1502,1500,1500,2008,1000,1505,1000,1000,1505,1005,1000,1014,-0.0979,-0.1294,0.1775,-0.0227,-0.0025,1.0023,0.4612,0.2151,-0.4688,-0.2075,0.8627,0.2400,0.1321,0.8627,0.2400,0.1321,0.3000,0.0600,0.0002,0,-2.2635,-3.5000,-0.0010,-2.2635,-3.5000,-0.0010,-22.2577,34.5337,0.0200,0.0000
-7.6051,39.1780,-2.5559,-0.0829,-0.0821,0.1200,0.0000,0.0000,0.0000,0.1268,-0.3379,-0.0039,996,1502,1500,1500,2008,1000,1505,1000,1000,1505,1005,1000,1014,-0.0861,-0.0826,0.1978,-0.0257,-0.0026,1.0037,0.4607,0.2150,-0.4685,-0.2072,0.8627,0.2400,0.1321,0.8627,0.2400,0.1321,0.3000,0.0600,0.0002,0,-2.2635,-3.5000,-0.0010,-2.2635,-3.5000,-0.0010,-22.2269,34.5095,0.0200,0.0000
-7.5933,39.1398,-2.5469,0.0829,-0.0821,0.1200,0.0000,0.0000,0.0000,0.1265,-0.3376,-0.0036,998,1504,1501,1501,2008,1000,1505,1000,1000,1505,1005,1000,1014,0.0005,-0.0432,0.1244,-0.0221,-0.0003,0.9988,0.4605,0.2147,-0.4678,-0.2074,0.8627,0.2400,0.1321,0.8627,0.2400,0.1321,0.3000,0.0600,0.0002,0,-2.2635,-3.5000,-0.0010,-2.2635,-3.5000,-0.0010,-22.1962,34.4850,0.0200,0.0000
-7.5812,39.1017,-2.5382,0.0829,-0.0821,0.1200,0.0000,0.0000,0.0000,0.1265,-0.3374,-0.0036,996,1502,1500,1500,2008,1000,1505,1000,1000,1505,1005,1000,1014,-0.0247,0.0417,0.1194,-0.0202,-0.0018,1.0070,0.4603,0.2145,-0.4675,-0.2073,0.8627,0.2400,0.1321,0.8627,0.2400,0.1321,0.3000,0.0600,0.0002,0,-2.2635,-3.5000,-0.0010,-2.2635,-3.5000,-0.0010,-22.1661,34.4611,0.0200,0.0000
-7.5698,39.0637,-2.5301,0.0829,0.0000,0.1200,0.0000,0.0000,0.0000,0.1263,-0.3370,-0.0037,996,1502,1500,1500,2008,1000,1505,1000,1000,1505,1005,1000,1014,0.0300,0.0264,0.1415,-0.0192,-0.0039,1.0011,0.4597,0.2144,-0.4670,-0.2071,0.8627,0.2400,0.1321,0.8627,0.2400,0.1321,0.3000,0.0600,0.0002,0,-2.2635,-3.5000,-0.0010,-2.2635,-3.5000,-0.0010,-22.1358,34.4369,0.0200,0.0000
-7.5593,39.0258,-2.5227,0.1657,0.0000,0.1200,0.0000,0.0000,0.0000,0.1263,-0.3367,-0.0034,996,1502,1500,1500,2008,1000,1505,1000,1000,1505,1005,1000,1014,-0.0138,-0.0143,0.0496,-0.0205,-0.0040,1.0033,0.4595,0.2138,-0.4663,-0.2070,0.8627,0.2400,0.1321,0.8627,0.2400,0.1321,0.3000,0.0600,0.0002,0,-2.2635,-3.5000,-0.0010,-2.2635,-3.5000,-0.0010,-22.1064,34.4131,0.0200,0.0000
-7.5487,38.9871,-2.5155,0.0829,-0.0821,0.1200,0.0000,0.0000,0.0000,0.1263,-0.3362,-0.0034,996,1502,1500,1500,2008,1000,1505,1000,1000,1505,1005,1000,1014,-0.0802,-0.0907,0.0664,-0.0223,-0.0039,1.0040,0.4591,0.2134,-0.4659,-0.2065,0.8627,0.2400,0.1321,0.8627,0.2400,0.1321,0.3000,0.0600,0.0002,0,-2.2635,-3.5000,-0.0010,-2.2635,-3.5000,-0.0010,-22.0768,34.3893,0.0200,0.0000
-7.5390,38.9476,-2.5087,-0.0000,-0.0821,0.1200,0.0000,0.0000,0.0000,0.1262,-0.3358,-0.0035,996,1502,1500,1500,2008,1000,1505,1000,1000,1505,1005,1000,1014,-0.0684,-0.1326,0.0783,-0.0247,-0.0047,1.0044,0.4585,0.2132,-0.4655,-0.2062,0.8627,0.2400,0.1321,0.8627,0.2400,0.1321,0.3000,0.0600,0.0002,0,-2.2635,-3.5000,-0.0010,-2.2635,-3.5000,-0.0010,-22.0475,34.3654,0.0200,0.0000
-7.5287,38.9084,-2.5011,0.0829,-0.0821,0.1200,0.0000,0.0000,0.0000,0.1261,-0.3356,-0.0035,998,1504,1501,1501,2008,1000,1505,1000,1000,1505,1005,1000,1014,-0.0714,-0.0375,0.0789,-0.0235,-0.0018,1.0015,0.4582,0.2130,-0.4652,-0.2060,0.8627,0.2400,0.1321,0.8627,0.2400,0.1321,0.3000,0.0600,0.0002,0,-2.2635,-3.5000,-0.0010,-2.2635,-3.5000,-0.0010,-22.0180,34.3412,0.0200,0.0000
-7.5189,38.8697,-2.4938,0.0829,-0.0821,0.1200,0.0000,0.0000,0.0000,0.1261,-0.3353,-0.0035,996,1502,1500,1500,2008,1000,1505,1000,1000,1505,1005,1000,1014,-0.1472,-0.0552,0.0535,-0.0200,-0.0025,1.0019,0.4579,0.2126,-0.4648,-0.2057,0.8627,0.2400,0.1321,0.8627,0.2400,0.1321,0.3000,0.0600,0.0002,0,-2.2635,-3.5000,-0.0010,-2.2635,-3.5000,-0.0010,-21.9882,34.3170,0.0200,0.0000
-7.5087,38.8310,-2.4867,-0.0000,-0.0821,0.1200,0.0000,0.0000,0.0000,0.1258,-0.3350,-0.0031,996,1502,1500,1500,2008,1000,1505,1000,1000,1505,1005,1000,1014,-0.0208,-0.0216,-0.0557,-0.0216,-0.0007,1.0038,0.4577,0.2122,-0.4639,-0.2060,0.8627,0.2400,0.1321,0.8627,0.2400,0.1321,0.3000,0.0600,0.0002,0,-2.2635,-3.5000,-0.0010,-2.2635,-3.5000,-0.0010,-21.9581,34.2925,0.0200,0.0000
-7.4979,38.7926,-2.4798,0.0829,0.0000,0.1200,0.0000,0.0000,0.0000,0.1257,-0.3347,-0.0034,996,1502,1500,1500,2008,1000,1505,1000,1000,1505,1005,1000,1014,0.0078,0.0264,0.0345,-0.0213,0.0002,1.0075,0.4570,0.2124,-0.4638,-0.2056,0.8627,0.2400,0.1321,0.8627,0.2400,0.1321,0.3000,0.0600,0.0002,0,-2.2635,-3.5000,-0.0010,-2.2635,-3.5000,-0.0010,-21.9278,34.2684,0.0200,0.0000
-7.4866,38.7539,-2.4724,0.0829,-0.0821,0.1200,0.0000,0.0000,0.0000,0.1256,-0.3343,-0.0033,996,1502,1500,1500,2008,1000,1505,1000,1000,1505,1005,1000,1014,0.0305,-0.0484,0.0085,-0.0245,-0.0031,1.0027,0.4566,0.2120,-0.4631,-0.2054,0.8627,0.2400,0.1321,0.8627,0.2400,0.1321,0.3000,0.0600,0.0002,0,-2.2635,-3.5000,-0.0010,-2.2635,-3.5000,-0.0010,-21.8978,34.2442,0.0200,0.0000
-7.4758,38.7152,-2.4653,0.0829,0.0000,0.1200,0.0000,0.0000,0.0000,0.1255,-0.3339,-0.0034,996,1502,1500,1500,2008,1000,1505,1000,1000,1505,1005,1000,1014,0.0082,-0.0613,0.0362,-0.0227,-0.0057,1.0032,0.4561,0.2117,-0.4628,-0.2050,0.8627,0.2400,0.1321,0.8627,0.2400,0.1321,0.3000,0.0600,0.0002,0,-2.2635,-3.5000,-0.0010,-2.2635,-3.5000,-0.0010,-21.8687,34.2196,0.0200,0.0000
-7.4651,38.6761,-2.4582,0.0829,0.0000,0.1200,0.0000,0.0000,0.0000,0.1255,-0.3335,-0.0034,998,1504,1501,1501,2008,1000,1505,1000,1000,1505,1005,1000,1014,-0.0362,-0.1049,0.0536,-0.0229,-0.0036,1.0049,0.4556,0.2115,-0.4624,-0.2046,0.8627,0.2400,0.1321,0.8627,0.2400,0.1321,0.3000,0.0600,0.0002,0,-2.2635,-3.5000,-0.0010,-2.2635,-3.5000,-0.0010,-21.8397,34.1954,0.0200,0.0000
-7.4540,38.6368,-2.4503,0.0829,0.0000,0.1200,0.0000,0.0000,0.0000,0.1254,-0.3331,-0.0035,996,1502,1500,1500,2008,1000,1505,1000,1000,1505,1005,1000,1014,-0.0454,-0.1687,0.0764,-0.0272,-0.0060,1.0048,0.4550,0.2112,-0.4620,-0.2042,0.8627,0.2400,0.1321,0.8627,0.2400,0.1321,0.3000,0.0600,0.0002,0,-2.2635,-3.5000,-0.0010,-2.2635,-3.5000,-0.0010,-21.8099,34.1710,0.0200,0.0000
-7.4432,38.5971,-2.4423,0.0829,0.0000,0.1200,0.0000,0.0000,0.0000,0.1254,-0.3328,-0.0036,996,1502,1500,1500,2008,1000,1505,1000,1000,1505,1005,1000,1014,-0.0898,-0.1606,0.1117,-0.0247,-0.0048,1.0012,0.4546,0.2110,-0.4617,-0.2038,0.8627,0.2400,0.1321,0.8627,0.2400,0.1321,0.3000,0.0600,0.0002,0,-2.2635,-3.5000,-0.0010,-2.2635,-3.5000,-0.0010,-21.7800,34.1469,0.0200,0.0000
-7.4325,38.5580,-2.4341,-0.0000,-0.0821,0.1200,0.0000,0.0000,0.0000,0.1253,-0.3326,-0.0036,996,1502,1500,1500,2008,1000,1505,1000,1000,1505,1005,1000,1014,-0.1237,-0.0343,0.1051,-0.0243,-0.0024,1.0079,0.4543,0.2109,-0.4615,-0.2036,0.8627,0.2400,0.1321,0.8627,0.2400,0.1321,0.3000,0.0600,0.0002,0,-2.2635,-3.5000,-0.0010,-2.2635,-3.5000,-0.0010,-21.7497,34.1233,0.0200,0.0000
-7.4216,38.5196,-2.4252,-0.0000,-0.2462,0.1200,0.0000,0.0000,0.0000,0.1252,-0.3323,-0.0039,996,1502,1500,1500,2008,1000,1505,1000,1000,1505,1005,1000,1014,-0.0847,-0.0427,0.2070,-0.0213,-0.0012,1.0077,0.4535,0.2110,-0.4613,-0.2032,0.8627,0.2400,0.1321,0.8627,0.2400,0.1321,0.3000,0.0600,0.0002,0,-2.2635,-3.5000,-0.0010,-2.2635,-3.5000,-0.0010,-21.7196,34.0993,0.0200,0.0000
-7.4100,38.4811,-2.4162,-0.0000,-0.1642,0.1200,0.0000,0.0000,0.0000,0.1250,-0.3320,-0.0037,996,1502,1500,1500,2008,1000,1505,1000,1000,1505,1005,1000,1014,-0.0224,-0.0096,0.1628,-0.0240,-0.0023,1.0036,0.4532,0.2107,-0.4607,-0.2032,0.8627,0.2400,0.1321,0.8627,0.2400,0.1321,0.3000,0.0600,0.0002,0,-2.2635,-3.5000,-0.0010,-2.2635,-3.5000,-0.0010,-21.6894,34.0756,0.0200,0.0000
-7.3979,38.4427,-2.4072,-0.0000,-0.1642,0.1200,0.0000,0.0000,0.0000,0.1249,-0.3316,-0.0039,998,1504,1501,1501,2008,1000,1505,1000,1000,1505,1005,1000,1014,0.0020,-0.0000,0.2207,-0.0197,-0.0014,1.0024,0.4526,0.2107,-0.4604,-0.2029,0.8627,0.2400,0.1321,0.8627,0.2400,0.1321,0.3000,0.0600,0.0002,0,-2.2635,-3.5000,-0.0010,-2.2635,-3.5000,-0.0010,-21.6590,34.0517,0.0200,0.0000
-7.3862,38.4038,-2.3983,-0.0000,-0.0821,0.1200,0.0000,0.0000,0.0000,0.1247,-0.3312,-0.0037,996,1502,1500,1500,2008,1000,1505,1000,1000,1505,1005,1000,1014,0.0050,-0.0666,0.1600,-0.0223,-0.0046,1.0055,0.4523,0.2102,-0.4597,-0.2028,0.8627,0.2400,0.1321,0.8627,0.2400,0.1321,0.3000,0.0600,0.0002,0,-2.2635,-3.5000,-0.0010,-2.2635,-3.5000,-0.0010,-21.6287,34.0275,0.0200,0.0000
-7.3746,38.3649,-2.3897,0.0829,-0.0821,0.1200,0.0000,0.0000,0.0000,0.1247,-0.3309,-0.0038,996,1502,1500,1500,2008,1000,1505,1000,1000,1505,1005,1000,1014,-0.0038,-0.0453,0.1928,-0.0208,-0.0037,1.0017,0.4517,0.2101,-0.4594,-0.2024,0.8627,0.2400,0.1321,0.8627,0.2400,0.1321,0.3000,0.0600,0.0002,0,-2.2635,-3.5000,-0.0010,-2.2635,-3.5000,-0.0010,-21.5987,34.0036,0.0200,0.0000
-7.3633,38.3261,-2.3816,-0.0000,-0.0821,0.1200,0.0000,0.0000,0.0000,0.1246,-0.3306,-0.0036,996,1502,1500,1500,2008,1000,1505,1000,1000,1505,1005,1000,1014,-0.0219,-0.0403,0.1098,-0.0230,-0.0052,1.0007,0.4516,0.2096,-0.4588,-0.2024,0.8627,0.2400,0.1321,0.8627,0.2400,0.1321,0.3000,0.0600,0.0002,0,-2.2635,-3.5000,-0.0010,-2.2635,-3.5000,-0.0010,-21.5689,33.9790,0.0200,0.0000
-7.3528,38.2874,-2.3739,0.0829,-0.0821,0.1200,0.0000,0.0000,0.0000,0.1245,-0.3303,-0.0036,996,1502,1500,1500,2008,1000,1505,1000,1000,1505,1005,1000,1014,-0.0576,0.0158,0.1064,-0.0220,-0.0053,1.0058,0.4513,0.2094,-0.4585,-0.2022,0.8627,0.2400,0.1321,0.8627,0.2400,0.1321,0.3000,0.0600,0.0002,0,-2.2635,-3.5000,-0.0010,-2.2635,-3.5000,-0.0010,-21.5387,33.9544,0.0200,0.0000
-7.3424,38.2484,-2.3663,0.0829,-0.0821,0.1200,0.0000,0.0000,0.0000,0.1244,-0.3298,-0.0037,996,1502,1500,1500,2008,1000,1505,1000,1000,1505,1005,1000,1014,-0.0403,-0.1010,0.1360,-0.0227,-0.0033,1.0010,0.4506,0.2091,-0.4579,-0.2017,0.8627,0.2400,0.1321,0.8627,0.2400,0.1321,0.3000,0.0600,0.0002,0,-2.2635,-3.5000,-0.0010,-2.2635,-3.5000,-0.0010,-21.5085,33.9296,0.0200,0.0000
-7.3317,38.2094,-2.3584,0.0829,-0.0821,0.1200,0.0000,0.0000,0.0000,0.1244,-0.3296,-0.0035,998,1504,1501,1501,2008,1000,1505,1000,1000,1505,1005,1000,1014,-0.0668,-0.0390,0.0784,-0.0237,-0.0033,1.0101,0.4505,0.2087,-0.4574,-0.2017,0.8627,0.2400,0.1321,0.8627,0.2400,0.1321,0.3000,0.0600,0.0002,0,-2.2635,-3.5000,-0.0010,-2.2635,-3.5000,-0.0010,-21.4785,33.9055,0.0200,0.0000
-7.3211,38.1703,-2.3506,0.0829,0.0000,0.1200,0.0000,0.0000,0.0000,0.1243,-0.3291,-0.0035,996,1502,1500,1500,2008,1000,1505,1000,1000,1505,1005,1000,1014,-0.0690,-0.1192,0.0752,-0.0188,-0.0009,1.0049,0.4499,0.2084,-0.4569,-0.2013,0.8627,0.2400,0.1321,0.8627,0.2400,0.1321,0.3000,0.0600,0.0002,0,-2.2635,-3.5000,-0.0010,-2.2635,-3.5000,-0.0010,-21.4488,33.8810,0.0200,0.0000
-7.3105,38.1310,-2.3435,-0.0000,0.0000,0.1200,0.0000,0.0000,0.0000,0.1241,-0.3288,-0.0033,996,1502,1500,1500,2008,1000,1505,1000,1000,1505,1005,1000,1014,0.0321,-0.0917,0.0310,-0.0188,-0.0024,1.0069,0.4496,0.2081,-0.4562,-0.2015,0.8627,0.2400,0.1321,0.8627,0.2400,0.1321,0.3000,0.0600,0.0002,0,-2.2635,-3.5000,-0.0010,-2.2635,-3.5000,-0.0010,-21.4188,33.8567,0.0200,0.0000
-7.2996,38.0916,-2.3363,0.0829,0.0000,0.1200,0.0000,0.0000,0.0000,0.1240,-0.3286,-0.0034,996,1502,1500,1500,2008,1000,1505,1000,1000,1505,1005,1000,1014,-0.0061,-0.0184,0.0542,-0.0221,-0.0036,1.0052,0.4492,0.2080,-0.4560,-0.2012,0.8627,0.2400,0.1321,0.8627,0.2400,0.1321,0.3000,0.0600,0.0002,0,-2.2635,-3.5000,-0.0010,-2.2635,-3.5000,-0.0010,-21.3890,33.8327,0.0200,0.0000
-7.2888,38.0527,-2.3294,0.0829,0.0000,0.1200,0.0000,0.0000,0.0000,0.1238,-0.3283,-0.0035,996,1502,1500,1500,2008,1000,1505,1000,1000,1505,1005,1000,1014,0.0669,-0.0212,0.0851,-0.0269,-0.0048,1.0093,0.4485,0.2080,-0.4556,-0.2009,0.8627,0.2400,0.1321,0.8627,0.2400,0.1321,0.3000,0.0600,0.0002,0,-2.2635,-3.5000,-0.0010,-2.2635,-3.5000,-0.0010,-21.3598,33.8085,0.0200,0.0000
-7.2778,38.0133,-2.3226,-0.0000,-0.0821,0.1200,0.0000,0.0000,0.0000,0.1238,-0.3278,-0.0033,996,1502,1500,1500,2008,1000,1505,1000,1000,1505,1005,1000,1014,0.0286,-0.0823,-0.0013,-0.0244,-0.0025,1.0077,0.4483,0.2073,-0.4549,-0.2008,0.8627,0.2400,0.1321,0.8627,0.2400,0.1321,0.3000,0.0600,0.0002,0,-2.2635,-3.5000,-0.0010,-2.2635,-3.5000,-0.0010,-21.3307,33.7840,0.0200,0.0000
-7.2671,37.9737,-2.3156,0.0829,0.0000,0.1200,0.0000,0.0000,0.0000,0.1237,-0.3275,-0.0034,998,1504,1501,1501,2008,1000,1505,1000,1000,1505,1005,1000,1014,-0.0086,-0.1111,0.0529,-0.0236,-0.0016,1.0059,0.4477,0.2072,-0.4546,-0.2003,0.8627,0.2400,0.1321,0.8627,0.2400,0.1321,0.3000,0.0600,0.0002,0,-2.2635,-3.5000,-0.0010,-2.2635,-3.5000,-0.0010,-21.3011,33.7591,0.0200,0.0000
-7.2569,37.9345,-2.3079,0.0829,-0.0821,0.1200,0.0000,0.0000,0.0000,0.1238,-0.3271,-0.0036,996,1502,1500,1500,2008,1000,1505,1000,1000,1505,1005,1000,1014,-0.1542,-0.0969,0.1001,-0.0240,-0.0029,1.0008,0.4474,0.2069,-0.4546,-0.1997,0.8627,0.2400,0.1321,0.8627,0.2400,0.1321,0.3000,0.0600,0.0002,0,-2.2635,-3.5000,-0.0010,-2.2635,-3.5000,-0.0010,-21.2715,33.7344,0.0200,0.0000
-7.2465,37.8963,-2.3000,0.0829,-0.0821,0.1200,0.0000,0.0000,0.0000,0.1236,-0.3269,-0.0037,996,1502,1500,1500,2008,1000,1505,1000,1000,1505,1005,1000,1014,-0.0434,-0.0207,0.1437,-0.0225,-0.0034,1.0039,0.4468,0.2070,-0.4542,-0.1996,0.8627,0.2400,0.1321,0.8627,0.2400,0.1321,0.3000,0.0600,0.0002,0,-2.2635,-3.5000,-0.0010,-2.2635,-3.5000,-0.0010,-21.2422,33.7097,0.0200,0.0000
-7.2361,37.8576,-2.2923,0.0829,0.0000,0.1200,0.0000,0.0000,0.0000,0.1235,-0.3266,-0.0034,996,1502,1500,1500,2008,1000,1505,1000,1000,1505,1005,1000,1014,-0.0450,0.0212,0.0523,-0.0210,-0.0007,1.0048,0.4467,0.2065,-0.4535,-0.1997,0.8627,0.2400,0.1321,0.8627,0.2400,0.1321,0.3000,0.0600,0.0002,0,-2.2635,-3.5000,-0.0010,-2.2635,-3.5000,-0.0010,-21.2122,33.6853,0.0200,0.0000
-7.2251,37.8191,-2.2851,-0.0000,0.0000,0.1200,0.0000,0.0000,0.0000,0.1233,-0.3262,-0.0036,996,1502,1500,1500,2008,1000,1505,1000,1000,1505,1005,1000,1014,0.0255,-0.0439,0.1007,-0.0248,-0.0017,1.0049,0.4459,0.2065,-0.4531,-0.1993,0.8627,0.2400,0.1321,0.8627,0.2400,0.1321,0.3000,0.0600,0.0002,0,-2.2635,-3.5000,-0.0010,-2.2635,-3.5000,-0.0010,-21.1822,33.6606,0.0200,0.0000
-7.2138,37.7798,-2.2771,-0.0000,-0.1642,0.1200,0.0000,0.0000,0.0000,0.1233,-0.3259,-0.0036,996,1502,1500,1500,2008,1000,1505,1000,1000,1505,1005,1000,1014,0.0049,-0.0454,0.1115,-0.0198,-0.0023,1.0023,0.4455,0.2062,-0.4527,-0.1990,0.8627,0.2400,0.1321,0.8627,0.2400,0.1321,0.3000,0.0600,0.0002,0,-2.2635,-3.5000,-0.0010,-2.2635,-3.5000,-0.0010,-21.1520,33.6359,0.0200,0.0000
-7.2028,37.7404,-2.2690,0.0829,-0.0821,0.1200,0.0000,0.0000,0.0000,0.1232,-0.3254,-0.0039,998,1504,1501,1501,2008,1000,1505,1000,1000,1505,1005,1000,1014,-0.0453,-0.1458,0.1747,-0.0235,-0.0020,1.0026,0.4448,0.2060,-0.4525,-0.1983,0.8627,0.2400,0.1321,0.8627,0.2400,0.1321,0.3000,0.0600,0.0002,0,-2.2635,-3.5000,-0.0010,-2.2635,-3.5000,-0.0010,-21.1217,33.6106,0.0200,0.0000
-7.1919,37.7003,-2.2608,-0.0000,-0.2462,0.1200,0.0000,0.0000,0.0000,0.1232,-0.3250,-0.0036,996,1502,1500,1500,2008,1000,1505,1000,1000,1505,1005,1000,1014,-0.0753,-0.1856,0.1099,-0.0249,-0.0055,1.0004,0.4446,0.2054,-0.4518,-0.1982,0.8627,0.2400,0.1321,0.8627,0.2400,0.1321,0.3000,0.0600,0.0002,0,-2.2635,-3.5000,-0.0010,-2.2635,-3.5000,-0.0010,-21.0913,33.5855,0.0200,0.0000
-7.1812,37.6600,-2.2525,0.0829,0.0821,0.1200,0.0000,0.0000,0.0000,0.1231,-0.3247,-0.0040,996,1502,1500,1500,2008,1000,1505,1000,1000,1505,1005,1000,1014,-0.1075,-0.1340,0.2134,-0.0219,-0.0027,0.9993,0.4439,0.2055,-0.4518,-0.1976,0.8627,0.2400,0.1321,0.8627,0.2400,0.1321,0.3000,0.0600,0.0002,0,-2.2635,-3.5000,-0.0010,-2.2635,-3.5000,-0.0010,-21.0608,33.5606,0.0200,0.0000
-7.1702,37.6201,-2.2438,-0.1657,-0.0821,0.1200,0.0000,0.0000,0.0000,0.1229,-0.3245,-0.0038,996,1502,1500,1500,2008,1000,1505,1000,1000,1505,1005,1000,1014,-0.0109,-0.0630,0.1648,-0.0239,-0.0027,1.0009,0.4436,0.2053,-0.4512,-0.1978,0.8627,0.2400,0.1321,0.8627,0.2400,0.1321,0.3000,0.0600,0.0002,0,-2.2635,-3.5000,-0.0010,-2.2635,-3.5000,-0.0010,-21.0308,33.5366,0.0200,0.0000
-7.1593,37.5806,-2.2351,-0.0000,0.0000,0.1200,0.0000,0.0000,0.0000,0.1229,-0.3242,-0.0037,996,1502,1500,1500,2008,1000,1505,1000,1000,1505,1005,1000,1014,-0.0849,-0.0098,0.1576,-0.0233,-0.0012,1.0046,0.4434,0.2050,-0.4508,-0.1976,0.8627,0.2400,0.1321,0.8627,0.2400,0.1321,0.3000,0.0600,0.0002,0,-2.2635,-3.5000,-0.0010,-2.2635,-3.5000,-0.0010,-21.0008,33.5121,0.0200,0.0000
-7.1487,37.5420,-2.2273,-0.0000,-0.0821,0.1200,0.0000,0.0000,0.0000,0.1228,-0.3239,-0.0035,996,1502,1500,1500,2008,1000,1505,1000,1000,1505,1005,1000,1014,-0.0673,0.0201,0.0972,-0.0228,-0.0040,1.0055,0.4432,0.2047,-0.4502,-0.1976,0.8627,0.2400,0.1321,0.8627,0.2400,0.1321,0.3000,0.0600,0.0002,0,-2.2635,-3.5000,-0.0010,-2.2635,-3.5000,-0.0010,-20.9718,33.4874,0.0200,0.0000
-7.1380,37.5029,-2.2198,0.0829,-0.0821,0.1200,0.0000,0.0000,0.0000,0.1226,-0.3236,-0.0035,998,1504,1501,1501,2008,1000,1505,1000,1000,1505,1005,1000,1014,-0.0007,0.0541,0.0765,-0.0206,-0.0036,1.0065,0.4427,0.2045,-0.4498,-0.1975,0.8627,0.2400,0.1321,0.8627,0.2400,0.1321,0.3000,0.0600,0.0002,0,-2.2635,-3.5000,-0.0010,-2.2635,-3.5000,-0.0010,-20.9424,33.4623,0.0200,0.0000
-7.1270,37.4646,-2.2119,0.0829,0.0000,0.1200,0.0000,0.0000,0.0000,0.1225,-0.3232,-0.0038,996,1502,1500,1500,2008,1000,1505,1000,1000,1505,1005,1000,1014,-0.0220,0.0095,0.1856,-0.0206,-0.0031,1.0061,0.4419,0.2045,-0.4496,-0.1968,0.8627,0.2400,0.1321,0.8627,0.2400,0.1321,0.3000,0.0600,0.0002,0,-2.2635,-3.5000,-0.0010,-2.2635,-3.5000,-0.0010,-20.9125,33.4379,0.0200,0.0000
-7.1161,37.4254,-2.2040,0.0829,0.0000,0.1200,0.0000,0.0000,0.0000,0.1225,-0.3229,-0.0036,996,1502,1500,1500,2008,1000,1505,1000,1000,1505,1005,1000,1014,-0.0512,-0.0118,0.1118,-0.0173,-0.0042,1.0045,0.4417,0.2040,-0.4489,-0.1968,0.8627,0.2400,0.1321,0.8627,0.2400,0.1321,0.3000,0.0600,0.0002,0,-2.2635,-3.5000,-0.0010,-2.2635,-3.5000,-0.0010,-20.8822,33.4133,0.0200,0.0000
-7.1058,37.3858,-2.1967,0.0829,0.0000,0.1200,0.0000,0.0000,0.0000,0.1224,-0.3224,-0.0034,996,1502,1500,1500,2008,1000,1505,1000,1000,1505,1005,1000,1014,-0.0562,-0.1028,0.0543,-0.0219,-0.0057,1.0092,0.4414,0.2034,-0.4482,-0.1966,0.8627,0.2400,0.1321,0.8627,0.2400,0.1321,0.3000,0.0600,0.0002,0,-2.2635,-3.5000,-0.0010,-2.2635,-3.5000,-0.0010,-20.8530,33.3891,0.0200,0.0000
-7.0962,37.3453,-2.1900,0.0829,-0.0821,0.1200,0.0000,0.0000,0.0000,0.1223,-0.3219,-0.0033,996,1502,1500,1500,2008,1000,1505,1000,1000,1505,1005,1000,1014,-0.0307,-0.2309,0.0154,-0.0236,-0.0040,1.0035,0.4408,0.2029,-0.4475,-0.1962,0.8627,0.2400,0.1321,0.8627,0.2400,0.1321,0.3000,0.0600,0.0002,0,-2.2635,-3.5000,-0.0010,-2.2635,-3.5000,-0.0010,-20.8242,33.3648,0.0200,0.0000
-7.0854,37.3045,-2.1831,-0.0000,-0.0821,0.1200,0.0000,0.0000,0.0000,0.1222,-0.3216,-0.0034,996,1502,1500,1500,2008,1000,1505,1000,1000,1505,1005,1000,1014,0.0019,-0.1647,0.0701,-0.0265,-0.0028,1.0059,0.4403,0.2029,-0.4472,-0.1960,0.8627,0.2400,0.1321,0.8627,0.2400,0.1321,0.3000,0.0600,0.0002,0,-2.2635,-3.5000,-0.0010,-2.2635,-3.5000,-0.0010,-20.7946,33.3398,0.0200,0.0000
-7.0749,37.2643,-2.1759,-0.0000,0.0000,0.1200,0.0000,0.0000,0.0000,0.1221,-0.3213,-0.0034,998,1504,1501,1501,2008,1000,1505,1000,1000,1505,1005,1000,1014,-0.0544,-0.1338,0.0314,-0.0260,-0.0008,1.0042,0.4401,0.2025,-0.4468,-0.1958,0.8627,0.2400,0.1321,0.8627,0.2400,0.1321,0.3000,0.0600,0.0002,0,-2.2635,-3.5000,-0.0010,-2.2635,-3.5000,-0.0010,-20.7648,33.3145,0.0200,0.0000
-7.0648,37.2249,-2.1692,0.0829,0.0000,0.1200,0.0000,0.0000,0.0000,0.1221,-0.3212,-0.0036,996,1502,1500,1500,2008,1000,1505,1000,1000,1505,1005,1000,1014,-0.0930,0.0114,0.0885,-0.0269,-0.0015,1.0046,0.4397,0.2026,-0.4468,-0.1955,0.8627,0.2400,0.1321,0.8627,0.2400,0.1321,0.3000,0.0600,0.0002,0,-2.2635,-3.5000,-0.0010,-2.2635,-3.5000,-0.0010,-20.7354,33.2896,0.0200,0.0000
-7.0549,37.1862,-2.1623,-0.0000,0.0000,0.1200,0.0000,0.0000,0.0000,0.1220,-0.3208,-0.0032,996,1502,1500,1500,2008,1000,1505,1000,1000,1505,1005,1000,1014,-0.0683,-0.0006,0.0081,-0.0253,-0.0037,1.0093,0.4395,0.2021,-0.4460,-0.1956,0.8627,0.2400,0.1321,0.8627,0.2400,0.1321,0.3000,0.0600,0.0002,0,-2.2635,-3.5000,-0.0010,-2.2635,-3.5000,-0.0010,-20.7055,33.2649,0.0200,0.0000
-7.0452,37.1470,-2.1558,0.0829,0.0000,0.1200,0.0000,0.0000,0.0000,0.1219,-0.3204,-0.0035,996,1502,1500,1500,2008,1000,1505,1000,1000,1505,1005,1000,1014,-0.0648,-0.0397,0.0823,-0.0217,-0.0018,1.0093,0.4388,0.2020,-0.4458,-0.1950,0.8627,0.2400,0.1321,0.8627,0.2400,0.1321,0.3000,0.0600,0.0002,0,-2.2635,-3.5000,-0.0010,-2.2635,-3.5000,-0.0010,-20.6760,33.2399,0.0200,0.0000
-7.0345,37.1084,-2.1486,0.0829,-0.0821,0.1200,0.0000,0.0000,0.0000,0.1217,-0.3202,-0.0036,996,1502,1500,1500,2008,1000,1505,1000,1000,1505,1005,1000,1014,0.0023,0.0336,0.1098,-0.0206,-0.0034,1.0061,0.4383,0.2021,-0.4455,-0.1948,0.8627,0.2400,0.1321,0.8627,0.2400,0.1321,0.3000,0.0600,0.0002,0,-2.2635,-3.5000,-0.0010,-2.2635,-3.5000,-0.0010,-20.6469,33.2144,0.0200,0.0000
-7.0239,37.0697,-2.1416,0.0829,0.0000,0.1200,0.0000,0.0000,0.0000,0.1216,-0.3198,-0.0033,996,1502,1500,1500,2008,1000,1505,1000,1000,1505,1005,1000,1014,-0.0034,-0.0180,0.0038,-0.0196,-0.0013,1.0057,0.4381,0.2014,-0.4447,-0.1949,0.8627,0.2400,0.1321,0.8627,0.2400,0.1321,0.3000,0.0600,0.0002,0,-2.2635,-3.5000,-0.0010,-2.2635,-3.5000,-0.0010,-20.6180,33.1890,0.0200,0.0000
-7.0132,37.0303,-2.1346,0.0829,-0.0821,0.1200,0.0000,0.0000,0.0000,0.1216,-0.3193,-0.0035,998,1504,1501,1501,2008,1000,1505,1000,1000,1505,1005,1000,1014,-0.0265,-0.1230,0.0810,-0.0227,-0.0046,1.0054,0.4374,0.2012,-0.4444,-0.1942,0.8627,0.2400,0.1321,0.8627,0.2400,0.1321,0.3000,0.0600,0.0002,0,-2.2635,-3.5000,-0.0010,-2.2635,-3.5000,-0.0010,-20.5890,33.1642,0.0200,0.0000
-7.0026,36.9899,-2.1272,0.0829,0.0000,0.1200,0.0000,0.0000,0.0000,0.1215,-0.3189,-0.0036,996,1502,1500,1500,2008,1000,1505,1000,1000,1505,1005,1000,1014,-0.0184,-0.1826,0.0870,-0.0219,-0.0056,1.0054,0.4368,0.2010,-0.4439,-0.1938,0.8627,0.2400,0.1321,0.8627,0.2400,0.1321,0.3000,0.0600,0.0002,0,-2.2635,-3.5000,-0.0010,-2.2635,-3.5000,-0.0010,-20.5600,33.1391,0.0200,0.0000
-6.9921,36.9494,-2.1200,-0.0000,-0.1642,0.1200,0.0000,0.0000,0.0000,0.1214,-0.3186,-0.0035,996,1502,1500,1500,2008,1000,1505,1000,1000,1505,1005,1000,1014,-0.0017,-0.1347,0.0836,-0.0232,-0.0038,1.0057,0.4364,0.2008,-0.4435,-0.1937,0.8627,0.2400,0.1321,0.8627,0.2400,0.1321,0.3000,0.0600,0.0002,0,-2.2635,-3.5000,-0.0010,-2.2635,-3.5000,-0.0010,-20.5314,33.1142,0.0200,0.0000
-6.9813,36.9092,-2.1122,-0.0000,-0.0821,0.1200,0.0000,0.0000,0.0000,0.1213,-0.3184,-0.0039,996,1502,1500,1500,2008,1000,1505,1000,1000,1505,1005,1000,1014,-0.0387,-0.0437,0.1941,-0.0267,-0.0055,1.0024,0.4358,0.2009,-0.4435,-0.1932,0.8627,0.2400,0.1321,0.8627,0.2400,0.1321,0.3000,0.0600,0.0002,0,-2.2635,-3.5000,-0.0010,-2.2635,-3.5000,-0.0010,-20.5026,33.0888,0.0200,0.0000
-6.9708,36.8704,-2.1042,-0.1657,-0.0821,0.1200,0.0000,0.0000,0.0000,0.1213,-0.3180,-0.0033,996,1502,1500,1500,2008,1000,1505,1000,1000,1505,1005,1000,1014,-0.0908,-0.0262,0.0261,-0.0255,0.0020,1.0041,0.4360,0.2001,-0.4427,-0.1934,0.8627,0.2400,0.1321,0.8627,0.2400,0.1321,0.3000,0.0600,0.0002,0,-2.2635,-3.5000,-0.0010,-2.2635,-3.5000,-0.0010,-20.4724,33.0638,0.0200,0.0000
-6.9606,36.8325,-2.0965,-0.0000,0.0000,0.1200,0.0000,0.0000,0.0000,0.1212,-0.3180,-0.0037,996,1502,1500,1500,2008,1000,1505,1000,1000,1505,1005,1000,1014,-0.0850,0.1577,0.1649,-0.0231,-0.0006,1.0064,0.4355,0.2005,-0.4429,-0.1931,0.8627,0.2400,0.1321,0.8627,0.2400,0.1321,0.3000,0.0600,0.0002,0,-2.2635,-3.5000,-0.0010,-2.2635,-3.5000,-0.0010,-20.4420,33.0380,0.0200,0.0000
-6.9503,36.7941,-2.0888,-0.0000,-0.0821,0.1200,0.0000,0.0000,0.0000,0.1210,-0.3174,-0.0038,998,1504,1501,1501,2008,1000,1505,1000,1000,1505,1005,1000,1014,0.0340,0.0149,0.1719,-0.0177,-0.0027,1.0056,0.4346,0.2003,-0.4422,-0.1927,0.8627,0.2400,0.1321,0.8627,0.2400,0.1321,0.3000,0.0600,0.0002,0,-2.2635,-3.5000,-0.0010,-2.2635,-3.5000,-0.0010,-20.4122,33.0132,0.0200,0.0000
-6.9390,36.7552,-2.0806,-0.0000,0.0000,0.1200,0.0000,0.0000,0.0000,0.1209,-0.3171,-0.0039,996,1502,1500,1500,2008,1000,1505,1000,1000,1505,1005,1000,1014,0.0106,-0.0193,0.1752,-0.0180,-0.0035,1.0044,0.4341,0.2000,-0.4418,-0.1923,0.8627,0.2400,0.1321,0.8627,0.2400,0.1321,0.3000,0.0600,0.0002,0,-2.2635,-3.5000,-0.0010,-2.2635,-3.5000,-0.0010,-20.3826,32.9890,0.0200,0.0000
-6.9274,36.7159,-2.0723,0.0829,0.0000,0.1200,0.0000,0.0000,0.0000,0.1207,-0.3167,-0.0037,996,1502,1500,1500,2008,1000,1505,1000,1000,1505,1005,1000,1014,0.0496,-0.0496,0.1291,-0.0197,-0.0039,1.0025,0.4337,0.1996,-0.4411,-0.1923,0.8627,0.2400,0.1321,0.8627,0.2400,0.1321,0.3000,0.0600,0.0002,0,-2.2635,-3.5000,-0.0010,-2.2635,-3.5000,-0.0010,-20.3527,32.9656,0.0200,0.0000
-6.9161,36.6757,-2.0638,-0.0000,-0.0821,0.1200,0.0000,0.0000,0.0000,0.1208,-0.3162,-0.0039,996,1502,1500,1500,2008,1000,1505,1000,1000,1505,1005,1000,1014,-0.0397,-0.1658,0.2005,-0.0185,-0.0059,1.0060,0.4331,0.1993,-0.4408,-0.1916,0.8627,0.2400,0.1321,0.8627,0.2400,0.1321,0.3000,0.0600,0.0002,0,-2.2635,-3.5000,-0.0010,-2.2635,-3.5000,-0.0010,-20.3225,32.9411,0.0200,0.0000
-6.9055,36.6348,-2.0559,0.0829,-0.0821,0.1200,0.0000,0.0000,0.0000,0.1206,-0.3158,-0.0037,996,1502,1500,1500,2008,1000,1505,1000,1000,1505,1005,1000,1014,-0.0176,-0.2030,0.1204,-0.0232,-0.0053,1.0026,0.4327,0.1988,-0.4401,-0.1915,0.8627,0.2400,0.1321,0.8627,0.2400,0.1321,0.3000,0.0600,0.0002,0,-2.2635,-3.5000,-0.0010,-2.2635,-3.5000,-0.0010,-20.2931,32.9166,0.0200,0.0000
-6.8951,36.5940,-2.0481,0.0829,-0.0821,0.1200,0.0000,0.0000,0.0000,0.1206,-0.3155,-0.0037,996,1502,1500,1500,2008,1000,1505,1000,1000,1505,1005,1000,1014,-0.0629,-0.1142,0.1124,-0.0290,-0.0040,1.0000,0.4325,0.1986,-0.4398,-0.1913,0.8627,0.2400,0.1321,0.8627,0.2400,0.1321,0.3000,0.0600,0.0002,0,-2.2635,-3.5000,-0.0010,-2.2635,-3.5000,-0.0010,-20.2638,32.8921,0.0200,0.0000
-6.8850,36.5540,-2.0408,0.0829,0.0000,0.1200,0.0000,0.0000,0.0000,0.1205,-0.3153,-0.0035,998,1504,1501,1501,2008,1000,1505,1000,1000,1505,1005,1000,1014,-0.0322,-0.0353,0.0783,-0.0294,-0.0021,1.0052,0.4323,0.1983,-0.4393,-0.1913,0.8627,0.2400,0.1321,0.8627,0.2400,0.1321,0.3000,0.0600,0.0002,0,-2.2635,-3.5000,-0.0010,-2.2635,-3.5000,-0.0010,-20.2345,32.8674,0.0200,0.0000
-6.8753,36.5148,-2.0336,-0.0000,0.0000,0.1200,0.0000,0.0000,0.0000,0.1205,-0.3151,-0.0035,996,1502,1500,1500,2008,1000,1505,1000,1000,1505,1005,1000,1014,-0.0972,0.0297,0.0680,-0.0250,0.0005,1.0081,0.4321,0.1980,-0.4390,-0.1911,0.8627,0.2400,0.1321,0.8627,0.2400,0.1321,0.3000,0.0600,0.0002,0,-2.2635,-3.5000,-0.0010,-2.2635,-3.5000,-0.0010,-20.2050,32.8426,0.0200,0.0000
-6.8656,36.4763,-2.0269,-0.0000,0.0000,0.1200,0.0000,0.0000,0.0000,0.1203,-0.3147,-0.0035,996,1502,1500,1500,2008,1000,1505,1000,1000,1505,1005,1000,1014,-0.0530,0.0397,0.0609,-0.0258,-0.0027,1.0071,0.4316,0.1979,-0.4386,-0.1909,0.8627,0.2400,0.1321,0.8627,0.2400,0.1321,0.3000,0.0600,0.0002,0,-2.2635,-3.5000,-0.0010,-2.2635,-3.5000,-0.0010,-20.1756,32.8170,0.0200,0.0000
-6.8556,36.4378,-2.0205,0.0829,0.0000,0.1200,0.0000,0.0000,0.0000,0.1202,-0.3145,-0.0035,996,1502,1500,1500,2008,1000,1505,1000,1000,1505,1005,1000,1014,0.0048,0.0944,0.0664,-0.0210,-0.0042,1.0067,0.4312,0.1978,-0.4381,-0.1908,0.8627,0.2400,0.1321,0.8627,0.2400,0.1321,0.3000,0.0600,0.0002,0,-2.2635,-3.5000,-0.0010,-2.2635,-3.5000,-0.0010,-20.1460,32.7916,0.0200,0.0000
-6.8458,36.3989,-2.0145,0.0829,-0.0821,0.1200,0.0000,0.0000,0.0000,0.1201,-0.3139,-0.0034,996,1502,1500,1500,2008,1000,1505,1000,1000,1505,1005,1000,1014,-0.0095,-0.0526,0.0279,-0.0178,-0.0020,1.0023,0.4306,0.1972,-0.4375,-0.1904,0.8627,0.2400,0.1321,0.8627,0.2400,0.1321,0.3000,0.0600,0.0002,0,-2.2635,-3.5000,-0.0010,-2.2635,-3.5000,-0.0010,-20.1174,32.7663,0.0200,0.0000
-6.8355,36.3589,-2.0080,0.1657,-0.0821,0.1200,0.0000,0.0000,0.0000,0.1200,-0.3136,-0.0034,996,1502,1500,1500,2008,1000,1505,1000,1000,1505,1005,1000,1014,0.0169,-0.0655,0.0555,-0.0210,-0.0032,1.0024,0.4301,0.1970,-0.4370,-0.1902,0.8627,0.2400,0.1321,0.8627,0.2400,0.1321,0.3000,0.0600,0.0002,0,-2.2635,-3.5000,-0.0010,-2.2635,-3.5000,-0.0010,-20.0890,32.7407,0.0200,0.0000
-6.8252,36.3184,-2.0016,-0.0000,-0.0821,0.1200,0.0000,0.0000,0.0000,0.1198,-0.3131,-0.0033,998,1504,1501,1501,2008,1000,1505,1000,1000,1505,1005,1000,1014,0.0763,-0.1744,0.0118,-0.0174,-0.0066,1.0040,0.4296,0.1966,-0.4362,-0.1900,0.8627,0.2400,0.1321,0.8627,0.2400,0.1321,0.3000,0.0600,0.0002,0,-2.2635,-3.5000,-0.0010,-2.2635,-3.5000,-0.0010,-20.0607,32.7151,0.0200,0.0000
-6.8146,36.2772,-1.9948,-0.0000,-0.0821,0.1200,0.0000,0.0000,0.0000,0.1199,-0.3127,-0.0036,996,1502,1500,1500,2008,1000,1505,1000,1000,1505,1005,1000,1014,-0.0443,-0.1810,0.0845,-0.0231,-0.0034,1.0016,0.4290,0.1964,-0.4362,-0.1893,0.8627,0.2400,0.1321,0.8627,0.2400,0.1321,0.3000,0.0600,0.0002,0,-2.2635,-3.5000,-0.0010,-2.2635,-3.5000,-0.0010,-20.0320,32.6900,0.0200,0.0000
-6.8048,36.2363,-1.9879,0.0829,0.0000,0.1200,0.0000,0.0000,0.0000,0.1198,-0.3124,-0.0033,996,1502,1500,1500,2008,1000,1505,1000,1000,1505,1005,1000,1014,-0.0672,-0.1295,-0.0028,-0.0255,-0.0042,1.0059,0.4290,0.1959,-0.4356,-0.1893,0.8627,0.2400,0.1321,0.8627,0.2400,0.1321,0.3000,0.0600,0.0002,0,-2.2635,-3.5000,-0.0010,-2.2635,-3.5000,-0.0010,-20.0031,32.6651,0.0200,0.0000
-6.7952,36.1962,-1.9808,-0.0000,-0.1642,0.1200,0.0000,0.0000,0.0000,0.1198,-0.3122,-0.0037,996,1502,1500,1500,2008,1000,1505,1000,1000,1505,1005,1000,1014,-0.1352,-0.0487,0.1362,-0.0250,-0.0007,1.0051,0.4283,0.1961,-0.4358,-0.1886,0.8627,0.2400,0.1321,0.8627,0.2400,0.1321,0.3000,0.0600,0.0002,0,-2.2635,-3.5000,-0.0010,-2.2635,-3.5000,-0.0010,-19.9747,32.6395,0.0200,0.0000
-6.7851,36.1563,-1.9733,0.0829,0.0000,0.1200,0.0000,0.0000,0.0000,0.1196,-0.3119,-0.0037,996,1502,1500,1500,2008,1000,1505,1000,1000,1505,1005,1000,1014,-0.0421,-0.0262,0.1293,-0.0246,-0.0029,1.0040,0.4278,0.1960,-0.4352,-0.1885,0.8627,0.2400,0.1321,0.8627,0.2400,0.1321,0.3000,0.0600,0.0002,0,-2.2635,-3.5000,-0.0010,-2.2635,-3.5000,-0.0010,-19.9458,32.6140,0.0200,0.0000
-6.7747,36.1174,-1.9663,-0.0829,-0.0821,0.1200,0.0000,0.0000,0.0000,0.1195,-0.3116,-0.0036,996,1502,1500,1500,2008,1000,1505,1000,1000,1505,1005,1000,1014,0.0207,0.0002,0.0811,-0.0245,-0.0012,1.0024,0.4275,0.1957,-0.4346,-0.1886,0.8627,0.2400,0.1321,0.8627,0.2400,0.1321,0.3000,0.0600,0.0002,0,-2.2635,-3.5000,-0.0010,-2.2635,-3.5000,-0.0010,-19.9163,32.5885,0.0200,0.0000
-6.7639,36.0784,-1.9589,-0.0000,0.0000,0.1200,0.0000,0.0000,0.0000,0.1194,-0.3112,-0.0036,998,1504,1501,1501,2008,1000,1505,1000,1000,1505,1005,1000,1014,0.0135,-0.0404,0.1209,-0.0196,-0.0014,1.0050,0.4270,0.1954,-0.4342,-0.1882,0.8627,0.2400,0.1321,0.8627,0.2400,0.1321,0.3000,0.0600,0.0002,0,-2.2635,-3.5000,-0.0010,-2.2635,-3.5000,-0.0010,-19.8873,32.5635,0.0200,0.0000
-6.7530,36.0385,-1.9516,-0.0829,-0.2462,0.1200,0.0000,0.0000,0.0000,0.1193,-0.3108,-0.0038,996,1502,1500,1500,2008,1000,1505,1000,1000,1505,1005,1000,1014,0.0206,-0.0779,0.1545,-0.0165,-0.0045,1.0048,0.4263,0.1953,-0.4338,-0.1878,0.8627,0.2400,0.1321,0.8627,0.2400,0.1321,0.3000,0.0600,0.0002,0,-2.2635,-3.5000,-0.0010,-2.2635,-3.5000,-0.0010,-19.8577,32.5379,0.0200,0.0000
-6.7419,35.9983,-1.9431,-0.0000,0.0000,0.1200,0.0000,0.0000,0.0000,0.1192,-0.3104,-0.0038,996,1502,1500,1500,2008,1000,1505,1000,1000,1505,1005,1000,1014,-0.0270,-0.0870,0.1766,-0.0196,-0.0063,1.0039,0.4259,0.1950,-0.4335,-0.1874,0.8627,0.2400,0.1321,0.8627,0.2400,0.1321,0.3000,0.0600,0.0002,0,-2.2635,-3.5000,-0.0010,-2.2635,-3.5000,-0.0010,-19.8280,32.5129,0.0200,0.0000
-6.7312,35.9579,-1.9352,0.0829,0.0000,0.1200,0.0000,0.0000,0.0000,0.1191,-0.3100,-0.0038,996,1502,1500,1500,2008,1000,1505,1000,1000,1505,1005,1000,1014,-0.0096,-0.1647,0.1837,-0.0197,-0.0069,1.0004,0.4253,0.1947,-0.4329,-0.1871,0.8627,0.2400,0.1321,0.8627,0.2400,0.1321,0.3000,0.0600,0.0002,0,-2.2635,-3.5000,-0.0010,-2.2635,-3.5000,-0.0010,-19.7983,32.4881,0.0200,0.0000
-6.7207,35.9169,-1.9272,0.0829,-0.0821,0.1200,0.0000,0.0000,0.0000,0.1191,-0.3096,-0.0039,996,1502,1500,1500,2008,1000,1505,1000,1000,1505,1005,1000,1014,-0.0888,-0.1753,0.1860,-0.0246,-0.0065,1.0020,0.4248,0.1944,-0.4327,-0.1866,0.8627,0.2400,0.1321,0.8627,0.2400,0.1321,0.3000,0.0600,0.0002,0,-2.2635,-3.5000,-0.0010,-2.2635,-3.5000,-0.0010,-19.7691,32.4629,0.0200,0.0000
-6.7102,35.8759,-1.9195,-0.0000,-0.0821,0.1200,0.0000,0.0000,0.0000,0.1190,-0.3093,-0.0037,996,1502,1500,1500,2008,1000,1505,1000,1000,1505,1005,1000,1014,-0.0466,-0.1582,0.1281,-0.0251,-0.0055,1.0052,0.4246,0.1940,-0.4319,-0.1867,0.8627,0.2400,0.1321,0.8627,0.2400,0.1321,0.3000,0.0600,0.0002,0,-2.2635,-3.5000,-0.0010,-2.2635,-3.5000,-0.0010,-19.7398,32.4386,0.0200,0.0000
-6.7001,35.8358,-1.9118,0.0829,-0.0821,0.2400,0.0600,0.3200,0.0000,0.1200,-0.3085,-0.0018,997,1503,1500,1500,2008,1000,1505,1000,1000,1505,1005,1000,1014,-0.0831,-0.0882,0.1266,-0.0230,-0.0033,1.0058,0.4267,0.1903,-0.4303,-0.1868,0.8627,0.2400,0.1321,0.8627,0.2400,0.1321,0.3000,0.0600,0.0002,0,-2.2635,-3.5000,-0.0010,-2.2635,-3.5000,-0.0010,-19.7106,32.4133,0.0400,0.0100
-6.6905,35.7967,-1.9046,0.0829,-0.0821,0.1200,0.0000,0.0000,0.0000,0.1189,-0.3089,-0.0037,996,1502,1500,1500,2008,1000,1505,1000,1000,1505,1005,1000,1014,-0.1139,0.0257,0.1477,-0.0204,-0.0013,1.0052,0.4240,0.1937,-0.4315,-0.1862,0.8627,0.2400,0.1321,0.8627,0.2400,0.1321,0.3000,0.0600,0.0002,0,-2.2635,-3.5000,-0.0010,-2.2635,-3.5000,-0.0010,-19.6812,32.3877,0.0200,0.0000
-6.6807,35.7571,-1.8972,0.0829,-0.0821,0.1200,0.0000,0.0000,0.0000,0.1188,-0.3084,-0.0037,996,1502,1500,1500,2008,1000,1505,1000,1000,1505,1005,1000,1014,-0.0749,-0.0306,0.1283,-0.0214,-0.0016,1.0086,0.4235,0.1933,-0.4309,-0.1860,0.8627,0.2400,0.1321,0.8627,0.2400,0.1321,0.3000,0.0600,0.0002,0,-2.2635,-3.5000,-0.0010,-2.2635,-3.5000,-0.0010,-19.6515,32.3621,0.0200,0.0000
-6.6701,35.7173,-1.8895,-0.0000,-0.1642,0.1200,0.0000,0.0000,0.0000,0.1186,-0.3081,-0.0037,996,1502,1500,1500,2008,1000,1505,1000,1000,1505,1005,1000,1014,-0.0046,-0.0394,0.1437,-0.0217,0.0001,1.0048,0.4229,0.1932,-0.4304,-0.1858,0.8627,0.2400,0.1321,0.8627,0.2400,0.1321,0.3000,0.0600,0.0002,0,-2.2635,-3.5000,-0.0010,-2.2635,-3.5000,-0.0010,-19.6223,32.3366,0.0200,0.0000
-6.6588,35.6771,-1.8817,-0.0000,-0.1642,0.1200,0.0000,0.0000,0.0000,0.1184,-0.3077,-0.0037,996,1502,1500,1500,2008,1000,1505,1000,1000,1505,1005,1000,1014,0.0642,-0.0727,0.1442,-0.0201,-0.0028,1.0039,0.4224,0.1930,-0.4298,-0.1856,0.8627,0.2400,0.1321,0.8627,0.2400,0.1321,0.3000,0.0600,0.0002,0,-2.2635,-3.5000,-0.0010,-2.2635,-3.5000,-0.0010,-19.5929,32.3113,0.0200,0.0000
-6.6473,35.6363,-1.8744,0.0829,0.0000,0.1200,0.0000,0.0000,0.0000,0.1183,-0.3073,-0.0036,996,1502,1500,1500,2008,1000,1505,1000,1000,1505,1005,1000,1014,0.0934,-0.1360,0.0955,-0.0209,-0.0026,1.0056,0.4219,0.1926,-0.4291,-0.1854,0.8627,0.2400,0.1321,0.8627,0.2400,0.1321,0.3000,0.0600,0.0002,0,-2.2635,-3.5000,-0.0010,-2.2635,-3.5000,-0.0010,-19.5640,32.2857,0.0200,0.0000
-6.6360,35.5962,-1.8678,0.0829,-0.0821,0.2400,0.0600,0.3200,0.0000,0.1192,-0.3065,-0.0015,997,1503,1500,1500,2008,1000,1505,1000,1000,1505,1005,1000,1014,0.0737,-0.0908,0.0348,-0.0204,-0.0009,1.0041,0.4242,0.1887,-0.4272,-0.1857,0.8627,0.2400,0.1321,0.8627,0.2400,0.1321,0.3000,0.0600,0.0002,0,-2.2635,-3.5000,-0.0010,-2.2635,-3.5000,-0.0010,-19.5354,32.2603,0.0400,0.0100
-6.6255,35.5560,-1.8612,-0.0000,-0.0821,0.1200,0.0000,0.0000,0.0000,0.1182,-0.3067,-0.0034,996,1502,1500,1500,2008,1000,1505,1000,1000,1505,1005,1000,1014,-0.0132,-0.0649,0.0570,-0.0256,-0.0043,1.0027,0.4215,0.1919,-0.4283,-0.1850,0.8627,0.2400,0.1321,0.8627,0.2400,0.1321,0.3000,0.0600,0.0002,0,-2.2635,-3.5000,-0.0010,-2.2635,-3.5000,-0.0010,-19.5071,32.2338,0.0200,0.0000
-6.6164,35.5153,-1.8553,0.0829,-0.0821,0.1200,0.0000,0.0000,0.0000,0.1183,-0.3062,-0.0034,996,1502,1500,1500,2008,1000,1505,1000,1000,1505,1005,1000,1014,-0.1408,-0.1309,0.0518,-0.0212,-0.0027,1.0029,0.4211,0.1913,-0.4279,-0.1845,0.8627,0.2400,0.1321,0.8627,0.2400,0.1321,0.3000,0.0600,0.0002,0,-2.2635,-3.5000,-0.0010,-2.2635,-3.5000,-0.0010,-19.4788,32.2077,0.0200,0.0000
-6.6077,35.4745,-1.8493,-0.0000,0.0000,0.1200,0.0000,0.0000,0.0000,0.1181,-0.3060,-0.0034,996,1502,1500,1500,2008,1000,1505,1000,1000,1505,1005,1000,1014,-0.0676,-0.0581,0.0329,-0.0239,-0.0070,1.0036,0.4207,0.1912,-0.4275,-0.1844,0.8627,0.2400,0.1321,0.8627,0.2400,0.1321,0.3000,0.0600,0.0002,0,-2.2635,-3.5000,-0.0010,-2.2635,-3.5000,-0.0010,-19.4503,32.1819,0.0200,0.0000
-6.5987,35.4344,-1.8432,0.1657,0.0000,0.1200,0.0000,0.0000,0.0000,0.1181,-0.3056,-0.0033,996,1502,1500,1500,2008,1000,1505,1000,1000,1505,1005,1000,1014,-0.0743,-0.0949,-0.0071,-0.0215,-0.0017,1.0059,0.4204,0.1908,-0.4269,-0.1842,0.8627,0.2400,0.1321,0.8627,0.2400,0.1321,0.3000,0.0600,0.0002,0,-2.2635,-3.5000,-0.0010,-2.2635,-3.5000,-0.0010,-19.4217,32.1562,0.0200,0.0000
-6.5892,35.3942,-1.8368,0.0829,0.0000,0.1200,0.0000,0.0000,0.0000,0.1180,-0.3054,-0.0035,996,1502,1500,1500,2008,1000,1505,1000,1000,1505,1005,1000,1014,-0.0847,0.0450,0.0465,-0.0206,-0.0037,1.0073,0.4199,0.1909,-0.4269,-0.1839,0.8627,0.2400,0.1321,0.8627,0.2400,0.1321,0.3000,0.0600,0.0002,0,-2.2635,-3.5000,-0.0010,-2.2635,-3.5000,-0.0010,-19.3932,32.1308,0.0200,0.0000
-6.5792,35.3550,-1.8302,-0.0829,-0.0821,0.2400,0.0600,0.3200,0.0000,0.1188,-0.3045,-0.0014,997,1503,1500,1500,2008,1000,1505,1000,1000,1505,1005,1000,1014,0.0416,0.0189,0.0209,-0.0202,-0.0012,1.0025,0.4219,0.1872,-0.4247,-0.1843,0.8627,0.2400,0.1321,0.8627,0.2400,0.1321,0.3000,0.0600,0.0002,0,-2.2635,-3.5000,-0.0010,-2.2635,-3.5000,-0.0010,-19.3650,32.1057,0.0400,0.0100
-6.5680,35.3154,-1.8231,0.0829,0.0821,0.1200,0.0000,0.0000,0.0000,0.1176,-0.3046,-0.0038,996,1502,1500,1500,2008,1000,1505,1000,1000,1505,1005,1000,1014,0.0573,-0.0546,0.1434,-0.0223,-0.0020,1.0035,0.4185,0.1907,-0.4260,-0.1832,0.8627,0.2400,0.1321,0.8627,0.2400,0.1321,0.3000,0.0600,0.0002,0,-2.2635,-3.5000,-0.0010,-2.2635,-3.5000,-0.0010,-19.3362,32.0799,0.0200,0.0000
-6.5570,35.2756,-1.8162,-0.0829,-0.2462,0.1200,0.0000,0.0000,0.0000,0.1175,-0.3043,-0.0036,996,1502,1500,1500,2008,1000,1505,1000,1000,1505,1005,1000,1014,0.0689,-0.0422,0.0796,-0.0228,-0.0036,1.0022,0.4182,0.1903,-0.4253,-0.1832,0.8627,0.2400,0.1321,0.8627,0.2400,0.1321,0.3000,0.0600,0.0002,0,-2.2635,-3.5000,-0.0010,-2.2635,-3.5000,-0.0010,-19.3072,32.0542,0.0200,0.0000
-6.5463,35.2356,-1.8091,0.0829,0.0000,0.1200,0.0000,0.0000,0.0000,0.1175,-0.3040,-0.0037,996,1502,1500,1500,2008,1000,1505,1000,1000,1505,1005,1000,1014,-0.0164,-0.0187,0.1327,-0.0214,-0.0041,1.0035,0.4178,0.1901,-0.4252,-0.1828,0.8627,0.2400,0.1321,0.8627,0.2400,0.1321,0.3000,0.0600,0.0002,0,-2.2635,-3.5000,-0.0010,-2.2635,-3.5000,-0.0010,-19.2782,32.0282,0.0200,0.0000
-6.5367,35.1958,-1.8019,-0.0000,0.0000,0.1200,0.0000,0.0000,0.0000,0.1176,-0.3036,-0.0037,996,1502,1500,1500,2008,1000,1505,1000,1000,1505,1005,1000,1014,-0.1122,-0.0203,0.1291,-0.0228,-0.0026,1.0100,0.4175,0.1897,-0.4249,-0.1823,0.8627,0.2400,0.1321,0.8627,0.2400,0.1321,0.3000,0.0600,0.0002,0,-2.2635,-3.5000,-0.0010,-2.2635,-3.5000,-0.0010,-19.2496,32.0026,0.0200,0.0000
-6.5276,35.1556,-1.7948,0.0829,0.0000,0.1200,0.0000,0.0000,0.0000,0.1175,-0.3031,-0.0036,996,1502,1500,1500,2008,1000,1505,1000,1000,1505,1005,1000,1014,-0.1359,-0.1125,0.0811,-0.0256,-0.0011,1.0066,0.4171,0.1892,-0.4242,-0.1821,0.8627,0.2400,0.1321,0.8627,0.2400,0.1321,0.3000,0.0600,0.0002,0,-2.2635,-3.5000,-0.0010,-2.2635,-3.5000,-0.0010,-19.2215,31.9769,0.0200,0.0000
-6.5181,35.1153,-1.7879,-0.0000,0.0000,0.2400,0.0600,0.3200,0.0000,0.1184,-0.3024,-0.0017,997,1503,1500,1500,2008,1000,1505,1000,1000,1505,1005,1000,1014,-0.0675,-0.0362,0.1267,-0.0210,-0.0025,1.0038,0.4190,0.1857,-0.4225,-0.1822,0.8627,0.2400,0.1321,0.8627,0.2400,0.1321,0.3000,0.0600,0.0002,0,-2.2635,-3.5000,-0.0010,-2.2635,-3.5000,-0.0010,-19.1926,31.9513,0.0400,0.0100
-6.5078,35.0751,-1.7804,0.0829,-0.0821,0.1200,0.0000,0.0000,0.0000,0.1172,-0.3025,-0.0038,996,1502,1500,1500,2008,1000,1505,1000,1000,1505,1005,1000,1014,-0.0199,-0.0580,0.1618,-0.0234,-0.0014,1.0066,0.4159,0.1891,-0.4235,-0.1815,0.8627,0.2400,0.1321,0.8627,0.2400,0.1321,0.3000,0.0600,0.0002,0,-2.2635,-3.5000,-0.0010,-2.2635,-3.5000,-0.0010,-19.1637,31.9257,0.0200,0.0000
-6.4965,35.0349,-1.7727,0.0829,-0.0821,0.1200,0.0000,0.0000,0.0000,0.1170,-0.3021,-0.0036,996,1502,1500,1500,2008,1000,1505,1000,1000,1505,1005,1000,1014,0.0322,-0.0787,0.1230,-0.0234,-0.0015,1.0090,0.4155,0.1887,-0.4228,-0.1815,0.8627,0.2400,0.1321,0.8627,0.2400,0.1321,0.3000,0.0600,0.0002,0,-2.2635,-3.5000,-0.0010,-2.2635,-3.5000,-0.0010,-19.1344,31.9002,0.0200,0.0000
-6.4855,34.9946,-1.7655,0.0829,0.0821,0.1200,0.0000,0.0000,0.0000,0.1169,-0.3019,-0.0038,996,1502,1500,1500,2008,1000,1505,1000,1000,1505,1005,1000,1014,0.0360,-0.0071,0.1397,-0.0249,0.0002,1.0011,0.4151,0.1887,-0.4226,-0.1812,0.8627,0.2400,0.1321,0.8627,0.2400,0.1321,0.3000,0.0600,0.0002,0,-2.2635,-3.5000,-0.0010,-2.2635,-3.5000,-0.0010,-19.1048,31.8739,0.0200,0.0000
-6.4744,34.9552,-1.7579,0.0829,-0.0821,0.1200,0.0000,0.0000,0.0000,0.1169,-0.3016,-0.0038,996,1502,1500,1500,2008,1000,1505,1000,1000,1505,1005,1000,1014,0.0156,0.0443,0.1640,-0.0216,-0.0033,1.0043,0.4147,0.1885,-0.4223,-0.1810,0.8627,0.2400,0.1321,0.8627,0.2400,0.1321,0.3000,0.0600,0.0002,0,-2.2635,-3.5000,-0.0010,-2.2635,-3.5000,-0.0010,-19.0757,31.8477,0.0200,0.0000
-6.4637,34.9152,-1.7505,0.0829,0.0000,0.1200,0.0000,0.0000,0.0000,0.1169,-0.3011,-0.0037,996,1502,1500,1500,2008,1000,1505,1000,1000,1505,1005,1000,1014,-0.0453,-0.0836,0.1295,-0.0222,-0.0033,1.0003,0.4143,0.1879,-0.4216,-0.1806,0.8627,0.2400,0.1321,0.8627,0.2400,0.1321,0.3000,0.0600,0.0002,0,-2.2635,-3.5000,-0.0010,-2.2635,-3.5000,-0.0010,-19.0472,31.8221,0.0200,0.0000
-6.4539,34.8751,-1.7433,0.0829,0.0000,0.2400,0.0600,0.3200,0.0000,0.1179,-0.3003,-0.0019,997,1503,1500,1500,2008,1000,1505,1000,1000,1505,1005,1000,1014,-0.1037,-0.0171,0.1704,-0.0236,-0.0029,1.0033,0.4163,0.1844,-0.4202,-0.1805,0.8627,0.2400,0.1321,0.8627,0.2400,0.1321,0.3000,0.0600,0.0002,0,-2.2635,-3.5000,-0.0010,-2.2635,-3.5000,-0.0010,-19.0187,31.7961,0.0400,0.0100
-6.4447,34.8345,-1.7364,0.0829,0.0000,0.1200,0.0000,0.0000,0.0000,0.1168,-0.3004,-0.0036,996,1502,1500,1500,2008,1000,1505,1000,1000,1505,1005,1000,1014,-0.1172,-0.1049,0.0942,-0.0224,-0.0050,1.0055,0.4136,0.1872,-0.4207,-0.1800,0.8627,0.2400,0.1321,0.8627,0.2400,0.1321,0.3000,0.0600,0.0002,0,-2.2635,-3.5000,-0.0010,-2.2635,-3.5000,-0.0010,-18.9900,31.7702,0.0200,0.0000
-6.4354,34.7942,-1.7297,-0.0000,-0.0821,0.1200,0.0000,0.0000,0.0000,0.1167,-0.3001,-0.0035,996,1502,1500,1500,2008,1000,1505,1000,1000,1505,1005,1000,1014,-0.0954,-0.0694,0.0657,-0.0218,-0.0018,1.0061,0.4133,0.1869,-0.4202,-0.1799,0.8627,0.2400,0.1321,0.8627,0.2400,0.1321,0.3000,0.0600,0.0002,0,-2.2635,-3.5000,-0.0010,-2.2635,-3.5000,-0.0010,-18.9610,31.7442,0.0200,0.0000
-6.4253,34.7537,-1.7228,-0.0829,0.0000,0.1200,0.0000,0.0000,0.0000,0.1165,-0.2997,-0.0038,996,1502,1500,1500,2008,1000,1505,1000,1000,1505,1005,1000,1014,-0.0089,-0.0905,0.1379,-0.0234,-0.0022,1.0079,0.4124,0.1870,-0.4199,-0.1795,0.8627,0.2400,0.1321,0.8627,0.2400,0.1321,0.3000,0.0600,0.0002,0,-2.2635,-3.5000,-0.0010,-2.2635,-3.5000,-0.0010,-18.9325,31.7180,0.0200,0.0000
-6.4146,34.7126,-1.7153,0.0829,-0.0821,0.1200,0.0000,0.0000,0.0000,0.1164,-0.2993,-0.0036,996,1502,1500,1500,2008,1000,1505,1000,1000,1505,1005,1000,1014,0.0013,-0.1289,0.1207,-0.0252,-0.0014,1.0009,0.4120,0.1866,-0.4193,-0.1793,0.8627,0.2400,0.1321,0.8627,0.2400,0.1321,0.3000,0.0600,0.0002,0,-2.2635,-3.5000,-0.0010,-2.2635,-3.5000,-0.0010,-18.9043,31.6921,0.0200,0.0000
-6.4039,34.6721,-1.7085,0.0829,0.0000,0.1200,0.0000,0.0000,0.0000,0.1162,-0.2991,-0.0034,996,1502,1500,1500,2008,1000,1505,1000,1000,1505,1005,1000,1014,0.0594,-0.0090,0.0445,-0.0232,-0.0040,1.0053,0.4119,0.1863,-0.4187,-0.1795,0.8627,0.2400,0.1321,0.8627,0.2400,0.1321,0.3000,0.0600,0.0002,0,-2.2635,-3.5000,-0.0010,-2.2635,-3.5000,-0.0010,-18.8756,31.6661,0.0200,0.0000
-6.3928,34.6316,-1.7019,0.0829,-0.0821,0.2400,0.0600,0.3200,0.0000,0.1172,-0.2982,-0.0015,997,1503,1500,1500,2008,1000,1505,1000,1000,1505,1005,1000,1014,0.0283,-0.0750,0.0514,-0.0284,-0.0032,1.0038,0.4138,0.1825,-0.4169,-0.1794,0.8627,0.2400,0.1321,0.8627,0.2400,0.1321,0.3000,0.0600,0.0002,0,-2.2635,-3.5000,-0.0010,-2.2635,-3.5000,-0.0010,-18.8477,31.6400,0.0400,0.0100
-6.3830,34.5917,-1.6960,-0.0000,-0.0821,0.1200,0.0000,0.0000,0.0000,0.1161,-0.2985,-0.0034,996,1502,1500,1500,2008,1000,1505,1000,1000,1505,1005,1000,1014,-0.0302,0.0604,0.0237,-0.0259,-0.0034,1.0030,0.4113,0.1857,-0.4180,-0.1790,0.8627,0.2400,0.1321,0.8627,0.2400,0.1321,0.3000,0.0600,0.0002,0,-2.2635,-3.5000,-0.0010,-2.2635,-3.5000,-0.0010,-18.8197,31.6139,0.0200,0.0000
-6.3730,34.5518,-1.6902,-0.0000,0.0000,0.1200,0.0000,0.0000,0.0000,0.1160,-0.2981,-0.0035,996,1502,1500,1500,2008,1000,1505,1000,1000,1505,1005,1000,1014,0.0232,0.0134,0.0380,-0.0211,-0.0043,1.0065,0.4106,0.1856,-0.4176,-0.1786,0.8627,0.2400,0.1321,0.8627,0.2400,0.1321,0.3000,0.0600,0.0002,0,-2.2635,-3.5000,-0.0010,-2.2635,-3.5000,-0.0010,-18.7914,31.5876,0.0200,0.0000
-6.3634,34.5123,-1.6839,-0.0829,-0.0821,0.1200,0.0000,0.0000,0.0000,0.1160,-0.2978,-0.0034,996,1502,1500,1500,2008,1000,1505,1000,1000,1505,1005,1000,1014,-0.0586,0.0327,0.0193,-0.0212,-0.0033,1.0043,0.4104,0.1851,-0.4172,-0.1784,0.8627,0.2400,0.1321,0.8627,0.2400,0.1321,0.3000,0.0600,0.0002,0,-2.2635,-3.5000,-0.0010,-2.2635,-3.5000,-0.0010,-18.7634,31.5605,0.0200,0.0000
-6.3542,34.4721,-1.6776,0.0829,-0.1642,0.1200,0.0000,0.0000,0.0000,0.1159,-0.2972,-0.0034,996,1502,1500,1500,2008,1000,1505,1000,1000,1505,1005,1000,1014,-0.0723,-0.1299,0.0444,-0.0195,-0.0019,1.0061,0.4097,0.1847,-0.4166,-0.1779,0.8627,0.2400,0.1321,0.8627,0.2400,0.1321,0.3000,0.0600,0.0002,0,-2.2635,-3.5000,-0.0010,-2.2635,-3.5000,-0.0010,-18.7349,31.5346,0.0200,0.0000
-6.3445,34.4310,-1.6716,-0.0829,-0.1642,0.1200,0.0000,0.0000,0.0000,0.1158,-0.2969,-0.0035,996,1502,1500,1500,2008,1000,1505,1000,1000,1505,1005,1000,1014,-0.0293,-0.1318,0.0696,-0.0228,-0.0006,1.0008,0.4091,0.1846,-0.4162,-0.1775,0.8627,0.2400,0.1321,0.8627,0.2400,0.1321,0.3000,0.0600,0.0002,0,-2.2635,-3.5000,-0.0010,-2.2635,-3.5000,-0.0010,-18.7064,31.5085,0.0200,0.0000
-6.3347,34.3899,-1.6646,0.0829,0.0000,0.2400,0.0600,0.3200,0.0000,0.1168,-0.2959,-0.0018,997,1503,1500,1500,2008,1000,1505,1000,1000,1505,1005,1000,1014,-0.0787,-0.1633,0.1214,-0.0240,-0.0015,1.0049,0.4110,0.1809,-0.4145,-0.1774,0.8627,0.2400,0.1321,0.8627,0.2400,0.1321,0.3000,0.0600,0.0002,0,-2.2635,-3.5000,-0.0010,-2.2635,-3.5000,-0.0010,-18.6784,31.4823,0.0400,0.0100
-6.3245,34.3484,-1.6576,0.0829,-0.0821,0.1200,0.0000,0.0000,0.0000,0.1156,-0.2962,-0.0039,996,1502,1500,1500,2008,1000,1505,1000,1000,1505,1005,1000,1014,0.0227,-0.1230,0.1672,-0.0224,-0.0019,1.0075,0.4079,0.1845,-0.4156,-0.1767,0.8627,0.2400,0.1321,0.8627,0.2400,0.1321,0.3000,0.0600,0.0002,0,-2.2635,-3.5000,-0.0010,-2.2635,-3.5000,-0.0010,-18.6495,31.4561,0.0200,0.0000
-6.3137,34.3068,-1.6501,-0.0000,0.0000,0.1200,0.0000,0.0000,0.0000,0.1155,-0.2958,-0.0037,996,1502,1500,1500,2008,1000,1505,1000,1000,1505,1005,1000,1014,0.0191,-0.1124,0.1342,-0.0265,-0.0031,1.0059,0.4076,0.1841,-0.4150,-0.1766,0.8627,0.2400,0.1321,0.8627,0.2400,0.1321,0.3000,0.0600,0.0002,0,-2.2635,-3.5000,-0.0010,-2.2635,-3.5000,-0.0010,-18.6205,31.4305,0.0200,0.0000
-6.3031,34.2663,-1.6428,0.0829,-0.0821,0.1200,0.0000,0.0000,0.0000,0.1154,-0.2956,-0.0038,996,1502,1500,1500,2008,1000,1505,1000,1000,1505,1005,1000,1014,-0.0151,-0.0228,0.1621,-0.0219,-0.0047,0.9992,0.4072,0.1840,-0.4149,-0.1763,0.8627,0.2400,0.1321,0.8627,0.2400,0.1321,0.3000,0.0600,0.0002,0,-2.2635,-3.5000,-0.0010,-2.2635,-3.5000,-0.0010,-18.5917,31.4045,0.0200,0.0000
-6.2925,34.2263,-1.6354,0.0829,-0.0821,0.1200,0.0000,0.0000,0.0000,0.1153,-0.2952,-0.0038,996,1502,1500,1500,2008,1000,1505,1000,1000,1505,1005,1000,1014,-0.0224,-0.0263,0.1428,-0.0227,-0.0010,1.0048,0.4068,0.1837,-0.4144,-0.1761,0.8627,0.2400,0.1321,0.8627,0.2400,0.1321,0.3000,0.0600,0.0002,0,-2.2635,-3.5000,-0.0010,-2.2635,-3.5000,-0.0010,-18.5628,31.3782,0.0200,0.0000
-6.2821,34.1862,-1.6280,-0.0000,-0.0821,0.1200,0.0000,0.0000,0.0000,0.1153,-0.2949,-0.0039,996,1502,1500,1500,2008,1000,1505,1000,1000,1505,1005,1000,1014,-0.0672,-0.0086,0.2127,-0.0246,-0.0062,1.0111,0.4063,0.1835,-0.4142,-0.1756,0.8627,0.2400,0.1321,0.8627,0.2400,0.1321,0.3000,0.0600,0.0002,0,-2.2635,-3.5000,-0.0010,-2.2635,-3.5000,-0.0010,-18.5340,31.3518,0.0200,0.0000
-6.2720,34.1469,-1.6206,-0.0000,-0.0821,0.2400,0.0600,0.3200,0.0000,0.1162,-0.2941,-0.0019,997,1503,1500,1500,2008,1000,1505,1000,1000,1505,1005,1000,1014,-0.0521,0.0115,0.1535,-0.0205,-0.0037,1.0050,0.4085,0.1797,-0.4122,-0.1760,0.8627,0.2400,0.1321,0.8627,0.2400,0.1321,0.3000,0.0600,0.0002,0,-2.2635,-3.5000,-0.0010,-2.2635,-3.5000,-0.0010,-18.5050,31.3252,0.0400,0.0100
-6.2619,34.1063,-1.6137,0.0829,-0.0821,0.1200,0.0000,0.0000,0.0000,0.1151,-0.2941,-0.0037,996,1502,1500,1500,2008,1000,1505,1000,1000,1505,1005,1000,1014,-0.0576,-0.1067,0.1276,-0.0216,-0.0047,1.0063,0.4055,0.1827,-0.4129,-0.1752,0.8627,0.2400,0.1321,0.8627,0.2400,0.1321,0.3000,0.0600,0.0002,0,-2.2635,-3.5000,-0.0010,-2.2635,-3.5000,-0.0010,-18.4764,31.2989,0.0200,0.0000
-6.2522,34.0648,-1.6068,0.0829,0.0000,0.1200,0.0000,0.0000,0.0000,0.1150,-0.2937,-0.0037,996,1502,1500,1500,2008,1000,1505,1000,1000,1505,1005,1000,1014,-0.0433,-0.1369,0.1261,-0.0236,-0.0001,1.0066,0.4050,0.1824,-0.4124,-0.1750,0.8627,0.2400,0.1321,0.8627,0.2400,0.1321,0.3000,0.0600,0.0002,0,-2.2635,-3.5000,-0.0010,-2.2635,-3.5000,-0.0010,-18.4477,31.2729,0.0200,0.0000
-6.2416,34.0228,-1.5996,0.0829,0.0821,0.1200,0.0000,0.0000,0.0000,0.1149,-0.2933,-0.0038,996,1502,1500,1500,2008,1000,1505,1000,1000,1505,1005,1000,1014,0.0059,-0.1775,0.1459,-0.0246,-0.0007,1.0037,0.4043,0.1822,-0.4120,-0.1746,0.8627,0.2400,0.1321,0.8627,0.2400,0.1321,0.3000,0.0600,0.0002,0,-2.2635,-3.5000,-0.0010,-2.2635,-3.5000,-0.0010,-18.4198,31.2468,0.0200,0.0000
-6.2316,33.9816,-1.5925,-0.0000,-0.0821,0.1200,0.0000,0.0000,0.0000,0.1149,-0.2931,-0.0036,996,1502,1500,1500,2008,1000,1505,1000,1000,1505,1005,1000,1014,-0.0534,-0.0704,0.1057,-0.0239,-0.0013,1.0000,0.4043,0.1818,-0.4116,-0.1746,0.8627,0.2400,0.1321,0.8627,0.2400,0.1321,0.3000,0.0600,0.0002,0,-2.2635,-3.5000,-0.0010,-2.2635,-3.5000,-0.0010,-18.3917,31.2204,0.0200,0.0000
-6.2214,33.9408,-1.5853,0.0829,0.0000,0.1200,0.0000,0.0000,0.0000,0.1148,-0.2927,-0.0035,996,1502,1500,1500,2008,1000,1505,1000,1000,1505,1005,1000,1014,-0.0647,-0.0778,0.0699,-0.0240,-0.0021,0.9965,0.4040,0.1814,-0.4110,-0.1744,0.8627,0.2400,0.1321,0.8627,0.2400,0.1321,0.3000,0.0600,0.0002,0,-2.2635,-3.5000,-0.0010,-2.2635,-3.5000,-0.0010,-18.3633,31.1937,0.0200,0.0000
-6.2115,33.9000,-1.5786,-0.0000,-0.0821,0.2400,0.0600,0.3200,0.0000,0.1156,-0.2919,-0.0018,997,1503,1500,1500,2008,1000,1505,1000,1000,1505,1005,1000,1014,0.0058,-0.0531,0.1352,-0.0219,-0.0014,1.0048,0.4057,0.1781,-0.4094,-0.1744,0.8627,0.2400,0.1321,0.8627,0.2400,0.1321,0.3000,0.0600,0.0002,0,-2.2635,-3.5000,-0.0010,-2.2635,-3.5000,-0.0010,-18.3351,31.1675,0.0400,0.0100
-6.2012,33.8600,-1.5717,-0.0000,-0.0821,0.1200,0.0000,0.0000,0.0000,0.1146,-0.2921,-0.0034,996,1502,1500,1500,2008,1000,1505,1000,1000,1505,1005,1000,1014,-0.0382,0.0188,0.0571,-0.0215,-0.0045,1.0043,0.4033,0.1810,-0.4102,-0.1741,0.8627,0.2400,0.1321,0.8627,0.2400,0.1321,0.3000,0.0600,0.0002,0,-2.2635,-3.5000,-0.0010,-2.2635,-3.5000,-0.0010,-18.3062,31.1412,0.0200,0.0000
-6.1914,33.8201,-1.5648,0.0829,-0.0821,0.1200,0.0000,0.0000,0.0000,0.1145,-0.2917,-0.0038,996,1502,1500,1500,2008,1000,1505,1000,1000,1505,1005,1000,1014,-0.0509,-0.0596,0.1649,-0.0208,-0.0016,0.9970,0.4024,0.1810,-0.4100,-0.1734,0.8627,0.2400,0.1321,0.8627,0.2400,0.1321,0.3000,0.0600,0.0002,0,-2.2635,-3.5000,-0.0010,-2.2635,-3.5000,-0.0010,-18.2776,31.1144,0.0200,0.0000
-6.1810,33.7792,-1.5574,0.0829,0.0000,0.1200,0.0000,0.0000,0.0000,0.1144,-0.2913,-0.0037,996,1502,1500,1500,2008,1000,1505,1000,1000,1505,1005,1000,1014,-0.0626,-0.0769,0.1118,-0.0184,-0.0001,1.0039,0.4021,0.1805,-0.4094,-0.1732,0.8627,0.2400,0.1321,0.8627,0.2400,0.1321,0.3000,0.0600,0.0002,0,-2.2635,-3.5000,-0.0010,-2.2635,-3.5000,-0.0010,-18.2493,31.0880,0.0200,0.0000
-6.1711,33.7385,-1.5508,-0.1657,-0.3283,0.1200,0.0000,0.0000,0.0000,0.1143,-0.2911,-0.0036,996,1502,1500,1500,2008,1000,1505,1000,1000,1505,1005,1000,1014,-0.0114,0.0329,0.0923,-0.0221,-0.0032,1.0066,0.4018,0.1804,-0.4090,-0.1732,0.8627,0.2400,0.1321,0.8627,0.2400,0.1321,0.3000,0.0600,0.0002,0,-2.2635,-3.5000,-0.0010,-2.2635,-3.5000,-0.0010,-18.2208,31.0607,0.0200,0.0000
-6.1614,33.6981,-1.5447,-0.0000,-0.0821,0.1200,0.0000,0.0000,0.0000,0.1142,-0.2906,-0.0035,996,1502,1500,1500,2008,1000,1505,1000,1000,1505,1005,1000,1014,-0.0459,-0.0896,0.0477,-0.0198,-0.0012,1.0064,0.4013,0.1799,-0.4084,-0.1728,0.8627,0.2400,0.1321,0.8627,0.2400,0.1321,0.3000,0.0600,0.0002,0,-2.2635,-3.5000,-0.0010,-2.2635,-3.5000,-0.0010,-18.1926,31.0341,0.0200,0.0000
-6.1521,33.6563,-1.5386,-0.0829,-0.2462,0.2400,0.0600,0.3200,0.0000,0.1153,-0.2897,-0.0015,997,1503,1500,1500,2008,1000,1505,1000,1000,1505,1005,1000,1014,-0.0819,-0.0707,0.0506,-0.0199,-0.0019,1.0024,0.4035,0.1760,-0.4065,-0.1730,0.8627,0.2400,0.1321,0.8627,0.2400,0.1321,0.3000,0.0600,0.0002,0,-2.2635,-3.5000,-0.0010,-2.2635,-3.5000,-0.0010,-18.1643,31.0077,0.0400,0.0100
-6.1429,33.6155,-1.5324,0.0829,0.0000,0.1200,0.0000,0.0000,0.0000,0.1141,-0.2899,-0.0034,996,1502,1500,1500,2008,1000,1505,1000,1000,1505,1005,1000,1014,-0.0872,-0.0488,0.0392,-0.0200,-0.0011,1.0043,0.4007,0.1792,-0.4075,-0.1724,0.8627,0.2400,0.1321,0.8627,0.2400,0.1321,0.3000,0.0600,0.0002,0,-2.2635,-3.5000,-0.0010,-2.2635,-3.5000,-0.0010,-18.1359,30.9812,0.0200,0.0000
-6.1339,33.5749,-1.5264,0.0829,-0.0821,0.1200,0.0000,0.0000,0.0000,0.1140,-0.2897,-0.0035,996,1502,1500,1500,2008,1000,1505,1000,1000,1505,1005,1000,1014,-0.0693,0.0159,0.0478,-0.0208,-0.0019,1.0014,0.4002,0.1791,-0.4072,-0.1721,0.8627,0.2400,0.1321,0.8627,0.2400,0.1321,0.3000,0.0600,0.0002,0,-2.2635,-3.5000,-0.0010,-2.2635,-3.5000,-0.0010,-18.1081,30.9551,0.0200,0.0000
-6.1245,33.5349,-1.5205,0.0829,-0.0821,0.1200,0.0000,0.0000,0.0000,0.1140,-0.2893,-0.0034,996,1502,1500,1500,2008,1000,1505,1000,1000,1505,1005,1000,1014,-0.0601,0.0218,0.0057,-0.0231,-0.0022,1.0053,0.3999,0.1788,-0.4067,-0.1720,0.8627,0.2400,0.1321,0.8627,0.2400,0.1321,0.3000,0.0600,0.0002,0,-2.2635,-3.5000,-0.0010,-2.2635,-3.5000,-0.0010,-18.0805,30.9286,0.0200,0.0000
-6.1147,33.4948,-1.5143,-0.0000,0.0000,0.1200,0.0000,0.0000,0.0000,0.1138,-0.2890,-0.0036,996,1502,1500,1500,2008,1000,1505,1000,1000,1505,1005,1000,1014,-0.0378,0.0153,0.0834,-0.0234,0.0001,1.0039,0.3992,0.1787,-0.4064,-0.1716,0.8627,0.2400,0.1321,0.8627,0.2400,0.1321,0.3000,0.0600,0.0002,0,-2.2635,-3.5000,-0.0010,-2.2635,-3.5000,-0.0010,-18.0521,30.9022,0.0200,0.0000
-6.1045,33.4542,-1.5074,0.0829,-0.0821,0.1200,0.0000,0.0000,0.0000,0.1137,-0.2885,-0.0038,996,1502,1500,1500,2008,1000,1505,1000,1000,1505,1005,1000,1014,-0.0076,-0.0878,0.1373,-0.0214,-0.0012,1.0033,0.3984,0.1785,-0.4060,-0.1710,0.8627,0.2400,0.1321,0.8627,0.2400,0.1321,0.3000,0.0600,0.0002,0,-2.2635,-3.5000,-0.0010,-2.2635,-3.5000,-0.0010,-18.0236,30.8753,0.0200,0.0000
-6.0940,33.4129,-1.5003,0.0829,0.0000,0.2400,0.0600,0.3200,0.0000,0.1146,-0.2876,-0.0018,997,1503,1500,1500,2008,1000,1505,1000,1000,1505,1005,1000,1014,0.0448,-0.0886,0.1643,-0.0195,-0.0027,1.0053,0.4004,0.1749,-0.4040,-0.1712,0.8627,0.2400,0.1321,0.8627,0.2400,0.1321,0.3000,0.0600,0.0002,0,-2.2635,-3.5000,-0.0010,-2.2635,-3.5000,-0.0010,-17.9957,30.8493,0.0400,0.0100
-6.0837,33.3716,-1.4935,-0.0000,0.0000,0.1200,0.0000,0.0000,0.0000,0.1135,-0.2878,-0.0038,996,1502,1500,1500,2008,1000,1505,1000,1000,1505,1005,1000,1014,-0.0142,-0.0664,0.1488,-0.0208,-0.0041,1.0061,0.3975,0.1781,-0.4051,-0.1705,0.8627,0.2400,0.1321,0.8627,0.2400,0.1321,0.3000,0.0600,0.0002,0,-2.2635,-3.5000,-0.0010,-2.2635,-3.5000,-0.0010,-17.9683,30.8222,0.0200,0.0000
-6.0738,33.3311,-1.4864,0.0829,0.0000,0.1200,0.0000,0.0000,0.0000,0.1134,-0.2875,-0.0038,996,1502,1500,1500,2008,1000,1505,1000,1000,1505,1005,1000,1014,-0.0078,-0.0697,0.1579,-0.0220,-0.0054,1.0053,0.3971,0.1778,-0.4047,-0.1702,0.8627,0.2400,0.1321,0.8627,0.2400,0.1321,0.3000,0.0600,0.0002,0,-2.2635,-3.5000,-0.0010,-2.2635,-3.5000,-0.0010,-17.9396,30.7955,0.0200,0.0000
-6.0635,33.2898,-1.4791,0.0829,-0.0821,0.1200,0.0000,0.0000,0.0000,0.1134,-0.2871,-0.0038,996,1502,1500,1500,2008,1000,1505,1000,1000,1505,1005,1000,1014,-0.0216,-0.0743,0.1547,-0.0259,-0.0051,1.0045,0.3966,0.1775,-0.4043,-0.1699,0.8627,0.2400,0.1321,0.8627,0.2400,0.1321,0.3000,0.0600,0.0002,0,-2.2635,-3.5000,-0.0010,-2.2635,-3.5000,-0.0010,-17.9107,30.7682,0.0200,0.0000
-6.0529,33.2488,-1.4710,0.0829,-0.0821,0.1200,0.0000,0.0000,0.0000,0.1133,-0.2867,-0.0039,996,1502,1500,1500,2008,1000,1505,1000,1000,1505,1005,1000,1014,-0.0616,-0.0968,0.1903,-0.0260,-0.0044,0.9999,0.3961,0.1773,-0.4040,-0.1695,0.8627,0.2400,0.1321,0.8627,0.2400,0.1321,0.3000,0.0600,0.0002,0,-2.2635,-3.5000,-0.0010,-2.2635,-3.5000,-0.0010,-17.8819,30.7412,0.0200,0.0000
-6.0431,33.2074,-1.4638,0.0829,0.0000,0.1200,0.0000,0.0000,0.0000,0.1132,-0.2864,-0.0036,996,1502,1500,1500,2008,1000,1505,1000,1000,1505,1005,1000,1014,-0.0607,-0.0417,0.0842,-0.0254,-0.0038,1.0023,0.3961,0.1768,-0.4033,-0.1696,0.8627,0.2400,0.1321,0.8627,0.2400,0.1321,0.3000,0.0600,0.0002,0,-2.2635,-3.5000,-0.0010,-2.2635,-3.5000,-0.0010,-17.8531,30.7147,0.0200,0.0000
-6.0326,33.1666,-1.4564,0.0829,-0.0821,0.2400,0.0600,0.3200,0.0000,0.1141,-0.2856,-0.0020,997,1503,1500,1500,2008,1000,1505,1000,1000,1505,1005,1000,1014,0.0206,-0.0436,0.1958,-0.0228,-0.0010,1.0043,0.3976,0.1735,-0.4017,-0.1694,0.8627,0.2400,0.1321,0.8627,0.2400,0.1321,0.3000,0.0600,0.0002,0,-2.2635,-3.5000,-0.0010,-2.2635,-3.5000,-0.0010,-17.8246,30.6881,0.0400,0.0100
-6.0223,33.1265,-1.4491,-0.0000,-0.0821,0.1200,0.0000,0.0000,0.0000,0.1130,-0.2858,-0.0039,996,1502,1500,1500,2008,1000,1505,1000,1000,1505,1005,1000,1014,-0.0320,0.0304,0.1803,-0.0194,-0.0022,1.0025,0.3949,0.1767,-0.4028,-0.1689,0.8627,0.2400,0.1321,0.8627,0.2400,0.1321,0.3000,0.0600,0.0002,0,-2.2635,-3.5000,-0.0010,-2.2635,-3.5000,-0.0010,-17.7963,30.6614,0.0200,0.0000
-6.0121,33.0861,-1.4418,0.0829,0.0000,0.1200,0.0000,0.0000,0.0000,0.1130,-0.2854,-0.0035,996,1502,1500,1500,2008,1000,1505,1000,1000,1505,1005,1000,1014,-0.0408,-0.0402,0.0832,-0.0210,-0.0022,1.0005,0.3949,0.1759,-0.4018,-0.1689,0.8627,0.2400,0.1321,0.8627,0.2400,0.1321,0.3000,0.0600,0.0002,0,-2.2635,-3.5000,-0.0010,-2.2635,-3.5000,-0.0010,-17.7677,30.6344,0.0200,0.0000
-6.0028,33.0452,-1.4356,-0.0000,-0.0821,0.1200,0.0000,0.0000,0.0000,0.1129,-0.2850,-0.0036,996,1502,1500,1500,2008,1000,1505,1000,1000,1505,1005,1000,1014,-0.0505,-0.0426,0.0892,-0.0189,-0.0045,1.0031,0.3943,0.1758,-0.4015,-0.1685,0.8627,0.2400,0.1321,0.8627,0.2400,0.1321,0.3000,0.0600,0.0002,0,-2.2635,-3.5000,-0.0010,-2.2635,-3.5000,-0.0010,-17.7394,30.6079,0.0200,0.0000
-5.9933,33.0042,-1.4291,0.0829,0.0000,0.1200,0.0000,0.0000,0.0000,0.1128,-0.2847,-0.0036,996,1502,1500,1500,2008,1000,1505,1000,1000,1505,1005,1000,1014,-0.0080,-0.0289,0.0776,-0.0197,-0.0008,1.0014,0.3938,0.1755,-0.4010,-0.1683,0.8627,0.2400,0.1321,0.8627,0.2400,0.1321,0.3000,0.0600,0.0002,0,-2.2635,-3.5000,-0.0010,-2.2635,-3.5000,-0.0010,-17.7120,30.5815,0.0200,0.0000
-5.9830,32.9631,-1.4219,-0.0829,-0.0821,0.1200,0.0000,0.0000,0.0000,0.1127,-0.2842,-0.0037,996,1502,1500,1500,2008,1000,1505,1000,1000,1505,1005,1000,1014,-0.0031,-0.0939,0.1303,-0.0216,-0.0011,1.0005,0.3932,0.1753,-0.4006,-0.1679,0.8627,0.2400,0.1321,0.8627,0.2400,0.1321,0.3000,0.0600,0.0002,0,-2.2635,-3.5000,-0.0010,-2.2635,-3.5000,-0.0010,-17.6843,30.5542,0.0200,0.0000
-5.9727,32.9213,-1.4152,0.0829,-0.0821,0.2400,0.0600,0.3200,0.0000,0.1136,-0.2833,-0.0016,997,1503,1500,1500,2008,1000,1505,1000,1000,1505,1005,1000,1014,-0.0143,-0.1528,0.0548,-0.0229,-0.0008,1.0043,0.3953,0.1713,-0.3985,-0.1681,0.8627,0.2400,0.1321,0.8627,0.2400,0.1321,0.3000,0.0600,0.0002,0,-2.2635,-3.5000,-0.0010,-2.2635,-3.5000,-0.0010,-17.6566,30.5276,0.0400,0.0100
-5.9627,32.8788,-1.4094,-0.0829,-0.2462,0.1200,0.0000,0.0000,0.0000,0.1125,-0.2834,-0.0035,996,1502,1500,1500,2008,1000,1505,1000,1000,1505,1005,1000,1014,0.0165,-0.1892,0.0355,-0.0245,-0.0039,1.0043,0.3924,0.1744,-0.3993,-0.1675,0.8627,0.2400,0.1321,0.8627,0.2400,0.1321,0.3000,0.0600,0.0002,0,-2.2635,-3.5000,-0.0010,-2.2635,-3.5000,-0.0010,-17.6284,30.5008,0.0200,0.0000
-5.9529,32.8369,-1.4033,0.0829,0.0000,0.1200,0.0000,0.0000,0.0000,0.1124,-0.2832,-0.0036,996,1502,1500,1500,2008,1000,1505,1000,1000,1505,1005,1000,1014,-0.0360,-0.0973,0.0593,-0.0227,-0.0026,1.0025,0.3920,0.1743,-0.3992,-0.1672,0.8627,0.2400,0.1321,0.8627,0.2400,0.1321,0.3000,0.0600,0.0002,0,-2.2635,-3.5000,-0.0010,-2.2635,-3.5000,-0.0010,-17.5999,30.4737,0.0200,0.0000
-5.9431,32.7961,-1.3974,0.0829,-0.0821,0.1200,0.0000,0.0000,0.0000,0.1123,-0.2829,-0.0036,996,1502,1500,1500,2008,1000,1505,1000,1000,1505,1005,1000,1014,0.0200,-0.0261,0.0613,-0.0247,-0.0016,1.0003,0.3916,0.1742,-0.3987,-0.1671,0.8627,0.2400,0.1321,0.8627,0.2400,0.1321,0.3000,0.0600,0.0002,0,-2.2635,-3.5000,-0.0010,-2.2635,-3.5000,-0.0010,-17.5722,30.4467,0.0200,0.0000
-5.9337,32.7560,-1.3917,-0.0000,0.0000,0.1200,0.0000,0.0000,0.0000,0.1123,-0.2827,-0.0036,996,1502,1500,1500,2008,1000,1505,1000,1000,1505,1005,1000,1014,-0.0386,0.0705,0.0688,-0.0202,-0.0054,1.0036,0.3914,0.1740,-0.3985,-0.1668,0.8627,0.2400,0.1321,0.8627,0.2400,0.1321,0.3000,0.0600,0.0002,0,-2.2635,-3.5000,-0.0010,-2.2635,-3.5000,-0.0010,-17.5444,30.4201,0.0200,0.0000
-5.9243,32.7164,-1.3855,-0.0000,0.0000,0.1200,0.0000,0.0000,0.0000,0.1123,-0.2825,-0.0037,996,1502,1500,1500,2008,1000,1505,1000,1000,1505,1005,1000,1014,-0.0903,0.1601,0.1399,-0.0223,-0.0004,1.0043,0.3910,0.1739,-0.3985,-0.1665,0.8627,0.2400,0.1321,0.8627,0.2400,0.1321,0.3000,0.0600,0.0002,0,-2.2635,-3.5000,-0.0010,-2.2635,-3.5000,-0.0010,-17.5161,30.3927,0.0200,0.0000
-5.9154,32.6765,-1.3798,0.0829,-0.0821,0.2400,0.0600,0.3200,0.0000,0.1132,-0.2814,-0.0015,997,1503,1500,1500,2008,1000,1505,1000,1000,1505,1005,1000,1014,-0.0737,-0.0177,0.0321,-0.0189,-0.0001,1.0015,0.3930,0.1697,-0.3961,-0.1666,0.8627,0.2400,0.1321,0.8627,0.2400,0.1321,0.3000,0.0600,0.0002,0,-2.2635,-3.5000,-0.0010,-2.2635,-3.5000,-0.0010,-17.4878,30.3659,0.0400,0.0100
-5.9060,32.6359,-1.3739,0.1657,0.0000,0.1200,0.0000,0.0000,0.0000,0.1120,-0.2816,-0.0035,996,1502,1500,1500,2008,1000,1505,1000,1000,1505,1005,1000,1014,-0.0183,0.0101,0.0612,-0.0227,-0.0047,1.0010,0.3901,0.1730,-0.3971,-0.1661,0.8627,0.2400,0.1321,0.8627,0.2400,0.1321,0.3000,0.0600,0.0002,0,-2.2635,-3.5000,-0.0010,-2.2635,-3.5000,-0.0010,-17.4598,30.3388,0.0200,0.0000
-5.8963,32.5946,-1.3681,0.0829,0.0000,0.1200,0.0000,0.0000,0.0000,0.1119,-0.2811,-0.0036,996,1502,1500,1500,2008,1000,1505,1000,1000,1505,1005,1000,1014,0.0281,-0.0712,0.0771,-0.0189,-0.0010,1.0017,0.3893,0.1729,-0.3966,-0.1656,0.8627,0.2400,0.1321,0.8627,0.2400,0.1321,0.3000,0.0600,0.0002,0,-2.2635,-3.5000,-0.0010,-2.2635,-3.5000,-0.0010,-17.4311,30.3118,0.0200,0.0000
-5.8860,32.5535,-1.3619,0.0829,0.0000,0.1200,0.0000,0.0000,0.0000,0.1117,-0.2808,-0.0036,996,1502,1500,1500,2008,1000,1505,1000,1000,1505,1005,1000,1014,0.0526,-0.0657,0.0929,-0.0214,-0.0079,1.0055,0.3889,0.1726,-0.3961,-0.1654,0.8627,0.2400,0.1321,0.8627,0.2400,0.1321,0.3000,0.0600,0.0002,0,-2.2635,-3.5000,-0.0010,-2.2635,-3.5000,-0.0010,-17.4028,30.2852,0.0200,0.0000
-5.8764,32.5116,-1.3558,0.0829,0.0000,0.1200,0.0000,0.0000,0.0000,0.1118,-0.2803,-0.0037,996,1502,1500,1500,2008,1000,1505,1000,1000,1505,1005,1000,1014,-0.0337,-0.1502,0.1163,-0.0220,-0.0064,1.0048,0.3883,0.1722,-0.3958,-0.1648,0.8627,0.2400,0.1321,0.8627,0.2400,0.1321,0.3000,0.0600,0.0002,0,-2.2635,-3.5000,-0.0010,-2.2635,-3.5000,-0.0010,-17.3753,30.2584,0.0200,0.0000
-5.8671,32.4701,-1.3496,0.0829,0.0000,0.1200,0.0000,0.0000,0.0000,0.1118,-0.2800,-0.0037,996,1502,1500,1500,2008,1000,1505,1000,1000,1505,1005,1000,1014,-0.1008,-0.1077,0.1048,-0.0256,-0.0030,1.0018,0.3881,0.1719,-0.3955,-0.1645,0.8627,0.2400,0.1321,0.8627,0.2400,0.1321,0.3000,0.0600,0.0002,0,-2.2635,-3.5000,-0.0010,-2.2635,-3.5000,-0.0010,-17.3472,30.2312,0.0200,0.0000
-5.8584,32.4289,-1.3433,-0.0000,-0.0821,0.2400,0.0600,0.3200,0.0000,0.1128,-0.2792,-0.0017,997,1503,1500,1500,2008,1000,1505,1000,1000,1505,1005,1000,1014,-0.1145,-0.0466,0.1080,-0.0245,-0.0017,1.0006,0.3902,0.1681,-0.3937,-0.1647,0.8627,0.2400,0.1321,0.8627,0.2400,0.1321,0.3000,0.0600,0.0002,0,-2.2635,-3.5000,-0.0010,-2.2635,-3.5000,-0.0010,-17.3188,30.2036,0.0400,0.0100
-5.8491,32.3878,-1.3368,-0.0000,0.0000,0.1200,0.0000,0.0000,0.0000,0.1116,-0.2794,-0.0037,996,1502,1500,1500,2008,1000,1505,1000,1000,1505,1005,1000,1014,-0.0471,-0.0197,0.1077,-0.0222,-0.0050,1.0059,0.3873,0.1715,-0.3946,-0.1641,0.8627,0.2400,0.1321,0.8627,0.2400,0.1321,0.3000,0.0600,0.0002,0,-2.2635,-3.5000,-0.0010,-2.2635,-3.5000,-0.0010,-17.2910,30.1762,0.0200,0.0000
-5.8392,32.3472,-1.3297,0.0829,0.0000,0.1200,0.0000,0.0000,0.0000,0.1114,-0.2791,-0.0037,996,1502,1500,1500,2008,1000,1505,1000,1000,1505,1005,1000,1014,0.0108,0.0503,0.1131,-0.0251,-0.0016,1.0045,0.3869,0.1714,-0.3942,-0.1641,0.8627,0.2400,0.1321,0.8627,0.2400,0.1321,0.3000,0.0600,0.0002,0,-2.2635,-3.5000,-0.0010,-2.2635,-3.5000,-0.0010,-17.2624,30.1491,0.0200,0.0000
-5.8292,32.3061,-1.3237,0.0829,0.0000,0.1200,0.0000,0.0000,0.0000,0.1113,-0.2786,-0.0036,996,1502,1500,1500,2008,1000,1505,1000,1000,1505,1005,1000,1014,0.0217,-0.0860,0.0656,-0.0201,-0.0046,1.0043,0.3863,0.1709,-0.3935,-0.1637,0.8627,0.2400,0.1321,0.8627,0.2400,0.1321,0.3000,0.0600,0.0002,0,-2.2635,-3.5000,-0.0010,-2.2635,-3.5000,-0.0010,-17.2339,30.1221,0.0200,0.0000
-5.8185,32.2648,-1.3170,0.0829,-0.0821,0.1200,0.0000,0.0000,0.0000,0.1112,-0.2783,-0.0040,996,1502,1500,1500,2008,1000,1505,1000,1000,1505,1005,1000,1014,0.0532,-0.0569,0.1873,-0.0208,-0.0035,1.0062,0.3855,0.1711,-0.3934,-0.1632,0.8627,0.2400,0.1321,0.8627,0.2400,0.1321,0.3000,0.0600,0.0002,0,-2.2635,-3.5000,-0.0010,-2.2635,-3.5000,-0.0010,-17.2058,30.0951,0.0200,0.0000
-5.8076,32.2231,-1.3097,-0.0000,0.0000,0.1200,0.0000,0.0000,0.0000,0.1111,-0.2778,-0.0040,996,1502,1500,1500,2008,1000,1505,1000,1000,1505,1005,1000,1014,-0.0002,-0.1168,0.2049,-0.0196,-0.0029,1.0019,0.3850,0.1707,-0.3929,-0.1627,0.8627,0.2400,0.1321,0.8627,0.2400,0.1321,0.3000,0.0600,0.0002,0,-2.2635,-3.5000,-0.0010,-2.2635,-3.5000,-0.0010,-17.1784,30.0678,0.0200,0.0000
-5.7972,32.1816,-1.3028,0.1657,0.0821,0.2400,0.0600,0.3200,0.0000,0.1121,-0.2770,-0.0018,997,1503,1500,1500,2008,1000,1505,1000,1000,1505,1005,1000,1014,-0.0074,-0.0595,0.1165,-0.0243,-0.0069,1.0005,0.3873,0.1667,-0.3909,-0.1632,0.8627,0.2400,0.1321,0.8627,0.2400,0.1321,0.3000,0.0600,0.0002,0,-2.2635,-3.5000,-0.0010,-2.2635,-3.5000,-0.0010,-17.1505,30.0401,0.0400,0.0100
-5.7876,32.1399,-1.2964,0.0829,-0.0821,0.1200,0.0000,0.0000,0.0000,0.1111,-0.2771,-0.0037,996,1502,1500,1500,2008,1000,1505,1000,1000,1505,1005,1000,1014,-0.0808,-0.1071,0.1343,-0.0242,-0.0027,1.0021,0.3845,0.1698,-0.3919,-0.1623,0.8627,0.2400,0.1321,0.8627,0.2400,0.1321,0.3000,0.0600,0.0002,0,-2.2635,-3.5000,-0.0010,-2.2635,-3.5000,-0.0010,-17.1226,30.0128,0.0200,0.0000
-5.7791,32.0987,-1.2903,-0.0000,-0.2462,0.1200,0.0000,0.0000,0.0000,0.1111,-0.2769,-0.0036,996,1502,1500,1500,2008,1000,1505,1000,1000,1505,1005,1000,1014,-0.1591,-0.0422,0.0855,-0.0212,-0.0027,1.0028,0.3844,0.1693,-0.3916,-0.1622,0.8627,0.2400,0.1321,0.8627,0.2400,0.1321,0.3000,0.0600,0.0002,0,-2.2635,-3.5000,-0.0010,-2.2635,-3.5000,-0.0010,-17.0945,29.9852,0.0200,0.0000
-5.7705,32.0574,-1.2845,-0.0000,0.0000,0.1200,0.0000,0.0000,0.0000,0.1109,-0.2766,-0.0035,996,1502,1500,1500,2008,1000,1505,1000,1000,1505,1005,1000,1014,-0.0827,-0.0057,0.0581,-0.0223,-0.0022,1.0000,0.3839,0.1692,-0.3910,-0.1621,0.8627,0.2400,0.1321,0.8627,0.2400,0.1321,0.3000,0.0600,0.0002,0,-2.2635,-3.5000,-0.0010,-2.2635,-3.5000,-0.0010,-17.0669,29.9581,0.0200,0.0000
-5.7617,32.0168,-1.2786,-0.0829,-0.2462,0.1200,0.0000,0.0000,0.0000,0.1108,-0.2763,-0.0036,996,1502,1500,1500,2008,1000,1505,1000,1000,1505,1005,1000,1014,-0.0415,0.0403,0.0774,-0.0186,-0.0008,1.0051,0.3835,0.1690,-0.3906,-0.1619,0.8627,0.2400,0.1321,0.8627,0.2400,0.1321,0.3000,0.0600,0.0002,0,-2.2635,-3.5000,-0.0010,-2.2635,-3.5000,-0.0010,-17.0396,29.9304,0.0200,0.0000
-5.7522,31.9759,-1.2732,0.0829,0.0000,0.1200,0.0000,0.0000,0.0000,0.1107,-0.2758,-0.0035,996,1502,1500,1500,2008,1000,1505,1000,1000,1505,1005,1000,1014,-0.0157,-0.0561,0.0332,-0.0198,-0.0001,1.0066,0.3830,0.1686,-0.3899,-0.1616,0.8627,0.2400,0.1321,0.8627,0.2400,0.1321,0.3000,0.0600,0.0002,0,-2.2635,-3.5000,-0.0010,-2.2635,-3.5000,-0.0010,-17.0119,29.9028,0.0200,0.0000
-5.7426,31.9344,-1.2676,0.0829,-0.0821,0.2400,0.0600,0.3200,0.0000,0.1116,-0.2750,-0.0016,997,1503,1500,1500,2008,1000,1505,1000,1000,1505,1005,1000,1014,0.0148,-0.0068,0.0497,-0.0217,-0.0010,1.0081,0.3850,0.1650,-0.3882,-0.1618,0.8627,0.2400,0.1321,0.8627,0.2400,0.1321,0.3000,0.0600,0.0002,0,-2.2635,-3.5000,-0.0010,-2.2635,-3.5000,-0.0010,-16.9852,29.8749,0.0400,0.0100
-5.7322,31.8928,-1.2617,-0.0000,-0.0821,0.1200,0.0000,0.0000,0.0000,0.1104,-0.2750,-0.0036,996,1502,1500,1500,2008,1000,1505,1000,1000,1505,1005,1000,1014,0.0393,-0.1228,0.0802,-0.0205,-0.0053,1.0035,0.3818,0.1681,-0.3890,-0.1610,0.8627,0.2400,0.1321,0.8627,0.2400,0.1321,0.3000,0.0600,0.0002,0,-2.2635,-3.5000,-0.0010,-2.2635,-3.5000,-0.0010,-16.9574,29.8478,0.0200,0.0000
-5.7225,31.8506,-1.2559,0.0829,-0.0821,0.1200,0.0000,0.0000,0.0000,0.1104,-0.2746,-0.0037,996,1502,1500,1500,2008,1000,1505,1000,1000,1505,1005,1000,1014,-0.0236,-0.0988,0.1107,-0.0217,-0.0025,1.0034,0.3814,0.1679,-0.3888,-0.1605,0.8627,0.2400,0.1321,0.8627,0.2400,0.1321,0.3000,0.0600,0.0002,0,-2.2635,-3.5000,-0.0010,-2.2635,-3.5000,-0.0010,-16.9298,29.8199,0.0200,0.0000
-5.7136,31.8084,-1.2498,0.0829,0.0000,0.1200,0.0000,0.0000,0.0000,0.1105,-0.2743,-0.0039,996,1502,1500,1500,2008,1000,1505,1000,1000,1505,1005,1000,1014,-0.1272,-0.1217,0.1457,-0.0218,-0.0048,1.0029,0.3809,0.1676,-0.3886,-0.1599,0.8627,0.2400,0.1321,0.8627,0.2400,0.1321,0.3000,0.0600,0.0002,0,-2.2635,-3.5000,-0.0010,-2.2635,-3.5000,-0.0010,-16.9022,29.7923,0.0200,0.0000
-5.7046,31.7667,-1.2432,0.0829,-0.0821,0.1200,0.0000,0.0000,0.0000,0.1104,-0.2740,-0.0035,996,1502,1500,1500,2008,1000,1505,1000,1000,1505,1005,1000,1014,-0.0830,-0.0752,0.0615,-0.0215,-0.0034,1.0018,0.3808,0.1671,-0.3879,-0.1601,0.8627,0.2400,0.1321,0.8627,0.2400,0.1321,0.3000,0.0600,0.0002,0,-2.2635,-3.5000,-0.0010,-2.2635,-3.5000,-0.0010,-16.8745,29.7653,0.0200,0.0000
-5.6954,31.7250,-1.2368,0.0829,0.0000,0.1200,0.0000,0.0000,0.0000,0.1102,-0.2736,-0.0039,996,1502,1500,1500,2008,1000,1505,1000,1000,1505,1005,1000,1014,-0.0392,-0.0855,0.1601,-0.0242,-0.0009,1.0069,0.3799,0.1672,-0.3877,-0.1595,0.8627,0.2400,0.1321,0.8627,0.2400,0.1321,0.3000,0.0600,0.0002,0,-2.2635,-3.5000,-0.0010,-2.2635,-3.5000,-0.0010,-16.8466,29.7381,0.0200,0.0000
-5.6861,31.6834,-1.2303,0.0829,0.0000,0.2400,0.0600,0.3200,0.0000,0.1112,-0.2727,-0.0019,997,1503,1500,1500,2008,1000,1505,1000,1000,1505,1005,1000,1014,-0.0420,-0.0549,0.1536,-0.0198,-0.0042,1.0090,0.3820,0.1635,-0.3858,-0.1596,0.8627,0.2400,0.1321,0.8627,0.2400,0.1321,0.3000,0.0600,0.0002,0,-2.2635,-3.5000,-0.0010,-2.2635,-3.5000,-0.0010,-16.8185,29.7106,0.0400,0.0100
-5.6768,31.6420,-1.2239,0.0829,0.0000,0.1200,0.0000,0.0000,0.0000,0.1101,-0.2729,-0.0036,996,1502,1500,1500,2008,1000,1505,1000,1000,1505,1005,1000,1014,-0.0724,-0.0697,0.0923,-0.0210,-0.0030,1.0087,0.3794,0.1664,-0.3866,-0.1592,0.8627,0.2400,0.1321,0.8627,0.2400,0.1321,0.3000,0.0600,0.0002,0,-2.2635,-3.5000,-0.0010,-2.2635,-3.5000,-0.0010,-16.7910,29.6832,0.0200,0.0000
-5.6670,31.6014,-1.2176,0.0829,0.0000,0.1200,0.0000,0.0000,0.0000,0.1099,-0.2727,-0.0040,996,1502,1500,1500,2008,1000,1505,1000,1000,1505,1005,1000,1014,-0.0116,0.0701,0.1944,-0.0223,-0.0016,1.0018,0.3787,0.1668,-0.3867,-0.1588,0.8627,0.2400,0.1321,0.8627,0.2400,0.1321,0.3000,0.0600,0.0002,0,-2.2635,-3.5000,-0.0010,-2.2635,-3.5000,-0.0010,-16.7636,29.6558,0.0200,0.0000
-5.6569,31.5604,-1.2114,0.0829,0.0000,0.1200,0.0000,0.0000,0.0000,0.1098,-0.2721,-0.0035,996,1502,1500,1500,2008,1000,1505,1000,1000,1505,1005,1000,1014,0.0009,-0.0993,0.0458,-0.0245,-0.0047,1.0026,0.3785,0.1658,-0.3854,-0.1588,0.8627,0.2400,0.1321,0.8627,0.2400,0.1321,0.3000,0.0600,0.0002,0,-2.2635,-3.5000,-0.0010,-2.2635,-3.5000,-0.0010,-16.7356,29.6277,0.0200,0.0000
-5.6472,31.5186,-1.2059,0.0829,0.0000,0.1200,0.0000,0.0000,0.0000,0.1097,-0.2718,-0.0037,996,1502,1500,1500,2008,1000,1505,1000,1000,1505,1005,1000,1014,0.0137,-0.1057,0.1157,-0.0226,-0.0044,1.0085,0.3778,0.1657,-0.3852,-0.1583,0.8627,0.2400,0.1321,0.8627,0.2400,0.1321,0.3000,0.0600,0.0002,0,-2.2635,-3.5000,-0.0010,-2.2635,-3.5000,-0.0010,-16.7080,29.6000,0.0200,0.0000
-5.6377,31.4763,-1.1999,-0.0000,0.0000,0.1200,0.0000,0.0000,0.0000,0.1098,-0.2715,-0.0036,996,1502,1500,1500,2008,1000,1505,1000,1000,1505,1005,1000,1014,-0.0591,-0.0264,0.0797,-0.0218,-0.0055,1.0060,0.3777,0.1653,-0.3848,-0.1582,0.8627,0.2400,0.1321,0.8627,0.2400,0.1321,0.3000,0.0600,0.0002,0,-2.2635,-3.5000,-0.0010,-2.2635,-3.5000,-0.0010,-16.6799,29.5718,0.0200,0.0000
-5.6281,31.4346,-1.1937,0.0829,-0.0821,0.2400,0.0600,0.3200,0.0000,0.1107,-0.2705,-0.0017,997,1503,1500,1500,2008,1000,1505,1000,1000,1505,1005,1000,1014,-0.0312,-0.1318,0.1165,-0.0254,-0.0027,1.0041,0.3794,0.1616,-0.3829,-0.1581,0.8627,0.2400,0.1321,0.8627,0.2400,0.1321,0.3000,0.0600,0.0002,0,-2.2635,-3.5000,-0.0010,-2.2635,-3.5000,-0.0010,-16.6524,29.5444,0.0400,0.0100
-5.6189,31.3927,-1.1871,-0.0000,0.0000,0.1200,0.0000,0.0000,0.0000,0.1097,-0.2707,-0.0038,996,1502,1500,1500,2008,1000,1505,1000,1000,1505,1005,1000,1014,-0.1082,-0.0757,0.1438,-0.0227,-0.0029,1.0002,0.3766,0.1649,-0.3842,-0.1573,0.8627,0.2400,0.1321,0.8627,0.2400,0.1321,0.3000,0.0600,0.0002,0,-2.2635,-3.5000,-0.0010,-2.2635,-3.5000,-0.0010,-16.6242,29.5170,0.0200,0.0000
-5.6094,31.3505,-1.1801,0.0829,0.0000,0.1200,0.0000,0.0000,0.0000,0.1095,-0.2702,-0.0036,996,1502,1500,1500,2008,1000,1505,1000,1000,1505,1005,1000,1014,-0.0609,-0.1604,0.0756,-0.0253,-0.0003,1.0047,0.3762,0.1643,-0.3834,-0.1571,0.8627,0.2400,0.1321,0.8627,0.2400,0.1321,0.3000,0.0600,0.0002,0,-2.2635,-3.5000,-0.0010,-2.2635,-3.5000,-0.0010,-16.5965,29.4894,0.0200,0.0000
-5.6001,31.3088,-1.1738,-0.0000,-0.1642,0.1200,0.0000,0.0000,0.0000,0.1095,-0.2700,-0.0037,996,1502,1500,1500,2008,1000,1505,1000,1000,1505,1005,1000,1014,-0.0988,-0.0594,0.1038,-0.0230,-0.0048,1.0023,0.3758,0.1643,-0.3832,-0.1568,0.8627,0.2400,0.1321,0.8627,0.2400,0.1321,0.3000,0.0600,0.0002,0,-2.2635,-3.5000,-0.0010,-2.2635,-3.5000,-0.0010,-16.5692,29.4620,0.0200,0.0000
-5.5909,31.2673,-1.1679,0.0829,-0.0821,0.1200,0.0000,0.0000,0.0000,0.1093,-0.2697,-0.0036,996,1502,1500,1500,2008,1000,1505,1000,1000,1505,1005,1000,1014,-0.0360,-0.0236,0.0563,-0.0250,0.0006,1.0024,0.3754,0.1640,-0.3826,-0.1568,0.8627,0.2400,0.1321,0.8627,0.2400,0.1321,0.3000,0.0600,0.0002,0,-2.2635,-3.5000,-0.0010,-2.2635,-3.5000,-0.0010,-16.5409,29.4344,0.0200,0.0000
-5.5804,31.2259,-1.1614,-0.1657,-0.2462,0.1200,0.0000,0.0000,0.0000,0.1091,-0.2694,-0.0036,996,1502,1500,1500,2008,1000,1505,1000,1000,1505,1005,1000,1014,0.0378,0.0063,0.0880,-0.0173,-0.0004,1.0002,0.3749,0.1639,-0.3821,-0.1567,0.8627,0.2400,0.1321,0.8627,0.2400,0.1321,0.3000,0.0600,0.0002,0,-2.2635,-3.5000,-0.0010,-2.2635,-3.5000,-0.0010,-16.5131,29.4064,0.0200,0.0000
-5.5703,31.1856,-1.1554,0.0829,0.0000,0.2400,0.0600,0.3200,0.0000,0.1101,-0.2686,-0.0017,997,1503,1500,1500,2008,1000,1505,1000,1000,1505,1005,1000,1014,0.0293,0.0790,0.0889,-0.0184,-0.0035,1.0029,0.3770,0.1602,-0.3804,-0.1568,0.8627,0.2400,0.1321,0.8627,0.2400,0.1321,0.3000,0.0600,0.0002,0,-2.2635,-3.5000,-0.0010,-2.2635,-3.5000,-0.0010,-16.4856,29.3786,0.0400,0.0100
-5.5605,31.1446,-1.1498,-0.0000,-0.0821,0.1200,0.0000,0.0000,0.0000,0.1089,-0.2687,-0.0037,996,1502,1500,1500,2008,1000,1505,1000,1000,1505,1005,1000,1014,0.0434,-0.0035,0.1218,-0.0216,-0.0050,1.0047,0.3739,0.1635,-0.3814,-0.1560,0.8627,0.2400,0.1321,0.8627,0.2400,0.1321,0.3000,0.0600,0.0002,0,-2.2635,-3.5000,-0.0010,-2.2635,-3.5000,-0.0010,-16.4587,29.3504,0.0200,0.0000
-5.5509,31.1032,-1.1441,0.0829,0.0000,0.1200,0.0000,0.0000,0.0000,0.1089,-0.2682,-0.0036,996,1502,1500,1500,2008,1000,1505,1000,1000,1505,1005,1000,1014,-0.0071,-0.0663,0.0793,-0.0230,-0.0067,1.0047,0.3736,0.1629,-0.3808,-0.1557,0.8627,0.2400,0.1321,0.8627,0.2400,0.1321,0.3000,0.0600,0.0002,0,-2.2635,-3.5000,-0.0010,-2.2635,-3.5000,-0.0010,-16.4316,29.3217,0.0200,0.0000
-5.5412,31.0612,-1.1382,0.0829,0.0000,0.1200,0.0000,0.0000,0.0000,0.1088,-0.2678,-0.0037,996,1502,1500,1500,2008,1000,1505,1000,1000,1505,1005,1000,1014,-0.0053,-0.1042,0.1070,-0.0185,-0.0048,1.0021,0.3730,0.1627,-0.3804,-0.1553,0.8627,0.2400,0.1321,0.8627,0.2400,0.1321,0.3000,0.0600,0.0002,0,-2.2635,-3.5000,-0.0010,-2.2635,-3.5000,-0.0010,-16.4041,29.2932,0.0200,0.0000
-5.5325,31.0186,-1.1325,0.0829,-0.0821,0.1200,0.0000,0.0000,0.0000,0.1089,-0.2674,-0.0035,996,1502,1500,1500,2008,1000,1505,1000,1000,1505,1005,1000,1014,-0.1105,-0.1472,0.0485,-0.0201,-0.0024,1.0036,0.3728,0.1620,-0.3798,-0.1550,0.8627,0.2400,0.1321,0.8627,0.2400,0.1321,0.3000,0.0600,0.0002,0,-2.2635,-3.5000,-0.0010,-2.2635,-3.5000,-0.0010,-16.3772,29.2650,0.0200,0.0000
-5.5241,30.9763,-1.1272,-0.0000,-0.0821,0.1200,0.0000,0.0000,0.0000,0.1088,-0.2671,-0.0035,996,1502,1500,1500,2008,1000,1505,1000,1000,1505,1005,1000,1014,-0.0896,-0.1256,0.0570,-0.0239,-0.0020,1.0021,0.3723,0.1618,-0.3794,-0.1547,0.8627,0.2400,0.1321,0.8627,0.2400,0.1321,0.3000,0.0600,0.0002,0,-2.2635,-3.5000,-0.0010,-2.2635,-3.5000,-0.0010,-16.3496,29.2374,0.0200,0.0000
-5.5154,30.9339,-1.1216,0.0829,0.0000,0.2400,0.0600,0.3200,0.0000,0.1097,-0.2662,-0.0016,997,1503,1500,1500,2008,1000,1505,1000,1000,1505,1005,1000,1014,-0.0385,-0.1021,0.0575,-0.0258,0.0018,1.0009,0.3743,0.1581,-0.3775,-0.1549,0.8627,0.2400,0.1321,0.8627,0.2400,0.1321,0.3000,0.0600,0.0002,0,-2.2635,-3.5000,-0.0010,-2.2635,-3.5000,-0.0010,-16.3224,29.2096,0.0400,0.0100
-5.5059,30.8917,-1.1160,0.1657,0.0000,0.1200,0.0000,0.0000,0.0000,0.1086,-0.2664,-0.0036,996,1502,1500,1500,2008,1000,1505,1000,1000,1505,1005,1000,1014,-0.0311,-0.0891,0.0844,-0.0263,-0.0014,1.0076,0.3713,0.1614,-0.3786,-0.1542,0.8627,0.2400,0.1321,0.8627,0.2400,0.1321,0.3000,0.0600,0.0002,0,-2.2635,-3.5000,-0.0010,-2.2635,-3.5000,-0.0010,-16.2947,29.1825,0.0200,0.0000
-5.4953,30.8498,-1.1094,0.0829,0.0000,0.1200,0.0000,0.0000,0.0000,0.1084,-0.2661,-0.0038,996,1502,1500,1500,2008,1000,1505,1000,1000,1505,1005,1000,1014,0.0465,0.0045,0.1340,-0.0231,0.0008,1.0084,0.3707,0.1616,-0.3783,-0.1540,0.8627,0.2400,0.1321,0.8627,0.2400,0.1321,0.3000,0.0600,0.0002,0,-2.2635,-3.5000,-0.0010,-2.2635,-3.5000,-0.0010,-16.2671,29.1552,0.0200,0.0000
-5.4849,30.8085,-1.1033,0.1657,-0.0821,0.1200,0.0000,0.0000,0.0000,0.1082,-0.2658,-0.0035,996,1502,1500,1500,2008,1000,1505,1000,1000,1505,1005,1000,1014,0.0902,0.0376,0.0448,-0.0191,-0.0033,1.0042,0.3706,0.1611,-0.3776,-0.1541,0.8627,0.2400,0.1321,0.8627,0.2400,0.1321,0.3000,0.0600,0.0002,0,-2.2635,-3.5000,-0.0010,-2.2635,-3.5000,-0.0010,-16.2393,29.1282,0.0200,0.0000
-5.4746,30.7675,-1.0974,0.0829,-0.1642,0.1200,0.0000,0.0000,0.0000,0.1082,-0.2654,-0.0038,996,1502,1500,1500,2008,1000,1505,1000,1000,1505,1005,1000,1014,0.0528,-0.0317,0.1317,-0.0207,-0.0052,1.0052,0.3698,0.1610,-0.3774,-0.1534,0.8627,0.2400,0.1321,0.8627,0.2400,0.1321,0.3000,0.0600,0.0002,0,-2.2635,-3.5000,-0.0010,-2.2635,-3.5000,-0.0010,-16.2116,29.1001,0.0200,0.0000
-5.4646,30.7259,-1.0912,0.0829,0.0821,0.1200,0.0000,0.0000,0.0000,0.1082,-0.2650,-0.0038,996,1502,1500,1500,2008,1000,1505,1000,1000,1505,1005,1000,1014,-0.0267,-0.0625,0.1262,-0.0209,-0.0045,1.0052,0.3694,0.1605,-0.3770,-0.1530,0.8627,0.2400,0.1321,0.8627,0.2400,0.1321,0.3000,0.0600,0.0002,0,-2.2635,-3.5000,-0.0010,-2.2635,-3.5000,-0.0010,-16.1842,29.0714,0.0200,0.0000
-5.4560,30.6833,-1.0853,-0.0000,-0.0821,0.2400,0.0600,0.3200,0.0000,0.1093,-0.2640,-0.0019,997,1503,1500,1500,2008,1000,1505,1000,1000,1505,1005,1000,1014,-0.1022,-0.1092,0.1530,-0.0211,-0.0051,1.0054,0.3714,0.1567,-0.3752,-0.1528,0.8627,0.2400,0.1321,0.8627,0.2400,0.1321,0.3000,0.0600,0.0002,0,-2.2635,-3.5000,-0.0010,-2.2635,-3.5000,-0.0010,-16.1568,29.0431,0.0400,0.0100
-5.4478,30.6415,-1.0795,-0.0000,0.0000,0.1200,0.0000,0.0000,0.0000,0.1083,-0.2643,-0.0036,996,1502,1500,1500,2008,1000,1505,1000,1000,1505,1005,1000,1014,-0.1787,-0.0512,0.0932,-0.0209,-0.0018,1.0091,0.3689,0.1596,-0.3762,-0.1524,0.8627,0.2400,0.1321,0.8627,0.2400,0.1321,0.3000,0.0600,0.0002,0,-2.2635,-3.5000,-0.0010,-2.2635,-3.5000,-0.0010,-16.1297,29.0157,0.0200,0.0000
-5.4396,30.5995,-1.0735,0.0829,-0.0821,0.1200,0.0000,0.0000,0.0000,0.1081,-0.2638,-0.0038,996,1502,1500,1500,2008,1000,1505,1000,1000,1505,1005,1000,1014,-0.1071,-0.1169,0.1580,-0.0214,-0.0022,1.0042,0.3681,0.1595,-0.3758,-0.1519,0.8627,0.2400,0.1321,0.8627,0.2400,0.1321,0.3000,0.0600,0.0002,0,-2.2635,-3.5000,-0.0010,-2.2635,-3.5000,-0.0010,-16.1028,28.9882,0.0200,0.0000
-5.4298,30.5571,-1.0669,-0.0000,0.0000,0.1200,0.0000,0.0000,0.0000,0.1079,-0.2635,-0.0035,996,1502,1500,1500,2008,1000,1505,1000,1000,1505,1005,1000,1014,-0.0052,-0.0995,0.0517,-0.0251,-0.0008,1.0056,0.3679,0.1591,-0.3749,-0.1521,0.8627,0.2400,0.1321,0.8627,0.2400,0.1321,0.3000,0.0600,0.0002,0,-2.2635,-3.5000,-0.0010,-2.2635,-3.5000,-0.0010,-16.0756,28.9605,0.0200,0.0000
-5.4196,30.5153,-1.0603,-0.0000,-0.0821,0.1200,0.0000,0.0000,0.0000,0.1077,-0.2632,-0.0038,996,1502,1500,1500,2008,1000,1505,1000,1000,1505,1005,1000,1014,0.0360,-0.0225,0.1586,-0.0251,-0.0013,1.0024,0.3672,0.1593,-0.3748,-0.1517,0.8627,0.2400,0.1321,0.8627,0.2400,0.1321,0.3000,0.0600,0.0002,0,-2.2635,-3.5000,-0.0010,-2.2635,-3.5000,-0.0010,-16.0483,28.9325,0.0200,0.0000
-5.4094,30.4738,-1.0540,-0.0000,-0.0821,0.1200,0.0000,0.0000,0.0000,0.1076,-0.2629,-0.0038,996,1502,1500,1500,2008,1000,1505,1000,1000,1505,1005,1000,1014,0.0799,-0.0083,0.1460,-0.0232,-0.0028,1.0003,0.3667,0.1591,-0.3743,-0.1515,0.8627,0.2400,0.1321,0.8627,0.2400,0.1321,0.3000,0.0600,0.0002,0,-2.2635,-3.5000,-0.0010,-2.2635,-3.5000,-0.0010,-16.0204,28.9046,0.0200,0.0000
-5.3994,30.4326,-1.0478,-0.0000,-0.1642,0.2400,0.0600,0.3200,0.0000,0.1087,-0.2621,-0.0018,997,1503,1500,1500,2008,1000,1505,1000,1000,1505,1005,1000,1014,-0.0229,0.0424,0.1250,-0.0228,-0.0024,1.0031,0.3690,0.1552,-0.3726,-0.1516,0.8627,0.2400,0.1321,0.8627,0.2400,0.1321,0.3000,0.0600,0.0002,0,-2.2635,-3.5000,-0.0010,-2.2635,-3.5000,-0.0010,-15.9929,28.8771,0.0400,0.0100
-5.3901,30.3913,-1.0419,0.1657,0.0000,0.1200,0.0000,0.0000,0.0000,0.1076,-0.2622,-0.0037,996,1502,1500,1500,2008,1000,1505,1000,1000,1505,1005,1000,1014,-0.0576,0.0091,0.0977,-0.0217,-0.0032,1.0051,0.3661,0.1583,-0.3735,-0.1509,0.8627,0.2400,0.1321,0.8627,0.2400,0.1321,0.3000,0.0600,0.0002,0,-2.2635,-3.5000,-0.0010,-2.2635,-3.5000,-0.0010,-15.9657,28.8491,0.0200,0.0000
-5.3812,30.3497,-1.0364,-0.0829,-0.2462,0.1200,0.0000,0.0000,0.0000,0.1075,-0.2619,-0.0036,996,1502,1500,1500,2008,1000,1505,1000,1000,1505,1005,1000,1014,-0.0431,0.0254,0.0750,-0.0205,-0.0039,1.0036,0.3658,0.1580,-0.3730,-0.1507,0.8627,0.2400,0.1321,0.8627,0.2400,0.1321,0.3000,0.0600,0.0002,0,-2.2635,-3.5000,-0.0010,-2.2635,-3.5000,-0.0010,-15.9390,28.8206,0.0200,0.0000
-5.3720,30.3085,-1.0308,0.0829,-0.0821,0.1200,0.0000,0.0000,0.0000,0.1075,-0.2614,-0.0035,996,1502,1500,1500,2008,1000,1505,1000,1000,1505,1005,1000,1014,-0.0619,-0.0417,0.0737,-0.0212,-0.0045,1.0011,0.3653,0.1575,-0.3724,-0.1504,0.8627,0.2400,0.1321,0.8627,0.2400,0.1321,0.3000,0.0600,0.0002,0,-2.2635,-3.5000,-0.0010,-2.2635,-3.5000,-0.0010,-15.9119,28.7915,0.0200,0.0000
-5.3629,30.2673,-1.0251,-0.0000,0.0000,0.1200,0.0000,0.0000,0.0000,0.1074,-0.2611,-0.0035,996,1502,1500,1500,2008,1000,1505,1000,1000,1505,1005,1000,1014,-0.0372,-0.0161,0.0375,-0.0222,-0.0031,0.9994,0.3650,0.1572,-0.3719,-0.1503,0.8627,0.2400,0.1321,0.8627,0.2400,0.1321,0.3000,0.0600,0.0002,0,-2.2635,-3.5000,-0.0010,-2.2635,-3.5000,-0.0010,-15.8846,28.7630,0.0200,0.0000
-5.3541,30.2251,-1.0198,-0.0000,0.0000,0.1200,0.0000,0.0000,0.0000,0.1073,-0.2606,-0.0035,996,1502,1500,1500,2008,1000,1505,1000,1000,1505,1005,1000,1014,-0.0906,-0.1303,0.0553,-0.0221,-0.0027,1.0038,0.3644,0.1567,-0.3714,-0.1497,0.8627,0.2400,0.1321,0.8627,0.2400,0.1321,0.3000,0.0600,0.0002,0,-2.2635,-3.5000,-0.0010,-2.2635,-3.5000,-0.0010,-15.8573,28.7348,0.0200,0.0000
-5.3447,30.1820,-1.0134,0.0829,-0.0821,0.2400,0.0600,0.3200,0.0000,0.1082,-0.2596,-0.0020,997,1503,1500,1500,2008,1000,1505,1000,1000,1505,1005,1000,1014,-0.0184,-0.1815,0.2009,-0.0215,-0.0017,1.0017,0.3658,0.1535,-0.3699,-0.1494,0.8627,0.2400,0.1321,0.8627,0.2400,0.1321,0.3000,0.0600,0.0002,0,-2.2635,-3.5000,-0.0010,-2.2635,-3.5000,-0.0010,-15.8297,28.7066,0.0400,0.0100
-5.3347,30.1397,-1.0068,0.0829,-0.0821,0.1200,0.0000,0.0000,0.0000,0.1071,-0.2601,-0.0039,996,1502,1500,1500,2008,1000,1505,1000,1000,1505,1005,1000,1014,-0.0253,0.0302,0.1638,-0.0231,-0.0017,1.0029,0.3633,0.1569,-0.3710,-0.1491,0.8627,0.2400,0.1321,0.8627,0.2400,0.1321,0.3000,0.0600,0.0002,0,-2.2635,-3.5000,-0.0010,-2.2635,-3.5000,-0.0010,-15.8025,28.6791,0.0200,0.0000
-5.3246,30.0985,-1.0006,0.0829,0.0000,0.1200,0.0000,0.0000,0.0000,0.1069,-0.2596,-0.0039,996,1502,1500,1500,2008,1000,1505,1000,1000,1505,1005,1000,1014,0.0311,-0.0109,0.1550,-0.0225,-0.0044,1.0003,0.3627,0.1566,-0.3704,-0.1489,0.8627,0.2400,0.1321,0.8627,0.2400,0.1321,0.3000,0.0600,0.0002,0,-2.2635,-3.5000,-0.0010,-2.2635,-3.5000,-0.0010,-15.7758,28.6512,0.0200,0.0000
-5.3144,30.0573,-0.9944,0.0829,0.0000,0.1200,0.0000,0.0000,0.0000,0.1068,-0.2593,-0.0038,996,1502,1500,1500,2008,1000,1505,1000,1000,1505,1005,1000,1014,0.0624,0.0208,0.1374,-0.0220,-0.0020,1.0012,0.3623,0.1563,-0.3699,-0.1487,0.8627,0.2400,0.1321,0.8627,0.2400,0.1321,0.3000,0.0600,0.0002,0,-2.2635,-3.5000,-0.0010,-2.2635,-3.5000,-0.0010,-15.7486,28.6228,0.0200,0.0000
-5.3045,30.0162,-0.9887,0.0829,0.0000,0.1200,0.0000,0.0000,0.0000,0.1068,-0.2590,-0.0039,996,1502,1500,1500,2008,1000,1505,1000,1000,1505,1005,1000,1014,0.0175,0.0055,0.1396,-0.0209,-0.0021,1.0034,0.3619,0.1560,-0.3696,-0.1483,0.8627,0.2400,0.1321,0.8627,0.2400,0.1321,0.3000,0.0600,0.0002,0,-2.2635,-3.5000,-0.0010,-2.2635,-3.5000,-0.0010,-15.7212,28.5949,0.0200,0.0000
-5.2953,29.9748,-0.9824,0.0829,-0.0821,0.1200,0.0000,0.0000,0.0000,0.1068,-0.2585,-0.0038,996,1502,1500,1500,2008,1000,1505,1000,1000,1505,1005,1000,1014,-0.0790,-0.0555,0.1250,-0.0230,-0.0029,1.0059,0.3616,0.1554,-0.3691,-0.1479,0.8627,0.2400,0.1321,0.8627,0.2400,0.1321,0.3000,0.0600,0.0002,0,-2.2635,-3.5000,-0.0010,-2.2635,-3.5000,-0.0010,-15.6937,28.5677,0.0200,0.0000
-5.2860,29.9327,-0.9763,0.1657,-0.0821,0.2400,0.0600,0.3200,0.0000,0.1077,-0.2576,-0.0016,997,1503,1500,1500,2008,1000,1505,1000,1000,1505,1005,1000,1014,-0.0470,-0.1023,0.0674,-0.0215,-0.0029,1.0039,0.3637,0.1515,-0.3669,-0.1482,0.8627,0.2400,0.1321,0.8627,0.2400,0.1321,0.3000,0.0600,0.0002,0,-2.2635,-3.5000,-0.0010,-2.2635,-3.5000,-0.0010,-15.6664,28.5402,0.0400,0.0100
-5.2768,29.8901,-0.9704,0.0829,-0.0821,0.1200,0.0000,0.0000,0.0000,0.1065,-0.2578,-0.0036,996,1502,1500,1500,2008,1000,1505,1000,1000,1505,1005,1000,1014,0.0190,-0.0725,0.0884,-0.0232,-0.0035,1.0061,0.3607,0.1549,-0.3679,-0.1476,0.8627,0.2400,0.1321,0.8627,0.2400,0.1321,0.3000,0.0600,0.0002,0,-2.2635,-3.5000,-0.0010,-2.2635,-3.5000,-0.0010,-15.6388,28.5119,0.0200,0.0000
-5.2665,29.8479,-0.9642,-0.0000,-0.0821,0.1200,0.0000,0.0000,0.0000,0.1064,-0.2574,-0.0038,996,1502,1500,1500,2008,1000,1505,1000,1000,1505,1005,1000,1014,0.0264,-0.0667,0.1572,-0.0221,-0.0022,1.0030,0.3600,0.1548,-0.3677,-0.1472,0.8627,0.2400,0.1321,0.8627,0.2400,0.1321,0.3000,0.0600,0.0002,0,-2.2635,-3.5000,-0.0010,-2.2635,-3.5000,-0.0010,-15.6115,28.4833,0.0200,0.0000
-5.2564,29.8062,-0.9580,-0.0000,0.0821,0.1200,0.0000,0.0000,0.0000,0.1064,-0.2571,-0.0038,996,1502,1500,1500,2008,1000,1505,1000,1000,1505,1005,1000,1014,0.0081,0.0049,0.1407,-0.0220,-0.0009,1.0067,0.3597,0.1546,-0.3673,-0.1470,0.8627,0.2400,0.1321,0.8627,0.2400,0.1321,0.3000,0.0600,0.0002,0,-2.2635,-3.5000,-0.0010,-2.2635,-3.5000,-0.0010,-15.5852,28.4549,0.0200,0.0000
-5.2468,29.7641,-0.9517,0.0829,-0.0821,0.1200,0.0000,0.0000,0.0000,0.1063,-0.2567,-0.0039,996,1502,1500,1500,2008,1000,1505,1000,1000,1505,1005,1000,1014,0.0047,-0.0592,0.1602,-0.0233,-0.0056,1.0055,0.3591,0.1543,-0.3669,-0.1465,0.8627,0.2400,0.1321,0.8627,0.2400,0.1321,0.3000,0.0600,0.0002,0,-2.2635,-3.5000,-0.0010,-2.2635,-3.5000,-0.0010,-15.5584,28.4266,0.0200,0.0000
-5.2372,29.7226,-0.9451,-0.0000,0.0000,0.1200,0.0000,0.0000,0.0000,0.1063,-0.2564,-0.0038,996,1502,1500,1500,2008,1000,1505,1000,1000,1505,1005,1000,1014,-0.0498,-0.0193,0.1424,-0.0224,-0.0016,1.0044,0.3589,0.1539,-0.3664,-0.1464,0.8627,0.2400,0.1321,0.8627,0.2400,0.1321,0.3000,0.0600,0.0002,0,-2.2635,-3.5000,-0.0010,-2.2635,-3.5000,-0.0010,-15.5309,28.3979,0.0200,0.0000
-5.2283,29.6804,-0.9395,-0.0000,0.0000,0.2400,0.0600,0.3200,0.0000,0.1072,-0.2555,-0.0017,997,1503,1500,1500,2008,1000,1505,1000,1000,1505,1005,1000,1014,-0.0422,-0.0054,0.0865,-0.0208,-0.0029,1.0050,0.3610,0.1500,-0.3645,-0.1466,0.8627,0.2400,0.1321,0.8627,0.2400,0.1321,0.3000,0.0600,0.0002,0,-2.2635,-3.5000,-0.0010,-2.2635,-3.5000,-0.0010,-15.5036,28.3698,0.0400,0.0100
-5.2193,29.6387,-0.9336,-0.0000,-0.0821,0.1200,0.0000,0.0000,0.0000,0.1061,-0.2557,-0.0036,996,1502,1500,1500,2008,1000,1505,1000,1000,1505,1005,1000,1014,-0.0645,0.0028,0.0884,-0.0187,-0.0013,1.0045,0.3582,0.1532,-0.3655,-0.1459,0.8627,0.2400,0.1321,0.8627,0.2400,0.1321,0.3000,0.0600,0.0002,0,-2.2635,-3.5000,-0.0010,-2.2635,-3.5000,-0.0010,-15.4762,28.3412,0.0200,0.0000
-5.2102,29.5962,-0.9276,0.0829,0.0000,0.1200,0.0000,0.0000,0.0000,0.1060,-0.2552,-0.0037,996,1502,1500,1500,2008,1000,1505,1000,1000,1505,1005,1000,1014,-0.0496,-0.0920,0.1129,-0.0214,-0.0002,1.0044,0.3576,0.1528,-0.3649,-0.1455,0.8627,0.2400,0.1321,0.8627,0.2400,0.1321,0.3000,0.0600,0.0002,0,-2.2635,-3.5000,-0.0010,-2.2635,-3.5000,-0.0010,-15.4485,28.3130,0.0200,0.0000
-5.2008,29.5537,-0.9212,-0.0829,-0.1642,0.1200,0.0000,0.0000,0.0000,0.1059,-0.2548,-0.0039,996,1502,1500,1500,2008,1000,1505,1000,1000,1505,1005,1000,1014,-0.0229,-0.1458,0.1773,-0.0236,-0.0027,1.0053,0.3568,0.1527,-0.3646,-0.1449,0.8627,0.2400,0.1321,0.8627,0.2400,0.1321,0.3000,0.0600,0.0002,0,-2.2635,-3.5000,-0.0010,-2.2635,-3.5000,-0.0010,-15.4220,28.2848,0.0200,0.0000
-5.1912,29.5106,-0.9151,0.0829,-0.0821,0.1200,0.0000,0.0000,0.0000,0.1058,-0.2544,-0.0038,996,1502,1500,1500,2008,1000,1505,1000,1000,1505,1005,1000,1014,0.0267,-0.1109,0.1196,-0.0247,-0.0028,1.0058,0.3564,0.1525,-0.3640,-0.1449,0.8627,0.2400,0.1321,0.8627,0.2400,0.1321,0.3000,0.0600,0.0002,0,-2.2635,-3.5000,-0.0010,-2.2635,-3.5000,-0.0010,-15.3952,28.2562,0.0200,0.0000
-5.1816,29.4676,-0.9091,0.0829,-0.0821,0.1200,0.0000,0.0000,0.0000,0.1058,-0.2540,-0.0037,996,1502,1500,1500,2008,1000,1505,1000,1000,1505,1005,1000,1014,-0.0360,-0.1359,0.1129,-0.0274,-0.0051,1.0069,0.3561,0.1520,-0.3636,-0.1445,0.8627,0.2400,0.1321,0.8627,0.2400,0.1321,0.3000,0.0600,0.0002,0,-2.2635,-3.5000,-0.0010,-2.2635,-3.5000,-0.0010,-15.3684,28.2278,0.0200,0.0000
-5.1725,29.4253,-0.9033,0.0829,0.0000,0.2400,0.0600,0.3200,0.0000,0.1067,-0.2534,-0.0017,997,1503,1500,1500,2008,1000,1505,1000,1000,1505,1005,1000,1014,-0.0241,0.0440,0.0844,-0.0237,-0.0022,1.0030,0.3584,0.1483,-0.3618,-0.1450,0.8627,0.2400,0.1321,0.8627,0.2400,0.1321,0.3000,0.0600,0.0002,0,-2.2635,-3.5000,-0.0010,-2.2635,-3.5000,-0.0010,-15.3416,28.1995,0.0400,0.0100
-5.1636,29.3842,-0.8983,0.0829,0.0000,0.1200,0.0000,0.0000,0.0000,0.1057,-0.2536,-0.0037,996,1502,1500,1500,2008,1000,1505,1000,1000,1505,1005,1000,1014,-0.0552,0.0543,0.1098,-0.0213,-0.0011,1.0041,0.3555,0.1516,-0.3629,-0.1442,0.8627,0.2400,0.1321,0.8627,0.2400,0.1321,0.3000,0.0600,0.0002,0,-2.2635,-3.5000,-0.0010,-2.2635,-3.5000,-0.0010,-15.3150,28.1707,0.0200,0.0000
-5.1546,29.3429,-0.8924,0.0829,-0.0821,0.1200,0.0000,0.0000,0.0000,0.1056,-0.2532,-0.0037,996,1502,1500,1500,2008,1000,1505,1000,1000,1505,1005,1000,1014,-0.1056,0.0594,0.1013,-0.0224,-0.0024,1.0056,0.3552,0.1513,-0.3626,-0.1439,0.8627,0.2400,0.1321,0.8627,0.2400,0.1321,0.3000,0.0600,0.0002,0,-2.2635,-3.5000,-0.0010,-2.2635,-3.5000,-0.0010,-15.2881,28.1418,0.0200,0.0000
-5.1455,29.3016,-0.8868,0.0829,-0.0821,0.1200,0.0000,0.0000,0.0000,0.1055,-0.2528,-0.0037,996,1502,1500,1500,2008,1000,1505,1000,1000,1505,1005,1000,1014,-0.0337,0.0177,0.1012,-0.0198,-0.0040,0.9979,0.3546,0.1510,-0.3620,-0.1436,0.8627,0.2400,0.1321,0.8627,0.2400,0.1321,0.3000,0.0600,0.0002,0,-2.2635,-3.5000,-0.0010,-2.2635,-3.5000,-0.0010,-15.2614,28.1139,0.0200,0.0000
-5.1359,29.2596,-0.8813,-0.0000,0.0000,0.1200,0.0000,0.0000,0.0000,0.1053,-0.2523,-0.0037,996,1502,1500,1500,2008,1000,1505,1000,1000,1505,1005,1000,1014,0.0417,-0.0707,0.1033,-0.0223,-0.0039,1.0008,0.3539,0.1507,-0.3613,-0.1433,0.8627,0.2400,0.1321,0.8627,0.2400,0.1321,0.3000,0.0600,0.0002,0,-2.2635,-3.5000,-0.0010,-2.2635,-3.5000,-0.0010,-15.2355,28.0861,0.0200,0.0000
-5.1257,29.2169,-0.8756,0.0829,-0.0821,0.1200,0.0000,0.0000,0.0000,0.1052,-0.2519,-0.0036,996,1502,1500,1500,2008,1000,1505,1000,1000,1505,1005,1000,1014,0.0460,-0.0818,0.0714,-0.0236,-0.0002,1.0036,0.3535,0.1504,-0.3607,-0.1431,0.8627,0.2400,0.1321,0.8627,0.2400,0.1321,0.3000,0.0600,0.0002,0,-2.2635,-3.5000,-0.0010,-2.2635,-3.5000,-0.0010,-15.2086,28.0582,0.0200,0.0000
-5.1162,29.1742,-0.8696,0.0829,0.0000,0.2400,0.0600,0.3200,0.0000,0.1062,-0.2510,-0.0020,997,1503,1500,1500,2008,1000,1505,1000,1000,1505,1005,1000,1014,-0.0009,-0.1181,0.1639,-0.0202,-0.0035,1.0051,0.3552,0.1468,-0.3592,-0.1428,0.8627,0.2400,0.1321,0.8627,0.2400,0.1321,0.3000,0.0600,0.0002,0,-2.2635,-3.5000,-0.0010,-2.2635,-3.5000,-0.0010,-15.1819,28.0298,0.0400,0.0100
-5.1066,29.1318,-0.8632,0.0829,0.0000,0.1200,0.0000,0.0000,0.0000,0.1051,-0.2513,-0.0039,996,1502,1500,1500,2008,1000,1505,1000,1000,1505,1005,1000,1014,-0.0449,-0.0239,0.1718,-0.0195,-0.0062,1.0045,0.3525,0.1501,-0.3604,-0.1422,0.8627,0.2400,0.1321,0.8627,0.2400,0.1321,0.3000,0.0600,0.0002,0,-2.2635,-3.5000,-0.0010,-2.2635,-3.5000,-0.0010,-15.1550,28.0015,0.0200,0.0000
-5.0979,29.0895,-0.8575,0.0829,0.0000,0.1200,0.0000,0.0000,0.0000,0.1051,-0.2511,-0.0036,996,1502,1500,1500,2008,1000,1505,1000,1000,1505,1005,1000,1014,-0.0499,0.0783,0.0834,-0.0245,-0.0052,1.0003,0.3525,0.1496,-0.3598,-0.1424,0.8627,0.2400,0.1321,0.8627,0.2400,0.1321,0.3000,0.0600,0.0002,0,-2.2635,-3.5000,-0.0010,-2.2635,-3.5000,-0.0010,-15.1285,27.9727,0.0200,0.0000
-5.0891,29.0481,-0.8519,0.0829,0.0000,0.1200,0.0000,0.0000,0.0000,0.1051,-0.2506,-0.0039,996,1502,1500,1500,2008,1000,1505,1000,1000,1505,1005,1000,1014,-0.1158,0.0328,0.1519,-0.0230,-0.0017,1.0018,0.3519,0.1494,-0.3596,-0.1417,0.8627,0.2400,0.1321,0.8627,0.2400,0.1321,0.3000,0.0600,0.0002,0,-2.2635,-3.5000,-0.0010,-2.2635,-3.5000,-0.0010,-15.1015,27.9443,0.0200,0.0000
-5.0805,29.0067,-0.8463,0.0829,-0.0821,0.1200,0.0000,0.0000,0.0000,0.1050,-0.2503,-0.0035,996,1502,1500,1500,2008,1000,1505,1000,1000,1505,1005,1000,1014,-0.0741,0.0321,0.0662,-0.0239,-0.0042,1.0018,0.3517,0.1489,-0.3588,-0.1418,0.8627,0.2400,0.1321,0.8627,0.2400,0.1321,0.3000,0.0600,0.0002,0,-2.2635,-3.5000,-0.0010,-2.2635,-3.5000,-0.0010,-15.0754,27.9153,0.0200,0.0000
-5.0720,28.9644,-0.8412,0.0829,-0.0821,0.1200,0.0000,0.0000,0.0000,0.1048,-0.2498,-0.0037,996,1502,1500,1500,2008,1000,1505,1000,1000,1505,1005,1000,1014,-0.0422,-0.0406,0.0908,-0.0205,-0.0015,0.9993,0.3510,0.1487,-0.3583,-0.1413,0.8627,0.2400,0.1321,0.8627,0.2400,0.1321,0.3000,0.0600,0.0002,0,-2.2635,-3.5000,-0.0010,-2.2635,-3.5000,-0.0010,-15.0492,27.8866,0.0200,0.0000
-5.0628,28.9216,-0.8355,0.0829,-0.0821,0.2400,0.0600,0.3200,0.0000,0.1058,-0.2489,-0.0018,997,1503,1500,1500,2008,1000,1505,1000,1000,1505,1005,1000,1014,-0.0078,-0.0745,0.1032,-0.0224,-0.0015,1.0048,0.3528,0.1450,-0.3565,-0.1413,0.8627,0.2400,0.1321,0.8627,0.2400,0.1321,0.3000,0.0600,0.0002,0,-2.2635,-3.5000,-0.0010,-2.2635,-3.5000,-0.0010,-15.0221,27.8577,0.0400,0.0100
-5.0532,28.8788,-0.8300,-0.0000,-0.0821,0.1200,0.0000,0.0000,0.0000,0.1045,-0.2490,-0.0037,996,1502,1500,1500,2008,1000,1505,1000,1000,1505,1005,1000,1014,0.0606,-0.0728,0.0967,-0.0226,-0.0032,1.0059,0.3499,0.1482,-0.3573,-0.1408,0.8627,0.2400,0.1321,0.8627,0.2400,0.1321,0.3000,0.0600,0.0002,0,-2.2635,-3.5000,-0.0010,-2.2635,-3.5000,-0.0010,-14.9952,27.8285,0.0200,0.0000
-5.0429,28.8366,-0.8237,0.0829,0.0000,0.1200,0.0000,0.0000,0.0000,0.1044,-0.2487,-0.0038,996,1502,1500,1500,2008,1000,1505,1000,1000,1505,1005,1000,1014,0.0902,-0.0528,0.1402,-0.0242,-0.0014,1.0031,0.3493,0.1481,-0.3569,-0.1405,0.8627,0.2400,0.1321,0.8627,0.2400,0.1321,0.3000,0.0600,0.0002,0,-2.2635,-3.5000,-0.0010,-2.2635,-3.5000,-0.0010,-14.9684,27.7997,0.0200,0.0000
-5.0333,28.7940,-0.8187,0.0829,0.0000,0.1200,0.0000,0.0000,0.0000,0.1045,-0.2483,-0.0037,996,1502,1500,1500,2008,1000,1505,1000,1000,1505,1005,1000,1014,-0.0332,-0.0872,0.0734,-0.0264,-0.0050,0.9997,0.3491,0.1474,-0.3564,-0.1401,0.8627,0.2400,0.1321,0.8627,0.2400,0.1321,0.3000,0.0600,0.0002,0,-2.2635,-3.5000,-0.0010,-2.2635,-3.5000,-0.0010,-14.9411,27.7709,0.0200,0.0000
-5.0239,28.7513,-0.8130,-0.0829,-0.2462,0.1200,0.0000,0.0000,0.0000,0.1043,-0.2480,-0.0038,996,1502,1500,1500,2008,1000,1505,1000,1000,1505,1005,1000,1014,0.0339,-0.0343,0.1245,-0.0207,-0.0020,1.0018,0.3485,0.1474,-0.3561,-0.1399,0.8627,0.2400,0.1321,0.8627,0.2400,0.1321,0.3000,0.0600,0.0002,0,-2.2635,-3.5000,-0.0010,-2.2635,-3.5000,-0.0010,-14.9147,27.7419,0.0200,0.0000
-5.0146,28.7086,-0.8071,0.0829,-0.0821,0.1200,0.0000,0.0000,0.0000,0.1043,-0.2475,-0.0036,996,1502,1500,1500,2008,1000,1505,1000,1000,1505,1005,1000,1014,-0.0297,-0.1214,0.0605,-0.0215,-0.0034,1.0007,0.3483,0.1467,-0.3554,-0.1396,0.8627,0.2400,0.1321,0.8627,0.2400,0.1321,0.3000,0.0600,0.0002,0,-2.2635,-3.5000,-0.0010,-2.2635,-3.5000,-0.0010,-14.8884,27.7130,0.0200,0.0000
-5.0058,28.6659,-0.8019,-0.0829,-0.1642,0.2400,0.0600,0.3200,0.0000,0.1053,-0.2468,-0.0019,997,1503,1500,1500,2008,1000,1505,1000,1000,1505,1005,1000,1014,-0.0185,-0.0035,0.1458,-0.0198,-0.0029,1.0046,0.3502,0.1434,-0.3540,-0.1396,0.8627,0.2400,0.1321,0.8627,0.2400,0.1321,0.3000,0.0600,0.0002,0,-2.2635,-3.5000,-0.0010,-2.2635,-3.5000,-0.0010,-14.8618,27.6840,0.0400,0.0100
-4.9963,28.6235,-0.7959,-0.0000,-0.0821,0.1200,0.0000,0.0000,0.0000,0.1042,-0.2469,-0.0038,996,1502,1500,1500,2008,1000,1505,1000,1000,1505,1005,1000,1014,-0.0405,-0.0405,0.1242,-0.0193,-0.0042,1.0027,0.3473,0.1465,-0.3549,-0.1389,0.8627,0.2400,0.1321,0.8627,0.2400,0.1321,0.3000,0.0600,0.0002,0,-2.2635,-3.5000,-0.0010,-2.2635,-3.5000,-0.0010,-14.8354,27.6552,0.0200,0.0000
-4.9868,28.5807,-0.7902,0.0829,0.0000,0.1200,0.0000,0.0000,0.0000,0.1040,-0.2465,-0.0037,996,1502,1500,1500,2008,1000,1505,1000,1000,1505,1005,1000,1014,0.0391,-0.0426,0.1189,-0.0210,0.0000,1.0094,0.3468,0.1463,-0.3543,-0.1388,0.8627,0.2400,0.1321,0.8627,0.2400,0.1321,0.3000,0.0600,0.0002,0,-2.2635,-3.5000,-0.0010,-2.2635,-3.5000,-0.0010,-14.8088,27.6264,0.0200,0.0000
-4.9771,28.5382,-0.7846,0.0829,0.0000,0.1200,0.0000,0.0000,0.0000,0.1040,-0.2461,-0.0036,996,1502,1500,1500,2008,1000,1505,1000,1000,1505,1005,1000,1014,0.0117,-0.0958,0.0928,-0.0222,-0.0037,1.0049,0.3464,0.1458,-0.3537,-0.1385,0.8627,0.2400,0.1321,0.8627,0.2400,0.1321,0.3000,0.0600,0.0002,0,-2.2635,-3.5000,-0.0010,-2.2635,-3.5000,-0.0010,-14.7819,27.5979,0.0200,0.0000
-4.9679,28.4958,-0.7788,-0.0000,0.0000,0.1200,0.0000,0.0000,0.0000,0.1039,-0.2458,-0.0039,996,1502,1500,1500,2008,1000,1505,1000,1000,1505,1005,1000,1014,-0.0058,0.0027,0.1786,-0.0205,-0.0047,1.0010,0.3458,0.1459,-0.3537,-0.1380,0.8627,0.2400,0.1321,0.8627,0.2400,0.1321,0.3000,0.0600,0.0002,0,-2.2635,-3.5000,-0.0010,-2.2635,-3.5000,-0.0010,-14.7558,27.5693,0.0200,0.0000
-4.9583,28.4536,-0.7728,-0.0000,-0.0821,0.1200,0.0000,0.0000,0.0000,0.1038,-0.2455,-0.0039,996,1502,1500,1500,2008,1000,1505,1000,1000,1505,1005,1000,1014,0.0190,0.0355,0.1616,-0.0217,-0.0050,1.0060,0.3454,0.1456,-0.3532,-0.1379,0.8627,0.2400,0.1321,0.8627,0.2400,0.1321,0.3000,0.0600,0.0002,0,-2.2635,-3.5000,-0.0010,-2.2635,-3.5000,-0.0010,-14.7294,27.5401,0.0200,0.0000
-4.9491,28.4121,-0.7674,-0.0000,-0.1642,0.2400,0.0600,0.3200,0.0000,0.1048,-0.2446,-0.0019,997,1503,1500,1500,2008,1000,1505,1000,1000,1505,1005,1000,1014,-0.0039,0.0209,0.1406,-0.0234,-0.0041,1.0048,0.3475,0.1418,-0.3513,-0.1379,0.8627,0.2400,0.1321,0.8627,0.2400,0.1321,0.3000,0.0600,0.0002,0,-2.2635,-3.5000,-0.0010,-2.2635,-3.5000,-0.0010,-14.7026,27.5109,0.0400,0.0100
-4.9404,28.3701,-0.7622,0.0829,0.0000,0.1200,0.0000,0.0000,0.0000,0.1038,-0.2447,-0.0037,996,1502,1500,1500,2008,1000,1505,1000,1000,1505,1005,1000,1014,-0.1390,-0.0234,0.1073,-0.0194,-0.0005,1.0038,0.3449,0.1446,-0.3522,-0.1372,0.8627,0.2400,0.1321,0.8627,0.2400,0.1321,0.3000,0.0600,0.0002,0,-2.2635,-3.5000,-0.0010,-2.2635,-3.5000,-0.0010,-14.6759,27.4816,0.0200,0.0000
-4.9320,28.3271,-0.7570,-0.0000,-0.0821,0.1200,0.0000,0.0000,0.0000,0.1037,-0.2441,-0.0037,996,1502,1500,1500,2008,1000,1505,1000,1000,1505,1005,1000,1014,-0.0543,-0.1825,0.1111,-0.0203,-0.0037,1.0074,0.3440,0.1442,-0.3515,-0.1367,0.8627,0.2400,0.1321,0.8627,0.2400,0.1321,0.3000,0.0600,0.0002,0,-2.2635,-3.5000,-0.0010,-2.2635,-3.5000,-0.0010,-14.6492,27.4523,0.0200,0.0000
-4.9230,28.2839,-0.7517,-0.0000,0.0000,0.1200,0.0000,0.0000,0.0000,0.1034,-0.2439,-0.0037,996,1502,1500,1500,2008,1000,1505,1000,1000,1505,1005,1000,1014,0.0464,-0.0952,0.0988,-0.0226,-0.0037,1.0025,0.3436,0.1442,-0.3510,-0.1367,0.8627,0.2400,0.1321,0.8627,0.2400,0.1321,0.3000,0.0600,0.0002,0,-2.2635,-3.5000,-0.0010,-2.2635,-3.5000,-0.0010,-14.6230,27.4230,0.0200,0.0000
-4.9137,28.2408,-0.7463,0.0829,-0.1642,0.1200,0.0000,0.0000,0.0000,0.1035,-0.2435,-0.0037,996,1502,1500,1500,2008,1000,1505,1000,1000,1505,1005,1000,1014,-0.0299,-0.0769,0.0933,-0.0227,-0.0032,1.0004,0.3433,0.1438,-0.3507,-0.1364,0.8627,0.2400,0.1321,0.8627,0.2400,0.1321,0.3000,0.0600,0.0002,0,-2.2635,-3.5000,-0.0010,-2.2635,-3.5000,-0.0010,-14.5964,27.3936,0.0200,0.0000
-4.9046,28.1980,-0.7409,0.0829,0.0000,0.1200,0.0000,0.0000,0.0000,0.1033,-0.2432,-0.0038,996,1502,1500,1500,2008,1000,1505,1000,1000,1505,1005,1000,1014,0.0139,-0.0587,0.1166,-0.0223,-0.0036,1.0088,0.3427,0.1436,-0.3503,-0.1361,0.8627,0.2400,0.1321,0.8627,0.2400,0.1321,0.3000,0.0600,0.0002,0,-2.2635,-3.5000,-0.0010,-2.2635,-3.5000,-0.0010,-14.5698,27.3649,0.0200,0.0000
-4.8951,28.1554,-0.7349,0.0829,-0.0821,0.2400,0.0600,0.3200,0.0000,0.1044,-0.2423,-0.0018,997,1503,1500,1500,2008,1000,1505,1000,1000,1505,1005,1000,1014,-0.0507,-0.0401,0.1032,-0.0256,-0.0016,1.0064,0.3449,0.1397,-0.3485,-0.1362,0.8627,0.2400,0.1321,0.8627,0.2400,0.1321,0.3000,0.0600,0.0002,0,-2.2635,-3.5000,-0.0010,-2.2635,-3.5000,-0.0010,-14.5431,27.3359,0.0400,0.0100
-4.8864,28.1130,-0.7294,-0.0000,-0.0821,0.1200,0.0000,0.0000,0.0000,0.1032,-0.2426,-0.0037,996,1502,1500,1500,2008,1000,1505,1000,1000,1505,1005,1000,1014,-0.0124,0.0357,0.1052,-0.0242,-0.0033,1.0042,0.3421,0.1431,-0.3495,-0.1356,0.8627,0.2400,0.1321,0.8627,0.2400,0.1321,0.3000,0.0600,0.0002,0,-2.2635,-3.5000,-0.0010,-2.2635,-3.5000,-0.0010,-14.5167,27.3076,0.0200,0.0000
-4.8772,28.0715,-0.7242,0.0829,0.0000,0.1200,0.0000,0.0000,0.0000,0.1031,-0.2422,-0.0036,996,1502,1500,1500,2008,1000,1505,1000,1000,1505,1005,1000,1014,-0.0250,-0.0118,0.0852,-0.0247,-0.0028,1.0088,0.3417,0.1426,-0.3489,-0.1354,0.8627,0.2400,0.1321,0.8627,0.2400,0.1321,0.3000,0.0600,0.0002,0,-2.2635,-3.5000,-0.0010,-2.2635,-3.5000,-0.0010,-14.4909,27.2786,0.0200,0.0000
-4.8683,28.0294,-0.7188,-0.0000,0.0000,0.1200,0.0000,0.0000,0.0000,0.1030,-0.2417,-0.0037,996,1502,1500,1500,2008,1000,1505,1000,1000,1505,1005,1000,1014,-0.0080,-0.0532,0.0938,-0.0221,-0.0030,1.0054,0.3411,0.1424,-0.3485,-0.1350,0.8627,0.2400,0.1321,0.8627,0.2400,0.1321,0.3000,0.0600,0.0002,0,-2.2635,-3.5000,-0.0010,-2.2635,-3.5000,-0.0010,-14.4646,27.2494,0.0200,0.0000
-4.8589,27.9863,-0.7132,0.0829,-0.0821,0.1200,0.0000,0.0000,0.0000,0.1029,-0.2413,-0.0040,996,1502,1500,1500,2008,1000,1505,1000,1000,1505,1005,1000,1014,0.0333,-0.1028,0.1668,-0.0213,-0.0032,1.0041,0.3403,0.1423,-0.3482,-0.1344,0.8627,0.2400,0.1321,0.8627,0.2400,0.1321,0.3000,0.0600,0.0002,0,-2.2635,-3.5000,-0.0010,-2.2635,-3.5000,-0.0010,-14.4384,27.2202,0.0200,0.0000
-4.8492,27.9431,-0.7071,-0.0000,-0.1642,0.1200,0.0000,0.0000,0.0000,0.1028,-0.2409,-0.0038,996,1502,1500,1500,2008,1000,1505,1000,1000,1505,1005,1000,1014,0.0313,-0.0918,0.1370,-0.0254,-0.0062,1.0057,0.3400,0.1419,-0.3476,-0.1343,0.8627,0.2400,0.1321,0.8627,0.2400,0.1321,0.3000,0.0600,0.0002,0,-2.2635,-3.5000,-0.0010,-2.2635,-3.5000,-0.0010,-14.4124,27.1913,0.0200,0.0000
-4.8397,27.8990,-0.7017,0.0829,-0.0821,0.2400,0.0600,0.3200,0.0000,0.1038,-0.2399,-0.0018,997,1503,1500,1500,2008,1000,1505,1000,1000,1505,1005,1000,1014,-0.0052,-0.2375,0.0968,-0.0214,-0.0045,1.0065,0.3419,0.1378,-0.3455,-0.1342,0.8627,0.2400,0.1321,0.8627,0.2400,0.1321,0.3000,0.0600,0.0002,0,-2.2635,-3.5000,-0.0010,-2.2635,-3.5000,-0.0010,-14.3860,27.1630,0.0400,0.0100
-4.8308,27.8553,-0.6963,-0.0000,-0.1642,0.1200,0.0000,0.0000,0.0000,0.1028,-0.2402,-0.0040,996,1502,1500,1500,2008,1000,1505,1000,1000,1505,1005,1000,1014,-0.0600,-0.0753,0.1788,-0.0242,-0.0047,1.0030,0.3390,0.1414,-0.3470,-0.1334,0.8627,0.2400,0.1321,0.8627,0.2400,0.1321,0.3000,0.0600,0.0002,0,-2.2635,-3.5000,-0.0010,-2.2635,-3.5000,-0.0010,-14.3595,27.1343,0.0200,0.0000
-4.8215,27.8127,-0.6903,0.0829,-0.0821,0.1200,0.0000,0.0000,0.0000,0.1027,-0.2400,-0.0039,996,1502,1500,1500,2008,1000,1505,1000,1000,1505,1005,1000,1014,-0.0652,0.0151,0.1417,-0.0254,-0.0027,1.0051,0.3388,0.1411,-0.3465,-0.1334,0.8627,0.2400,0.1321,0.8627,0.2400,0.1321,0.3000,0.0600,0.0002,0,-2.2635,-3.5000,-0.0010,-2.2635,-3.5000,-0.0010,-14.3325,27.1051,0.0200,0.0000
-4.8125,27.7705,-0.6847,0.0829,-0.0821,0.1200,0.0000,0.0000,0.0000,0.1026,-0.2397,-0.0038,996,1502,1500,1500,2008,1000,1505,1000,1000,1505,1005,1000,1014,-0.0451,0.0792,0.1219,-0.0247,-0.0016,1.0039,0.3385,0.1409,-0.3461,-0.1333,0.8627,0.2400,0.1321,0.8627,0.2400,0.1321,0.3000,0.0600,0.0002,0,-2.2635,-3.5000,-0.0010,-2.2635,-3.5000,-0.0010,-14.3058,27.0758,0.0200,0.0000
-4.8035,27.7293,-0.6795,0.0829,-0.0821,0.1200,0.0000,0.0000,0.0000,0.1026,-0.2394,-0.0039,996,1502,1500,1500,2008,1000,1505,1000,1000,1505,1005,1000,1014,-0.0948,0.1007,0.1715,-0.0200,-0.0029,0.9990,0.3380,0.1407,-0.3459,-0.1328,0.8627,0.2400,0.1321,0.8627,0.2400,0.1321,0.3000,0.0600,0.0002,0,-2.2635,-3.5000,-0.0010,-2.2635,-3.5000,-0.0010,-14.2788,27.0463,0.0200,0.0000
-4.7950,27.6877,-0.6743,-0.0000,0.0000,0.1200,0.0000,0.0000,0.0000,0.1025,-0.2390,-0.0037,996,1502,1500,1500,2008,1000,1505,1000,1000,1505,1005,1000,1014,-0.0709,0.0814,0.0825,-0.0210,-0.0020,1.0033,0.3378,0.1402,-0.3452,-0.1328,0.8627,0.2400,0.1321,0.8627,0.2400,0.1321,0.3000,0.0600,0.0002,0,-2.2635,-3.5000,-0.0010,-2.2635,-3.5000,-0.0010,-14.2522,27.0171,0.0200,0.0000
-4.7864,27.6457,-0.6690,0.0829,-0.0821,0.2400,0.0600,0.3200,0.0000,0.1034,-0.2379,-0.0019,997,1503,1500,1500,2008,1000,1505,1000,1000,1505,1005,1000,1014,-0.0241,-0.0573,0.1459,-0.0198,-0.0044,1.0061,0.3394,0.1365,-0.3432,-0.1326,0.8627,0.2400,0.1321,0.8627,0.2400,0.1321,0.3000,0.0600,0.0002,0,-2.2635,-3.5000,-0.0010,-2.2635,-3.5000,-0.0010,-14.2264,26.9879,0.0400,0.0100
-4.7774,27.6026,-0.6634,0.0829,0.0000,0.1200,0.0000,0.0000,0.0000,0.1022,-0.2381,-0.0040,996,1502,1500,1500,2008,1000,1505,1000,1000,1505,1005,1000,1014,0.0211,-0.0576,0.1744,-0.0219,-0.0057,1.0027,0.3363,0.1398,-0.3442,-0.1319,0.8627,0.2400,0.1321,0.8627,0.2400,0.1321,0.3000,0.0600,0.0002,0,-2.2635,-3.5000,-0.0010,-2.2635,-3.5000,-0.0010,-14.2008,26.9586,0.0200,0.0000
-4.7676,27.5588,-0.6574,0.0829,0.0000,0.1200,0.0000,0.0000,0.0000,0.1022,-0.2376,-0.0039,996,1502,1500,1500,2008,1000,1505,1000,1000,1505,1005,1000,1014,0.0040,-0.1425,0.1666,-0.0226,-0.0035,1.0022,0.3358,0.1393,-0.3437,-0.1315,0.8627,0.2400,0.1321,0.8627,0.2400,0.1321,0.3000,0.0600,0.0002,0,-2.2635,-3.5000,-0.0010,-2.2635,-3.5000,-0.0010,-14.1746,26.9293,0.0200,0.0000
-4.7582,27.5153,-0.6515,0.0829,-0.0821,0.1200,0.0000,0.0000,0.0000,0.1021,-0.2373,-0.0035,996,1502,1500,1500,2008,1000,1505,1000,1000,1505,1005,1000,1014,-0.0467,-0.0400,0.0704,-0.0258,-0.0048,1.0038,0.3359,0.1387,-0.3430,-0.1317,0.8627,0.2400,0.1321,0.8627,0.2400,0.1321,0.3000,0.0600,0.0002,0,-2.2635,-3.5000,-0.0010,-2.2635,-3.5000,-0.0010,-14.1483,26.9004,0.0200,0.0000
-4.7494,27.4727,-0.6466,-0.0000,0.0000,0.1200,0.0000,0.0000,0.0000,0.1020,-0.2370,-0.0036,996,1502,1500,1500,2008,1000,1505,1000,1000,1505,1005,1000,1014,-0.0019,-0.0028,0.0776,-0.0245,-0.0022,1.0046,0.3354,0.1386,-0.3426,-0.1314,0.8627,0.2400,0.1321,0.8627,0.2400,0.1321,0.3000,0.0600,0.0002,0,-2.2635,-3.5000,-0.0010,-2.2635,-3.5000,-0.0010,-14.1219,26.8714,0.0200,0.0000
-4.7408,27.4313,-0.6419,-0.0000,-0.0821,0.1200,0.0000,0.0000,0.0000,0.1020,-0.2368,-0.0037,996,1502,1500,1500,2008,1000,1505,1000,1000,1505,1005,1000,1014,-0.0483,0.1032,0.0812,-0.0245,-0.0043,1.0010,0.3351,0.1385,-0.3425,-0.1311,0.8627,0.2400,0.1321,0.8627,0.2400,0.1321,0.3000,0.0600,0.0002,0,-2.2635,-3.5000,-0.0010,-2.2635,-3.5000,-0.0010,-14.0956,26.8423,0.0200,0.0000
-4.7322,27.3901,-0.6371,0.0829,-0.0821,0.2400,0.0600,0.3200,0.0000,0.1030,-0.2359,-0.0018,997,1503,1500,1500,2008,1000,1505,1000,1000,1505,1005,1000,1014,-0.0558,0.0799,0.1148,-0.0216,-0.0020,0.9993,0.3370,0.1347,-0.3407,-0.1311,0.8627,0.2400,0.1321,0.8627,0.2400,0.1321,0.3000,0.0600,0.0002,0,-2.2635,-3.5000,-0.0010,-2.2635,-3.5000,-0.0010,-14.0693,26.8126,0.0400,0.0100
-4.7233,27.3485,-0.6321,-0.0000,0.0000,0.1200,0.0000,0.0000,0.0000,0.1018,-0.2360,-0.0038,996,1502,1500,1500,2008,1000,1505,1000,1000,1505,1005,1000,1014,-0.0198,0.0121,0.1108,-0.0172,0.0003,1.0023,0.3340,0.1379,-0.3415,-0.1304,0.8627,0.2400,0.1321,0.8627,0.2400,0.1321,0.3000,0.0600,0.0002,0,-2.2635,-3.5000,-0.0010,-2.2635,-3.5000,-0.0010,-14.0433,26.7841,0.0200,0.0000
-4.7139,27.3061,-0.6263,0.0829,0.0000,0.1200,0.0000,0.0000,0.0000,0.1017,-0.2355,-0.0038,996,1502,1500,1500,2008,1000,1505,1000,1000,1505,1005,1000,1014,-0.0301,-0.0525,0.1206,-0.0176,-0.0015,1.0022,0.3335,0.1375,-0.3410,-0.1300,0.8627,0.2400,0.1321,0.8627,0.2400,0.1321,0.3000,0.0600,0.0002,0,-2.2635,-3.5000,-0.0010,-2.2635,-3.5000,-0.0010,-14.0178,26.7550,0.0200,0.0000
-4.7043,27.2629,-0.6206,-0.0000,0.0000,0.1200,0.0000,0.0000,0.0000,0.1016,-0.2350,-0.0036,996,1502,1500,1500,2008,1000,1505,1000,1000,1505,1005,1000,1014,0.0204,-0.1120,0.0848,-0.0181,-0.0020,1.0063,0.3330,0.1371,-0.3403,-0.1298,0.8627,0.2400,0.1321,0.8627,0.2400,0.1321,0.3000,0.0600,0.0002,0,-2.2635,-3.5000,-0.0010,-2.2635,-3.5000,-0.0010,-13.9920,26.7254,0.0200,0.0000
-4.6944,27.2190,-0.6152,-0.0000,0.0000,0.1200,0.0000,0.0000,0.0000,0.1014,-0.2346,-0.0036,996,1502,1500,1500,2008,1000,1505,1000,1000,1505,1005,1000,1014,0.0829,-0.1882,0.0669,-0.0227,-0.0050,1.0006,0.3324,0.1367,-0.3396,-0.1296,0.8627,0.2400,0.1321,0.8627,0.2400,0.1321,0.3000,0.0600,0.0002,0,-2.2635,-3.5000,-0.0010,-2.2635,-3.5000,-0.0010,-13.9660,26.6958,0.0200,0.0000
-4.6848,27.1745,-0.6101,0.0829,-0.0821,0.1200,0.0000,0.0000,0.0000,0.1014,-0.2342,-0.0037,996,1502,1500,1500,2008,1000,1505,1000,1000,1505,1005,1000,1014,0.0380,-0.1599,0.0865,-0.0252,-0.0058,1.0078,0.3319,0.1365,-0.3393,-0.1291,0.8627,0.2400,0.1321,0.8627,0.2400,0.1321,0.3000,0.0600,0.0002,0,-2.2635,-3.5000,-0.0010,-2.2635,-3.5000,-0.0010,-13.9403,26.6660,0.0200,0.0000
-4.6759,27.1303,-0.6050,0.0829,0.0000,0.2400,0.0600,0.3200,0.0000,0.1025,-0.2334,-0.0018,997,1503,1500,1500,2008,1000,1505,1000,1000,1505,1005,1000,1014,-0.0502,-0.1403,0.0846,-0.0263,-0.0050,1.0032,0.3341,0.1326,-0.3376,-0.1291,0.8627,0.2400,0.1321,0.8627,0.2400,0.1321,0.3000,0.0600,0.0002,0,-2.2635,-3.5000,-0.0010,-2.2635,-3.5000,-0.0010,-13.9144,26.6361,0.0400,0.0100
-4.6679,27.0873,-0.5998,0.0829,0.0000,0.1200,0.0000,0.0000,0.0000,0.1014,-0.2337,-0.0036,996,1502,1500,1500,2008,1000,1505,1000,1000,1505,1005,1000,1014,-0.0979,0.0151,0.0521,-0.0277,-0.0064,1.0022,0.3315,0.1359,-0.3387,-0.1287,0.8627,0.2400,0.1321,0.8627,0.2400,0.1321,0.3000,0.0600,0.0002,0,-2.2635,-3.5000,-0.0010,-2.2635,-3.5000,-0.0010,-13.8879,26.6063,0.0200,0.0000
-4.6603,27.0460,-0.5951,-0.0829,-0.0821,0.1200,0.0000,0.0000,0.0000,0.1014,-0.2335,-0.0037,996,1502,1500,1500,2008,1000,1505,1000,1000,1505,1005,1000,1014,-0.1573,0.1641,0.0830,-0.0246,-0.0025,1.0046,0.3313,0.1358,-0.3386,-0.1284,0.8627,0.2400,0.1321,0.8627,0.2400,0.1321,0.3000,0.0600,0.0002,0,-2.2635,-3.5000,-0.0010,-2.2635,-3.5000,-0.0010,-13.8619,26.5766,0.0200,0.0000
-4.6524,27.0049,-0.5900,0.0829,-0.0821,0.1200,0.0000,0.0000,0.0000,0.1013,-0.2331,-0.0039,996,1502,1500,1500,2008,1000,1505,1000,1000,1505,1005,1000,1014,-0.1141,0.0871,0.1529,-0.0209,-0.0004,1.0056,0.3305,0.1357,-0.3383,-0.1279,0.8627,0.2400,0.1321,0.8627,0.2400,0.1321,0.3000,0.0600,0.0002,0,-2.2635,-3.5000,-0.0010,-2.2635,-3.5000,-0.0010,-13.8356,26.5474,0.0200,0.0000
-4.6436,26.9630,-0.5847,-0.0829,-0.2462,0.1200,0.0000,0.0000,0.0000,0.1012,-0.2327,-0.0039,996,1502,1500,1500,2008,1000,1505,1000,1000,1505,1005,1000,1014,-0.0479,0.0414,0.1346,-0.0192,-0.0024,1.0011,0.3300,0.1354,-0.3377,-0.1276,0.8627,0.2400,0.1321,0.8627,0.2400,0.1321,0.3000,0.0600,0.0002,0,-2.2635,-3.5000,-0.0010,-2.2635,-3.5000,-0.0010,-13.8095,26.5174,0.0200,0.0000
-4.6337,26.9205,-0.5789,0.0829,0.0000,0.1200,0.0000,0.0000,0.0000,0.1009,-0.2322,-0.0041,996,1502,1500,1500,2008,1000,1505,1000,1000,1505,1005,1000,1014,0.0959,-0.0432,0.2244,-0.0184,-0.0021,1.0060,0.3290,0.1354,-0.3372,-0.1272,0.8627,0.2400,0.1321,0.8627,0.2400,0.1321,0.3000,0.0600,0.0002,0,-2.2635,-3.5000,-0.0010,-2.2635,-3.5000,-0.0010,-13.7834,26.4875,0.0200,0.0000
-4.6231,26.8774,-0.5725,-0.0000,-0.0821,0.2400,0.0600,0.3200,0.0000,0.1018,-0.2312,-0.0020,997,1503,1500,1500,2008,1000,1505,1000,1000,1505,1005,1000,1014,0.1162,-0.0824,0.1701,-0.0154,-0.0012,1.0067,0.3310,0.1315,-0.3351,-0.1274,0.8627,0.2400,0.1321,0.8627,0.2400,0.1321,0.3000,0.0600,0.0002,0,-2.2635,-3.5000,-0.0010,-2.2635,-3.5000,-0.0010,-13.7572,26.4578,0.0400,0.0100
-4.6131,26.8337,-0.5667,0.0829,-0.0821,0.1200,0.0000,0.0000,0.0000,0.1008,-0.2313,-0.0038,996,1502,1500,1500,2008,1000,1505,1000,1000,1505,1005,1000,1014,0.0623,-0.1500,0.1361,-0.0187,-0.0062,1.0071,0.3282,0.1344,-0.3359,-0.1267,0.8627,0.2400,0.1321,0.8627,0.2400,0.1321,0.3000,0.0600,0.0002,0,-2.2635,-3.5000,-0.0010,-2.2635,-3.5000,-0.0010,-13.7312,26.4282,0.0200,0.0000
-4.6039,26.7892,-0.5617,0.0829,0.0000,0.1200,0.0000,0.0000,0.0000,0.1008,-0.2308,-0.0037,996,1502,1500,1500,2008,1000,1505,1000,1000,1505,1005,1000,1014,-0.0378,-0.1989,0.0962,-0.0249,-0.0059,1.0042,0.3279,0.1338,-0.3354,-0.1263,0.8627,0.2400,0.1321,0.8627,0.2400,0.1321,0.3000,0.0600,0.0002,0,-2.2635,-3.5000,-0.0010,-2.2635,-3.5000,-0.0010,-13.7056,26.3988,0.0200,0.0000
