roll_imu,pitch_imu,yaw_imu,alpha,beta,roll_des,pitch_des,yaw_des,throttle_des,roll_pid,pitch_pid,yaw_pid,radio_ch1,radio_ch2,radio_ch3,radio_ch4,radio_ch5,radio_ch6,radio_ch7,radio_ch8,radio_ch9,radio_ch10,radio_ch11,radio_ch12,radio_ch13,GyroX,GyroY,GyroZ,AccX,AccY,AccZ,s1_command,s2_command,s3_command,s4_command,kp_roll,ki_roll,kd_roll,kp_pitch,ki_pitch,kd_pitch,kp_yaw,ki_yaw,kd_yaw,failsafeTriggered,kp_alphaRoll,ki_alphaRoll,kd_alphaRoll,kp_betaPitch,ki_betaPitch,kd_betaPitch,ripIMU_roll,ripIMU_pitch,ripRoll_des,ripPitch_des
0.0000,0.0000,0.0000,-28.9227,-2.3393,0.0000,0.0000,0.0000,0.0000,0.0000,0.0000,0.0000,1000,1500,1500,1500,2000,1000,1000,1000,1500,1500,1500,1500,1500,0.0000,0.0000,0.0000,0.0000,0.0000,0.0000,0.0000,0.0000,0.0000,0.0000,0.3000,0.0100,0.0700,0.3000,0.0100,0.0700,0.3000,0.0600,0.0002,0,-0.3000,-100.0000,-0.0010,-0.3000,-100.0000,-0.0010,0.0000,0.0000,0.0000,0.0000
-37.8129,-0.6478,0.2800,-0.0000,0.0821,0.0000,-8.0400,-42.8800,0.0000,0.3246,-0.0383,-0.1290,910,1369,1366,1366,2008,1000,1505,1505,1505,1364,2008,1112,1014,-0.0851,-0.0601,0.0303,0.0145,-0.9015,-0.2567,0.2339,-0.1574,-0.4918,0.4153,0.5184,0.5140,0.1092,0.5184,0.5140,0.1092,0.3000,0.0600,0.0002,0,-0.3000,-100.0000,-0.0010,-0.3000,-100.0000,-0.0010,8.3658,37.1072,-1.3100,-1.3400
-37.8573,-0.6490,0.2812,-0.0829,0.1642,0.0000,-2.3400,-12.4800,0.0000,0.3248,-0.0087,0.0532,972,1463,1461,1461,2008,1000,1505,1505,1505,1364,2008,1112,1014,-0.0781,-0.0857,0.0222,0.0176,-0.9640,-0.2797,0.3867,-0.3694,-0.2803,0.2630,0.5184,0.5140,0.1092,0.5184,0.5140,0.1092,0.3000,0.0600,0.0002,0,-0.3000,-100.0000,-0.0010,-0.3000,-100.0000,-0.0010,8.3961,37.1485,-0.3600,-0.3900
-37.9017,-0.6500,0.2824,-0.0829,0.0821,0.0000,-0.7800,-4.1600,0.0000,0.3251,-0.0006,-0.0131,991,1490,1487,1487,2008,1000,1505,1505,1505,1364,2008,1112,1014,-0.1140,-0.0573,0.0114,0.0168,-0.9658,-0.2784,0.3126,-0.3114,-0.3388,0.3376,0.5184,0.5140,0.1092,0.5184,0.5140,0.1092,0.3000,0.0600,0.0002,0,-0.3000,-100.0000,-0.0010,-0.3000,-100.0000,-0.0010,8.4305,37.1897,-0.1000,-0.1300
-38.4556,-0.6623,0.2933,-0.0000,0.0821,0.0000,0.0000,0.0000,0.0000,0.3280,0.0035,-0.0008,996,1502,1500,1500,2008,1000,1505,1505,1505,1364,2008,1112,1014,-0.0911,-0.0257,0.0616,0.0115,-0.9646,-0.2764,0.3236,-0.3306,-0.3253,0.3323,0.5184,0.5140,0.1092,0.5184,0.5140,0.1092,0.3000,0.0600,0.0002,0,-0.3000,-100.0000,-0.0010,-0.3000,-100.0000,-0.0010,8.8718,37.7007,0.0200,0.0000
-38.5001,-0.6628,0.2944,-0.0000,0.0821,0.0000,0.0000,0.0000,0.0000,0.3282,0.0035,-0.0007,996,1502,1500,1500,2008,1000,1505,1505,1505,1364,2008,1112,1014,-0.0963,-0.0432,0.0203,0.0133,-0.9665,-0.2744,0.3240,-0.3310,-0.3254,0.3324,0.5184,0.5140,0.1092,0.5184,0.5140,0.1092,0.3000,0.0600,0.0002,0,-0.3000,-100.0000,-0.0010,-0.3000,-100.0000,-0.0010,8.9081,37.7417,0.0200,0.0000
-38.5448,-0.6639,0.2951,-0.0829,0.0821,0.0000,0.0600,0.3200,0.0000,0.3282,0.0038,0.0014,997,1503,1500,1500,2008,1000,1505,1505,1505,1363,2008,1112,1014,-0.1430,-0.0802,-0.0362,0.0154,-0.9652,-0.2803,0.3258,-0.3334,-0.3230,0.3307,0.5178,0.5140,0.1092,0.5178,0.5140,0.1092,0.3000,0.0600,0.0002,0,-0.3000,-100.0000,-0.0010,-0.3000,-100.0000,-0.0010,8.9446,37.7827,0.0400,0.0100
-38.5895,-0.6655,0.2958,-0.1657,0.1642,0.0000,0.0000,0.0000,0.0000,0.3284,0.0036,-0.0005,996,1502,1500,1500,2008,1000,1505,1505,1505,1363,2008,1112,1014,-0.1046,-0.0997,-0.0336,0.0161,-0.9635,-0.2742,0.3243,-0.3314,-0.3254,0.3325,0.5178,0.5140,0.1092,0.5178,0.5140,0.1092,0.3000,0.0600,0.0002,0,-0.3000,-100.0000,-0.0010,-0.3000,-100.0000,-0.0010,8.9811,37.8238,0.0200,0.0000
-38.6337,-0.6672,0.2967,0.0829,0.0821,0.0000,0.0000,0.0000,0.0000,0.3289,0.0036,-0.0005,996,1502,1500,1500,2008,1000,1505,1505,1505,1364,2008,1112,1014,-0.0684,-0.1000,-0.0496,0.0174,-0.9654,-0.2749,0.3248,-0.3319,-0.3258,0.3329,0.5184,0.5140,0.1092,0.5184,0.5140,0.1092,0.3000,0.0600,0.0002,0,-0.3000,-100.0000,-0.0010,-0.3000,-100.0000,-0.0010,9.0177,37.8648,0.0200,0.0000
-38.6780,-0.6687,0.2974,-0.0829,0.0821,0.0000,0.0000,0.0000,0.0000,0.3291,0.0036,-0.0006,996,1502,1500,1500,2008,1000,1505,1505,1505,1364,2008,1112,1014,-0.0814,-0.1100,-0.0304,0.0152,-0.9609,-0.2766,0.3249,-0.3321,-0.3261,0.3333,0.5184,0.5140,0.1092,0.5184,0.5140,0.1092,0.3000,0.0600,0.0002,0,-0.3000,-100.0000,-0.0010,-0.3000,-100.0000,-0.0010,9.0542,37.9058,0.0200,0.0000
-38.7218,-0.6696,0.2988,-0.0829,0.0821,0.0000,0.0000,0.0000,0.0000,0.3290,0.0035,-0.0009,996,1502,1500,1500,2008,1000,1505,1505,1505,1363,2008,1112,1014,0.0004,-0.0593,0.0833,0.0171,-0.9612,-0.2773,0.3246,-0.3317,-0.3263,0.3334,0.5178,0.5140,0.1092,0.5178,0.5140,0.1092,0.3000,0.0600,0.0002,0,-0.3000,-100.0000,-0.0010,-0.3000,-100.0000,-0.0010,9.0908,37.9469,0.0200,0.0000
-38.7651,-0.6699,0.3002,0.0829,-0.0000,0.0000,0.0000,0.0000,0.0000,0.3292,0.0035,-0.0009,996,1502,1500,1500,2008,1000,1505,1505,1505,1363,2008,1112,1014,0.0112,-0.0224,0.0881,0.0157,-0.9640,-0.2750,0.3248,-0.3318,-0.3266,0.3336,0.5178,0.5140,0.1092,0.5178,0.5140,0.1092,0.3000,0.0600,0.0002,0,-0.3000,-100.0000,-0.0010,-0.3000,-100.0000,-0.0010,9.1274,37.9879,0.0200,0.0000
-38.8085,-0.6701,0.3017,-0.0829,0.0821,0.0000,0.0600,0.3200,0.0000,0.3297,0.0037,0.0010,997,1503,1500,1500,2008,1000,1505,1505,1505,1364,2008,1112,1014,-0.0268,0.0374,0.0918,0.0179,-0.9636,-0.2758,0.3270,-0.3345,-0.3250,0.3325,0.5184,0.5140,0.1092,0.5184,0.5140,0.1092,0.3000,0.0600,0.0002,0,-0.3000,-100.0000,-0.0010,-0.3000,-100.0000,-0.0010,9.1640,38.0288,0.0400,0.0100
-38.8521,-0.6702,0.3027,-0.0000,-0.0000,0.0000,0.0000,0.0000,0.0000,0.3299,0.0035,-0.0007,996,1502,1500,1500,2008,1000,1505,1505,1505,1364,2008,1112,1014,-0.0078,-0.0438,0.0050,0.0152,-0.9658,-0.2805,0.3257,-0.3328,-0.3271,0.3341,0.5184,0.5140,0.1092,0.5184,0.5140,0.1092,0.3000,0.0600,0.0002,0,-0.3000,-100.0000,-0.0010,-0.3000,-100.0000,-0.0010,9.2006,38.0698,0.0200,0.0000
-38.8956,-0.6711,0.3034,-0.0829,0.1642,0.0000,0.0000,0.0000,0.0000,0.3302,0.0035,-0.0007,996,1502,1500,1500,2008,1000,1505,1505,1505,1364,2008,1112,1014,-0.0298,-0.0417,0.0042,0.0108,-0.9669,-0.2786,0.3260,-0.3330,-0.3273,0.3343,0.5184,0.5140,0.1092,0.5184,0.5140,0.1092,0.3000,0.0600,0.0002,0,-0.3000,-100.0000,-0.0010,-0.3000,-100.0000,-0.0010,9.2372,38.1107,0.0200,0.0000
-38.9394,-0.6717,0.3041,-0.0829,0.1642,0.0000,0.0000,0.0000,0.0000,0.3304,0.0035,-0.0007,996,1502,1500,1500,2008,1000,1505,1505,1505,1364,2008,1112,1014,-0.0417,-0.0510,0.0163,0.0165,-0.9653,-0.2726,0.3262,-0.3333,-0.3276,0.3346,0.5184,0.5140,0.1092,0.5184,0.5140,0.1092,0.3000,0.0600,0.0002,0,-0.3000,-100.0000,-0.0010,-0.3000,-100.0000,-0.0010,9.2738,38.1517,0.0200,0.0000
-38.9828,-0.6726,0.3050,-0.0829,0.0821,0.0000,0.0000,0.0000,0.0000,0.3306,0.0036,-0.0008,996,1502,1500,1500,2008,1000,1505,1505,1505,1364,2008,1112,1014,-0.0018,-0.0736,0.0385,0.0143,-0.9587,-0.2756,0.3262,-0.3334,-0.3278,0.3349,0.5184,0.5140,0.1092,0.5184,0.5140,0.1092,0.3000,0.0600,0.0002,0,-0.3000,-100.0000,-0.0010,-0.3000,-100.0000,-0.0010,9.3104,38.1926,0.0200,0.0000
-39.0261,-0.6732,0.3062,-0.0000,0.0821,0.0000,0.0000,0.0000,0.0000,0.3308,0.0035,-0.0008,996,1502,1500,1500,2008,1000,1505,1505,1505,1364,2008,1112,1014,0.0012,-0.0286,0.0717,0.0158,-0.9627,-0.2729,0.3264,-0.3335,-0.3281,0.3352,0.5184,0.5140,0.1092,0.5184,0.5140,0.1092,0.3000,0.0600,0.0002,0,-0.3000,-100.0000,-0.0010,-0.3000,-100.0000,-0.0010,9.3471,38.2336,0.0200,0.0000
-39.0697,-0.6734,0.3077,-0.0000,-0.0000,0.0000,0.0600,0.3200,0.0000,0.3311,0.0038,0.0009,997,1503,1500,1500,2008,1000,1505,1505,1505,1364,2008,1112,1014,-0.0295,-0.0248,0.1317,0.0114,-0.9637,-0.2748,0.3281,-0.3358,-0.3264,0.3340,0.5184,0.5140,0.1092,0.5184,0.5140,0.1092,0.3000,0.0600,0.0002,0,-0.3000,-100.0000,-0.0010,-0.3000,-100.0000,-0.0010,9.3837,38.2745,0.0400,0.0100
-39.1133,-0.6733,0.3092,-0.1657,0.1642,0.0000,0.0000,0.0000,0.0000,0.3313,0.0035,-0.0008,996,1502,1500,1500,2008,1000,1505,1505,1505,1364,2008,1112,1014,-0.0574,-0.0358,0.0576,0.0164,-0.9650,-0.2772,0.3270,-0.3341,-0.3286,0.3356,0.5184,0.5140,0.1092,0.5184,0.5140,0.1092,0.3000,0.0600,0.0002,0,-0.3000,-100.0000,-0.0010,-0.3000,-100.0000,-0.0010,9.4204,38.3154,0.0200,0.0000
-39.1577,-0.6738,0.3106,0.0829,0.0821,0.0000,0.0000,0.0000,0.0000,0.3316,0.0036,-0.0008,996,1502,1500,1500,2008,1000,1505,1505,1505,1364,2008,1112,1014,-0.1010,-0.0611,0.0424,0.0158,-0.9645,-0.2787,0.3273,-0.3344,-0.3288,0.3359,0.5184,0.5140,0.1092,0.5184,0.5140,0.1092,0.3000,0.0600,0.0002,0,-0.3000,-100.0000,-0.0010,-0.3000,-100.0000,-0.0010,9.4570,38.3563,0.0200,0.0000
-39.2017,-0.6747,0.3118,-0.0829,0.0821,0.0000,0.0000,0.0000,0.0000,0.3318,0.0036,-0.0006,996,1502,1500,1500,2008,1000,1505,1505,1505,1364,2008,1112,1014,-0.0477,-0.1017,-0.0126,0.0132,-0.9660,-0.2757,0.3276,-0.3348,-0.3288,0.3360,0.5184,0.5140,0.1092,0.5184,0.5140,0.1092,0.3000,0.0600,0.0002,0,-0.3000,-100.0000,-0.0010,-0.3000,-100.0000,-0.0010,9.4937,38.3972,0.0200,0.0000
-39.2454,-0.6758,0.3131,-0.0829,0.0821,0.0000,0.0000,0.0000,0.0000,0.3320,0.0036,-0.0007,996,1502,1500,1500,2008,1000,1505,1505,1505,1364,2008,1112,1014,-0.0487,-0.0764,0.0334,0.0149,-0.9626,-0.2742,0.3277,-0.3349,-0.3292,0.3363,0.5184,0.5140,0.1092,0.5184,0.5140,0.1092,0.3000,0.0600,0.0002,0,-0.3000,-100.0000,-0.0010,-0.3000,-100.0000,-0.0010,9.5304,38.4381,0.0200,0.0000
-39.2892,-0.6764,0.3143,0.0829,0.0821,0.0000,0.0000,0.0000,0.0000,0.3322,0.0036,-0.0008,996,1502,1500,1500,2008,1000,1505,1505,1505,1364,2008,1112,1014,-0.0415,-0.0616,0.0458,0.0115,-0.9592,-0.2752,0.3279,-0.3350,-0.3294,0.3366,0.5184,0.5140,0.1092,0.5184,0.5140,0.1092,0.3000,0.0600,0.0002,0,-0.3000,-100.0000,-0.0010,-0.3000,-100.0000,-0.0010,9.5671,38.4790,0.0200,0.0000
-39.3331,-0.6767,0.3154,-0.0000,0.0821,0.0000,0.0600,0.3200,0.0000,0.3324,0.0039,0.0011,997,1503,1500,1500,2008,1000,1505,1505,1505,1364,2008,1112,1014,-0.0364,-0.0343,0.0697,0.0168,-0.9610,-0.2755,0.3296,-0.3374,-0.3275,0.3352,0.5184,0.5140,0.1092,0.5184,0.5140,0.1092,0.3000,0.0600,0.0002,0,-0.3000,-100.0000,-0.0010,-0.3000,-100.0000,-0.0010,9.6037,38.5198,0.0400,0.0100
-39.3766,-0.6772,0.3166,-0.1657,0.0821,0.0000,0.0000,0.0000,0.0000,0.3324,0.0036,-0.0009,996,1502,1500,1500,2008,1000,1505,1505,1505,1363,2008,1112,1014,0.0060,-0.0470,0.0772,0.0163,-0.9638,-0.2747,0.3279,-0.3351,-0.3297,0.3368,0.5178,0.5140,0.1092,0.5178,0.5140,0.1092,0.3000,0.0600,0.0002,0,-0.3000,-100.0000,-0.0010,-0.3000,-100.0000,-0.0010,9.6405,38.5607,0.0200,0.0000
-39.4197,-0.6774,0.3180,-0.0000,0.0821,0.0000,0.0000,0.0000,0.0000,0.3326,0.0035,-0.0008,996,1502,1500,1500,2008,1000,1505,1505,1505,1363,2008,1112,1014,0.0297,-0.0069,0.0654,0.0161,-0.9659,-0.2786,0.3282,-0.3353,-0.3299,0.3369,0.5178,0.5140,0.1092,0.5178,0.5140,0.1092,0.3000,0.0600,0.0002,0,-0.3000,-100.0000,-0.0010,-0.3000,-100.0000,-0.0010,9.6772,38.6016,0.0200,0.0000
-39.4630,-0.6779,0.3187,0.0829,0.0821,0.0000,0.0000,0.0000,0.0000,0.3331,0.0036,-0.0006,996,1502,1500,1500,2008,1000,1505,1505,1505,1364,2008,1112,1014,-0.0452,-0.0394,-0.0017,0.0167,-0.9664,-0.2766,0.3289,-0.3361,-0.3302,0.3373,0.5184,0.5140,0.1092,0.5184,0.5140,0.1092,0.3000,0.0600,0.0002,0,-0.3000,-100.0000,-0.0010,-0.3000,-100.0000,-0.0010,9.7139,38.6423,0.0200,0.0000
-39.5066,-0.6788,0.3195,-0.0829,0.0821,0.0000,0.0000,0.0000,0.0000,0.3334,0.0036,-0.0005,996,1502,1500,1500,2008,1000,1505,1505,1505,1364,2008,1112,1014,-0.0684,-0.0395,-0.0312,0.0159,-0.9640,-0.2779,0.3293,-0.3364,-0.3304,0.3375,0.5184,0.5140,0.1092,0.5184,0.5140,0.1092,0.3000,0.0600,0.0002,0,-0.3000,-100.0000,-0.0010,-0.3000,-100.0000,-0.0010,9.7506,38.6831,0.0200,0.0000
-39.5506,-0.6797,0.3197,-0.0000,0.0821,0.0000,0.0000,0.0000,0.0000,0.3336,0.0035,-0.0005,996,1502,1500,1500,2008,1000,1505,1505,1505,1364,2008,1112,1014,-0.0655,0.0003,-0.0574,0.0151,-0.9625,-0.2750,0.3296,-0.3367,-0.3305,0.3376,0.5184,0.5140,0.1092,0.5184,0.5140,0.1092,0.3000,0.0600,0.0002,0,-0.3000,-100.0000,-0.0010,-0.3000,-100.0000,-0.0010,9.7873,38.7238,0.0200,0.0000
-39.5947,-0.6803,0.3201,-0.0829,0.0821,0.0000,0.0600,0.3200,0.0000,0.3338,0.0039,0.0013,997,1503,1500,1500,2008,1000,1505,1505,1505,1364,2008,1112,1014,-0.0711,-0.0141,0.0092,0.0131,-0.9602,-0.2738,0.3312,-0.3389,-0.3287,0.3364,0.5184,0.5140,0.1092,0.5184,0.5140,0.1092,0.3000,0.0600,0.0002,0,-0.3000,-100.0000,-0.0010,-0.3000,-100.0000,-0.0010,9.8240,38.7645,0.0400,0.0100
-39.6387,-0.6806,0.3207,-0.0829,-0.0000,0.0000,0.0000,0.0000,0.0000,0.3341,0.0035,-0.0009,996,1502,1500,1500,2008,1000,1505,1505,1505,1364,2008,1112,1014,-0.0588,0.0116,0.0605,0.0144,-0.9585,-0.2730,0.3297,-0.3367,-0.3314,0.3384,0.5184,0.5140,0.1092,0.5184,0.5140,0.1092,0.3000,0.0600,0.0002,0,-0.3000,-100.0000,-0.0010,-0.3000,-100.0000,-0.0010,9.8608,38.8052,0.0200,0.0000
-39.6821,-0.6811,0.3218,-0.0829,-0.0000,0.0000,0.0000,0.0000,0.0000,0.3342,0.0036,-0.0008,996,1502,1500,1500,2008,1000,1505,1505,1505,1364,2008,1112,1014,0.0046,-0.0838,0.0464,0.0172,-0.9641,-0.2756,0.3298,-0.3371,-0.3314,0.3386,0.5184,0.5140,0.1092,0.5184,0.5140,0.1092,0.3000,0.0600,0.0002,0,-0.3000,-100.0000,-0.0010,-0.3000,-100.0000,-0.0010,9.8975,38.8459,0.0200,0.0000
-39.7255,-0.6821,0.3226,-0.0829,0.0821,0.0000,0.0000,0.0000,0.0000,0.3345,0.0036,-0.0006,996,1502,1500,1500,2008,1000,1505,1505,1505,1364,2008,1112,1014,-0.0275,-0.0713,-0.0195,0.0154,-0.9636,-0.2727,0.3303,-0.3375,-0.3314,0.3387,0.5184,0.5140,0.1092,0.5184,0.5140,0.1092,0.3000,0.0600,0.0002,0,-0.3000,-100.0000,-0.0010,-0.3000,-100.0000,-0.0010,9.9343,38.8867,0.0200,0.0000
-39.7696,-0.6833,0.3236,-0.0000,0.0821,0.0000,0.0000,0.0000,0.0000,0.3348,0.0036,-0.0006,996,1502,1500,1500,2008,1000,1505,1505,1505,1364,2008,1112,1014,-0.1003,-0.0710,-0.0207,0.0158,-0.9649,-0.2735,0.3306,-0.3378,-0.3317,0.3390,0.5184,0.5140,0.1092,0.5184,0.5140,0.1092,0.3000,0.0600,0.0002,0,-0.3000,-100.0000,-0.0010,-0.3000,-100.0000,-0.0010,9.9710,38.9273,0.0200,0.0000
-39.8138,-0.6845,0.3244,-0.0829,0.1642,0.0000,0.0000,0.0000,0.0000,0.3350,0.0036,-0.0006,996,1502,1500,1500,2008,1000,1505,1505,1505,1364,2008,1112,1014,-0.0953,-0.0584,-0.0288,0.0155,-0.9681,-0.2763,0.3308,-0.3380,-0.3320,0.3392,0.5184,0.5140,0.1092,0.5184,0.5140,0.1092,0.3000,0.0600,0.0002,0,-0.3000,-100.0000,-0.0010,-0.3000,-100.0000,-0.0010,10.0078,38.9680,0.0200,0.0000
-39.8582,-0.6858,0.3249,-0.0000,0.0821,0.0000,0.0600,0.3200,0.0000,0.3352,0.0039,0.0014,997,1503,1500,1500,2008,1000,1505,1505,1505,1364,2008,1112,1014,-0.1014,-0.0363,-0.0439,0.0183,-0.9643,-0.2799,0.3327,-0.3405,-0.3299,0.3377,0.5184,0.5140,0.1092,0.5184,0.5140,0.1092,0.3000,0.0600,0.0002,0,-0.3000,-100.0000,-0.0010,-0.3000,-100.0000,-0.0010,10.0446,39.0087,0.0400,0.0100
-39.9023,-0.6867,0.3256,-0.0829,0.0821,0.0000,0.0000,0.0000,0.0000,0.3355,0.0036,-0.0006,996,1502,1500,1500,2008,1000,1505,1505,1505,1364,2008,1112,1014,-0.0998,-0.0355,-0.0162,0.0154,-0.9651,-0.2763,0.3313,-0.3385,-0.3325,0.3397,0.5184,0.5140,0.1092,0.5184,0.5140,0.1092,0.3000,0.0600,0.0002,0,-0.3000,-100.0000,-0.0010,-0.3000,-100.0000,-0.0010,10.0813,39.0493,0.0200,0.0000
-39.9465,-0.6879,0.3264,0.0829,0.0821,0.0000,0.0000,0.0000,0.0000,0.3357,0.0036,-0.0006,996,1502,1500,1500,2008,1000,1505,1505,1505,1364,2008,1112,1014,-0.0640,-0.0485,-0.0122,0.0148,-0.9604,-0.2768,0.3314,-0.3387,-0.3326,0.3399,0.5184,0.5140,0.1092,0.5184,0.5140,0.1092,0.3000,0.0600,0.0002,0,-0.3000,-100.0000,-0.0010,-0.3000,-100.0000,-0.0010,10.1181,39.0900,0.0200,0.0000
-39.9902,-0.6889,0.3276,-0.0000,0.0821,0.0000,0.0000,0.0000,0.0000,0.3358,0.0036,-0.0007,996,1502,1500,1500,2008,1000,1505,1505,1505,1364,2008,1112,1014,-0.0128,-0.0691,0.0365,0.0149,-0.9645,-0.2734,0.3314,-0.3387,-0.3329,0.3402,0.5184,0.5140,0.1092,0.5184,0.5140,0.1092,0.3000,0.0600,0.0002,0,-0.3000,-100.0000,-0.0010,-0.3000,-100.0000,-0.0010,10.1549,39.1306,0.0200,0.0000
-40.0335,-0.6896,0.3288,-0.0829,0.0821,0.0000,0.0000,0.0000,0.0000,0.3361,0.0036,-0.0008,996,1502,1500,1500,2008,1000,1505,1505,1505,1364,2008,1112,1014,-0.0248,-0.0496,0.0581,0.0156,-0.9619,-0.2707,0.3316,-0.3389,-0.3332,0.3405,0.5184,0.5140,0.1092,0.5184,0.5140,0.1092,0.3000,0.0600,0.0002,0,-0.3000,-100.0000,-0.0010,-0.3000,-100.0000,-0.0010,10.1917,39.1712,0.0200,0.0000
-40.0766,-0.6901,0.3300,0.1657,0.0821,0.0000,0.0000,0.0000,0.0000,0.3362,0.0036,-0.0008,996,1502,1500,1500,2008,1000,1505,1505,1505,1364,2008,1112,1014,0.0238,-0.0489,0.0513,0.0157,-0.9655,-0.2781,0.3318,-0.3391,-0.3334,0.3407,0.5184,0.5140,0.1092,0.5184,0.5140,0.1092,0.3000,0.0600,0.0002,0,-0.3000,-100.0000,-0.0010,-0.3000,-100.0000,-0.0010,10.2286,39.2119,0.0200,0.0000
-40.1198,-0.6906,0.3312,-0.0000,0.0821,0.0000,0.0600,0.3200,0.0000,0.3365,0.0040,0.0012,997,1503,1500,1500,2008,1000,1505,1505,1505,1364,2008,1112,1014,-0.0194,-0.0741,0.0290,0.0151,-0.9648,-0.2790,0.3338,-0.3417,-0.3313,0.3392,0.5184,0.5140,0.1092,0.5184,0.5140,0.1092,0.3000,0.0600,0.0002,0,-0.3000,-100.0000,-0.0010,-0.3000,-100.0000,-0.0010,10.2654,39.2525,0.0400,0.0100
-40.1632,-0.6917,0.3323,0.0829,0.0821,0.0000,0.0000,0.0000,0.0000,0.3368,0.0037,-0.0006,996,1502,1500,1500,2008,1000,1505,1505,1505,1364,2008,1112,1014,-0.0675,-0.0851,-0.0236,0.0146,-0.9654,-0.2743,0.3325,-0.3399,-0.3337,0.3410,0.5184,0.5140,0.1092,0.5184,0.5140,0.1092,0.3000,0.0600,0.0002,0,-0.3000,-100.0000,-0.0010,-0.3000,-100.0000,-0.0010,10.3022,39.2931,0.0200,0.0000
-40.2069,-0.6927,0.3331,-0.0829,0.1642,0.0000,0.0000,0.0000,0.0000,0.3370,0.0036,-0.0006,996,1502,1500,1500,2008,1000,1505,1505,1505,1364,2008,1112,1014,-0.0357,-0.0516,-0.0042,0.0142,-0.9614,-0.2772,0.3327,-0.3400,-0.3340,0.3413,0.5184,0.5140,0.1092,0.5184,0.5140,0.1092,0.3000,0.0600,0.0002,0,-0.3000,-100.0000,-0.0010,-0.3000,-100.0000,-0.0010,10.3390,39.3336,0.0200,0.0000
-40.2507,-0.6938,0.3338,-0.0829,0.0821,0.0000,0.0000,0.0000,0.0000,0.3372,0.0037,-0.0007,996,1502,1500,1500,2008,1000,1505,1505,1505,1364,2008,1112,1014,-0.0703,-0.0522,0.0040,0.0168,-0.9625,-0.2734,0.3329,-0.3402,-0.3343,0.3416,0.5184,0.5140,0.1092,0.5184,0.5140,0.1092,0.3000,0.0600,0.0002,0,-0.3000,-100.0000,-0.0010,-0.3000,-100.0000,-0.0010,10.3759,39.3742,0.0200,0.0000
-40.2946,-0.6947,0.3349,-0.0000,0.0821,0.0000,0.0000,0.0000,0.0000,0.3374,0.0037,-0.0008,996,1502,1500,1500,2008,1000,1505,1505,1505,1364,2008,1112,1014,-0.0520,-0.0482,0.0387,0.0161,-0.9617,-0.2769,0.3330,-0.3403,-0.3346,0.3419,0.5184,0.5140,0.1092,0.5184,0.5140,0.1092,0.3000,0.0600,0.0002,0,-0.3000,-100.0000,-0.0010,-0.3000,-100.0000,-0.0010,10.4127,39.4148,0.0200,0.0000
-40.3384,-0.6953,0.3363,-0.0829,0.0821,0.0000,0.0000,0.0000,0.0000,0.3377,0.0037,-0.0009,996,1502,1500,1500,2008,1000,1505,1505,1505,1364,2008,1112,1014,-0.0619,-0.0761,0.0880,0.0155,-0.9625,-0.2787,0.3331,-0.3405,-0.3349,0.3423,0.5184,0.5140,0.1092,0.5184,0.5140,0.1092,0.3000,0.0600,0.0002,0,-0.3000,-100.0000,-0.0010,-0.3000,-100.0000,-0.0010,10.4496,39.4554,0.0200,0.0000
-40.3818,-0.6960,0.3380,0.0829,0.0821,0.0000,0.0600,0.3200,0.0000,0.3379,0.0040,0.0012,997,1503,1500,1500,2008,1000,1505,1505,1505,1364,2008,1112,1014,-0.0236,-0.1068,0.0431,0.0177,-0.9637,-0.2779,0.3350,-0.3431,-0.3327,0.3407,0.5184,0.5140,0.1092,0.5184,0.5140,0.1092,0.3000,0.0600,0.0002,0,-0.3000,-100.0000,-0.0010,-0.3000,-100.0000,-0.0010,10.4865,39.4960,0.0400,0.0100
-40.4253,-0.6971,0.3393,-0.0829,0.1642,0.0000,0.0000,0.0000,0.0000,0.3382,0.0037,-0.0007,996,1502,1500,1500,2008,1000,1505,1505,1505,1364,2008,1112,1014,-0.0787,-0.0733,0.0143,0.0172,-0.9654,-0.2740,0.3338,-0.3412,-0.3351,0.3425,0.5184,0.5140,0.1092,0.5184,0.5140,0.1092,0.3000,0.0600,0.0002,0,-0.3000,-100.0000,-0.0010,-0.3000,-100.0000,-0.0010,10.5234,39.5365,0.0200,0.0000
-40.4693,-0.6979,0.3400,-0.1657,0.0821,0.0000,0.0000,0.0000,0.0000,0.3384,0.0036,-0.0006,996,1502,1500,1500,2008,1000,1505,1505,1505,1364,2008,1112,1014,-0.0597,-0.0119,-0.0055,0.0156,-0.9662,-0.2772,0.3341,-0.3414,-0.3354,0.3426,0.5184,0.5140,0.1092,0.5184,0.5140,0.1092,0.3000,0.0600,0.0002,0,-0.3000,-100.0000,-0.0010,-0.3000,-100.0000,-0.0010,10.5603,39.5771,0.0200,0.0000
-40.5130,-0.6987,0.3409,0.1657,-0.0000,0.0000,0.0000,0.0000,0.0000,0.3386,0.0037,-0.0006,996,1502,1500,1500,2008,1000,1505,1505,1505,1364,2008,1112,1014,-0.0348,-0.0789,-0.0118,0.0157,-0.9663,-0.2779,0.3342,-0.3417,-0.3355,0.3429,0.5184,0.5140,0.1092,0.5184,0.5140,0.1092,0.3000,0.0600,0.0002,0,-0.3000,-100.0000,-0.0010,-0.3000,-100.0000,-0.0010,10.5972,39.6177,0.0200,0.0000
-40.5566,-0.7000,0.3419,-0.0829,0.1642,0.0000,0.0000,0.0000,0.0000,0.3388,0.0038,-0.0006,996,1502,1500,1500,2008,1000,1505,1505,1505,1364,2008,1112,1014,-0.0504,-0.1314,0.0030,0.0169,-0.9620,-0.2761,0.3344,-0.3419,-0.3357,0.3432,0.5184,0.5140,0.1092,0.5184,0.5140,0.1092,0.3000,0.0600,0.0002,0,-0.3000,-100.0000,-0.0010,-0.3000,-100.0000,-0.0010,10.6341,39.6582,0.0200,0.0000
-40.6001,-0.7014,0.3433,-0.0829,-0.0000,0.0000,0.0000,0.0000,0.0000,0.3390,0.0037,-0.0008,996,1502,1500,1500,2008,1000,1505,1505,1505,1364,2008,1112,1014,-0.0222,-0.0717,0.0546,0.0137,-0.9635,-0.2762,0.3345,-0.3419,-0.3361,0.3435,0.5184,0.5140,0.1092,0.5184,0.5140,0.1092,0.3000,0.0600,0.0002,0,-0.3000,-100.0000,-0.0010,-0.3000,-100.0000,-0.0010,10.6711,39.6988,0.0200,0.0000
-40.6436,-0.7019,0.3448,-0.0000,0.0821,0.0000,0.0600,0.3200,0.0000,0.3392,0.0040,0.0011,997,1503,1500,1500,2008,1000,1505,1505,1505,1364,2008,1112,1014,-0.0370,-0.0863,0.0748,0.0141,-0.9634,-0.2760,0.3362,-0.3443,-0.3341,0.3422,0.5184,0.5140,0.1092,0.5184,0.5140,0.1092,0.3000,0.0600,0.0002,0,-0.3000,-100.0000,-0.0010,-0.3000,-100.0000,-0.0010,10.7080,39.7393,0.0400,0.0100
-40.6870,-0.7027,0.3467,-0.0829,0.1642,0.0000,0.0000,0.0000,0.0000,0.3394,0.0038,-0.0009,996,1502,1500,1500,2008,1000,1505,1505,1505,1364,2008,1112,1014,-0.0023,-0.1038,0.0780,0.0187,-0.9669,-0.2776,0.3348,-0.3423,-0.3366,0.3441,0.5184,0.5140,0.1092,0.5184,0.5140,0.1092,0.3000,0.0600,0.0002,0,-0.3000,-100.0000,-0.0010,-0.3000,-100.0000,-0.0010,10.7449,39.7798,0.0200,0.0000
-40.7304,-0.7034,0.3485,0.0829,0.0821,0.0000,0.0000,0.0000,0.0000,0.3397,0.0037,-0.0009,996,1502,1500,1500,2008,1000,1505,1505,1505,1364,2008,1112,1014,-0.0041,-0.0666,0.0883,0.0167,-0.9652,-0.2731,0.3350,-0.3425,-0.3368,0.3443,0.5184,0.5140,0.1092,0.5184,0.5140,0.1092,0.3000,0.0600,0.0002,0,-0.3000,-100.0000,-0.0010,-0.3000,-100.0000,-0.0010,10.7819,39.8203,0.0200,0.0000
-40.7736,-0.7042,0.3500,-0.0829,0.1642,0.0000,0.0000,0.0000,0.0000,0.3399,0.0037,-0.0007,996,1502,1500,1500,2008,1000,1505,1505,1505,1364,2008,1112,1014,-0.0181,-0.0664,0.0308,0.0149,-0.9648,-0.2783,0.3354,-0.3429,-0.3369,0.3443,0.5184,0.5140,0.1092,0.5184,0.5140,0.1092,0.3000,0.0600,0.0002,0,-0.3000,-100.0000,-0.0010,-0.3000,-100.0000,-0.0010,10.8188,39.8608,0.0200,0.0000
-40.8171,-0.7047,0.3512,-0.0000,0.0821,0.0000,0.0000,0.0000,0.0000,0.3401,0.0037,-0.0008,996,1502,1500,1500,2008,1000,1505,1505,1505,1364,2008,1112,1014,-0.0338,-0.0314,0.0466,0.0154,-0.9646,-0.2735,0.3357,-0.3430,-0.3372,0.3446,0.5184,0.5140,0.1092,0.5184,0.5140,0.1092,0.3000,0.0600,0.0002,0,-0.3000,-100.0000,-0.0010,-0.3000,-100.0000,-0.0010,10.8558,39.9012,0.0200,0.0000
-40.8606,-0.7050,0.3523,-0.0829,0.0821,0.0000,0.0000,0.0000,0.0000,0.3404,0.0037,-0.0007,996,1502,1500,1500,2008,1000,1505,1505,1505,1364,2008,1112,1014,-0.0499,-0.0200,0.0220,0.0185,-0.9628,-0.2762,0.3360,-0.3434,-0.3374,0.3447,0.5184,0.5140,0.1092,0.5184,0.5140,0.1092,0.3000,0.0600,0.0002,0,-0.3000,-100.0000,-0.0010,-0.3000,-100.0000,-0.0010,10.8928,39.9416,0.0200,0.0000
-40.9042,-0.7056,0.3532,-0.0829,0.0821,0.0000,0.0600,0.3200,0.0000,0.3406,0.0040,0.0012,997,1503,1500,1500,2008,1000,1505,1505,1505,1364,2008,1112,1014,-0.0390,-0.0718,0.0210,0.0163,-0.9614,-0.2741,0.3377,-0.3458,-0.3354,0.3435,0.5184,0.5140,0.1092,0.5184,0.5140,0.1092,0.3000,0.0600,0.0002,0,-0.3000,-100.0000,-0.0010,-0.3000,-100.0000,-0.0010,10.9297,39.9821,0.0400,0.0100
-40.9475,-0.7063,0.3543,0.0829,0.0821,0.0000,0.0000,0.0000,0.0000,0.3408,0.0037,-0.0008,996,1502,1500,1500,2008,1000,1505,1505,1505,1364,2008,1112,1014,0.0049,-0.0446,0.0410,0.0139,-0.9642,-0.2744,0.3363,-0.3437,-0.3378,0.3453,0.5184,0.5140,0.1092,0.5184,0.5140,0.1092,0.3000,0.0600,0.0002,0,-0.3000,-100.0000,-0.0010,-0.3000,-100.0000,-0.0010,10.9667,40.0225,0.0200,0.0000
-40.9911,-0.7068,0.3557,-0.0829,0.1642,0.0000,0.0000,0.0000,0.0000,0.3411,0.0037,-0.0009,996,1502,1500,1500,2008,1000,1505,1505,1505,1364,2008,1112,1014,-0.0924,-0.0404,0.0910,0.0167,-0.9621,-0.2763,0.3365,-0.3439,-0.3383,0.3457,0.5184,0.5140,0.1092,0.5184,0.5140,0.1092,0.3000,0.0600,0.0002,0,-0.3000,-100.0000,-0.0010,-0.3000,-100.0000,-0.0010,11.0037,40.0629,0.0200,0.0000
-41.0354,-0.7071,0.3571,-0.0829,0.0821,0.0000,0.0000,0.0000,0.0000,0.3413,0.0037,-0.0008,996,1502,1500,1500,2008,1000,1505,1505,1505,1364,2008,1112,1014,-0.1110,-0.0667,0.0622,0.0116,-0.9644,-0.2788,0.3368,-0.3443,-0.3384,0.3459,0.5184,0.5140,0.1092,0.5184,0.5140,0.1092,0.3000,0.0600,0.0002,0,-0.3000,-100.0000,-0.0010,-0.3000,-100.0000,-0.0010,11.0407,40.1033,0.0200,0.0000
-41.0793,-0.7079,0.3582,-0.0000,0.0821,0.0000,0.0000,0.0000,0.0000,0.3415,0.0037,-0.0007,996,1502,1500,1500,2008,1000,1505,1505,1505,1364,2008,1112,1014,-0.0834,-0.0652,0.0151,0.0173,-0.9654,-0.2812,0.3371,-0.3446,-0.3385,0.3460,0.5184,0.5140,0.1092,0.5184,0.5140,0.1092,0.3000,0.0600,0.0002,0,-0.3000,-100.0000,-0.0010,-0.3000,-100.0000,-0.0010,11.0777,40.1437,0.0200,0.0000
-41.1230,-0.7085,0.3594,-0.0829,-0.0000,0.0000,0.0000,0.0000,0.0000,0.3418,0.0037,-0.0008,996,1502,1500,1500,2008,1000,1505,1505,1505,1364,2008,1112,1014,-0.0817,-0.0692,0.0416,0.0143,-0.9632,-0.2765,0.3373,-0.3448,-0.3388,0.3463,0.5184,0.5140,0.1092,0.5184,0.5140,0.1092,0.3000,0.0600,0.0002,0,-0.3000,-100.0000,-0.0010,-0.3000,-100.0000,-0.0010,11.1147,40.1841,0.0200,0.0000
-41.1668,-0.7090,0.3605,-0.0829,-0.0000,0.0000,0.0600,0.3200,0.0000,0.3420,0.0041,0.0012,997,1503,1500,1500,2008,1000,1505,1505,1505,1364,2008,1112,1014,-0.0706,-0.0671,0.0229,0.0145,-0.9619,-0.2752,0.3391,-0.3473,-0.3367,0.3448,0.5184,0.5140,0.1092,0.5184,0.5140,0.1092,0.3000,0.0600,0.0002,0,-0.3000,-100.0000,-0.0010,-0.3000,-100.0000,-0.0010,11.1517,40.2244,0.0400,0.0100
-41.2105,-0.7102,0.3612,0.0829,-0.0000,0.0000,0.0000,0.0000,0.0000,0.3422,0.0037,-0.0005,996,1502,1500,1500,2008,1000,1505,1505,1505,1364,2008,1112,1014,-0.0617,-0.0592,-0.0551,0.0139,-0.9593,-0.2787,0.3380,-0.3455,-0.3390,0.3464,0.5184,0.5140,0.1092,0.5184,0.5140,0.1092,0.3000,0.0600,0.0002,0,-0.3000,-100.0000,-0.0010,-0.3000,-100.0000,-0.0010,11.1887,40.2647,0.0200,0.0000
-41.2541,-0.7112,0.3619,0.0829,0.0821,0.0000,0.0000,0.0000,0.0000,0.3424,0.0037,-0.0007,996,1502,1500,1500,2008,1000,1505,1505,1505,1364,2008,1112,1014,-0.0438,-0.0437,-0.0008,0.0168,-0.9624,-0.2738,0.3380,-0.3455,-0.3393,0.3468,0.5184,0.5140,0.1092,0.5184,0.5140,0.1092,0.3000,0.0600,0.0002,0,-0.3000,-100.0000,-0.0010,-0.3000,-100.0000,-0.0010,11.2257,40.3051,0.0200,0.0000
-41.2978,-0.7115,0.3632,-0.0000,0.0821,0.0000,0.0000,0.0000,0.0000,0.3426,0.0038,-0.0007,996,1502,1500,1500,2008,1000,1505,1505,1505,1364,2008,1112,1014,-0.0520,-0.0595,0.0372,0.0171,-0.9632,-0.2760,0.3382,-0.3457,-0.3396,0.3471,0.5184,0.5140,0.1092,0.5184,0.5140,0.1092,0.3000,0.0600,0.0002,0,-0.3000,-100.0000,-0.0010,-0.3000,-100.0000,-0.0010,11.2628,40.3454,0.0200,0.0000
-41.3410,-0.7119,0.3642,-0.0829,0.1642,0.0000,0.0000,0.0000,0.0000,0.3428,0.0037,-0.0009,996,1502,1500,1500,2008,1000,1505,1505,1505,1364,2008,1112,1014,-0.0151,-0.0299,0.0673,0.0149,-0.9630,-0.2784,0.3382,-0.3457,-0.3400,0.3474,0.5184,0.5140,0.1092,0.5184,0.5140,0.1092,0.3000,0.0600,0.0002,0,-0.3000,-100.0000,-0.0010,-0.3000,-100.0000,-0.0010,11.2998,40.3858,0.0200,0.0000
-41.3846,-0.7124,0.3659,0.0829,0.0821,0.0000,0.0000,0.0000,0.0000,0.3431,0.0037,-0.0007,996,1502,1500,1500,2008,1000,1505,1505,1505,1364,2008,1112,1014,-0.0726,-0.0469,0.0401,0.0132,-0.9637,-0.2765,0.3386,-0.3461,-0.3401,0.3476,0.5184,0.5140,0.1092,0.5184,0.5140,0.1092,0.3000,0.0600,0.0002,0,-0.3000,-100.0000,-0.0010,-0.3000,-100.0000,-0.0010,11.3369,40.4262,0.0200,0.0000
-41.4281,-0.7130,0.3671,0.0829,0.0821,0.0000,0.0600,0.3200,0.0000,0.3433,0.0041,0.0012,997,1503,1500,1500,2008,1000,1505,1505,1505,1364,2008,1112,1014,0.0077,-0.0570,0.0245,0.0178,-0.9642,-0.2789,0.3404,-0.3486,-0.3379,0.3461,0.5184,0.5140,0.1092,0.5184,0.5140,0.1092,0.3000,0.0600,0.0002,0,-0.3000,-100.0000,-0.0010,-0.3000,-100.0000,-0.0010,11.3740,40.4665,0.0400,0.0100
-41.4713,-0.7138,0.3681,-0.0829,0.0821,0.0000,0.0000,0.0000,0.0000,0.3436,0.0038,-0.0008,996,1502,1500,1500,2008,1000,1505,1505,1505,1364,2008,1112,1014,-0.0688,-0.0496,0.0465,0.0158,-0.9612,-0.2767,0.3390,-0.3465,-0.3406,0.3481,0.5184,0.5140,0.1092,0.5184,0.5140,0.1092,0.3000,0.0600,0.0002,0,-0.3000,-100.0000,-0.0010,-0.3000,-100.0000,-0.0010,11.4111,40.5069,0.0200,0.0000
-41.5149,-0.7146,0.3693,-0.0000,0.0821,0.0000,0.0000,0.0000,0.0000,0.3438,0.0038,-0.0006,996,1502,1500,1500,2008,1000,1505,1505,1505,1364,2008,1112,1014,-0.0691,-0.0509,0.0021,0.0152,-0.9634,-0.2768,0.3394,-0.3469,-0.3407,0.3482,0.5184,0.5140,0.1092,0.5184,0.5140,0.1092,0.3000,0.0600,0.0002,0,-0.3000,-100.0000,-0.0010,-0.3000,-100.0000,-0.0010,11.4482,40.5472,0.0200,0.0000
-41.5581,-0.7155,0.3705,-0.0000,-0.0000,0.0000,0.0000,0.0000,0.0000,0.3440,0.0038,-0.0008,996,1502,1500,1500,2008,1000,1505,1505,1505,1364,2008,1112,1014,-0.0285,-0.1101,0.0708,0.0172,-0.9645,-0.2712,0.3393,-0.3470,-0.3410,0.3486,0.5184,0.5140,0.1092,0.5184,0.5140,0.1092,0.3000,0.0600,0.0002,0,-0.3000,-100.0000,-0.0010,-0.3000,-100.0000,-0.0010,11.4853,40.5875,0.0200,0.0000
-41.6013,-0.7163,0.3724,-0.0829,0.0821,0.0000,0.0000,0.0000,0.0000,0.3442,0.0038,-0.0008,996,1502,1500,1500,2008,1000,1505,1505,1505,1364,2008,1112,1014,-0.0328,-0.0868,0.0429,0.0146,-0.9632,-0.2768,0.3396,-0.3472,-0.3412,0.3488,0.5184,0.5140,0.1092,0.5184,0.5140,0.1092,0.3000,0.0600,0.0002,0,-0.3000,-100.0000,-0.0010,-0.3000,-100.0000,-0.0010,11.5224,40.6277,0.0200,0.0000
-41.6446,-0.7172,0.3738,-0.0829,0.0821,0.0000,0.0000,0.0000,0.0000,0.3444,0.0038,-0.0007,996,1502,1500,1500,2008,1000,1505,1505,1505,1364,2008,1112,1014,-0.0097,-0.0696,0.0333,0.0173,-0.9638,-0.2764,0.3399,-0.3475,-0.3413,0.3489,0.5184,0.5140,0.1092,0.5184,0.5140,0.1092,0.3000,0.0600,0.0002,0,-0.3000,-100.0000,-0.0010,-0.3000,-100.0000,-0.0010,11.5595,40.6680,0.0200,0.0000
-41.6876,-0.7177,0.3748,-0.0000,0.0821,0.0000,0.0600,0.3200,0.0000,0.3446,0.0040,0.0012,997,1503,1500,1500,2008,1000,1505,1505,1505,1364,2008,1112,1014,-0.0250,-0.0035,0.0255,0.0143,-0.9631,-0.2776,0.3418,-0.3499,-0.3394,0.3475,0.5184,0.5140,0.1092,0.5184,0.5140,0.1092,0.3000,0.0600,0.0002,0,-0.3000,-100.0000,-0.0010,-0.3000,-100.0000,-0.0010,11.5966,40.7082,0.0400,0.0100
-41.7308,-0.7184,0.3756,-0.0829,0.0821,0.0000,0.0000,0.0000,0.0000,0.3449,0.0037,-0.0007,996,1502,1500,1500,2008,1000,1505,1505,1505,1364,2008,1112,1014,-0.0354,-0.0214,0.0089,0.0167,-0.9662,-0.2776,0.3405,-0.3480,-0.3418,0.3493,0.5184,0.5140,0.1092,0.5184,0.5140,0.1092,0.3000,0.0600,0.0002,0,-0.3000,-100.0000,-0.0010,-0.3000,-100.0000,-0.0010,11.6338,40.7484,0.0200,0.0000
-41.7747,-0.7188,0.3763,0.0829,-0.0000,0.0000,0.0000,0.0000,0.0000,0.3452,0.0037,-0.0007,996,1502,1500,1500,2008,1000,1505,1505,1505,1364,2008,1112,1014,-0.0999,-0.0129,0.0160,0.0145,-0.9636,-0.2778,0.3408,-0.3482,-0.3421,0.3496,0.5184,0.5140,0.1092,0.5184,0.5140,0.1092,0.3000,0.0600,0.0002,0,-0.3000,-100.0000,-0.0010,-0.3000,-100.0000,-0.0010,11.6709,40.7886,0.0200,0.0000
-41.8183,-0.7193,0.3767,-0.0829,0.0821,0.0000,0.0000,0.0000,0.0000,0.3453,0.0037,-0.0006,996,1502,1500,1500,2008,1000,1505,1505,1505,1364,2008,1112,1014,-0.0507,-0.0020,-0.0203,0.0145,-0.9652,-0.2728,0.3410,-0.3485,-0.3422,0.3497,0.5184,0.5140,0.1092,0.5184,0.5140,0.1092,0.3000,0.0600,0.0002,0,-0.3000,-100.0000,-0.0010,-0.3000,-100.0000,-0.0010,11.7081,40.8288,0.0200,0.0000
-41.8616,-0.7197,0.3773,-0.0829,0.0821,0.0000,0.0000,0.0000,0.0000,0.3455,0.0037,-0.0007,996,1502,1500,1500,2008,1000,1505,1505,1505,1364,2008,1112,1014,-0.0237,0.0276,0.0266,0.0147,-0.9628,-0.2789,0.3411,-0.3485,-0.3426,0.3500,0.5184,0.5140,0.1092,0.5184,0.5140,0.1092,0.3000,0.0600,0.0002,0,-0.3000,-100.0000,-0.0010,-0.3000,-100.0000,-0.0010,11.7452,40.8690,0.0200,0.0000
-41.9049,-0.7199,0.3781,-0.0829,0.1642,0.0000,0.0000,0.0000,0.0000,0.3458,0.0038,-0.0007,996,1502,1500,1500,2008,1000,1505,1505,1505,1364,2008,1112,1014,-0.0382,-0.0171,0.0208,0.0129,-0.9643,-0.2757,0.3413,-0.3488,-0.3427,0.3502,0.5184,0.5140,0.1092,0.5184,0.5140,0.1092,0.3000,0.0600,0.0002,0,-0.3000,-100.0000,-0.0010,-0.3000,-100.0000,-0.0010,11.7824,40.9091,0.0200,0.0000
-41.9483,-0.7201,0.3793,-0.0829,0.1642,0.0000,0.0600,0.3200,0.0000,0.3460,0.0041,0.0010,997,1503,1500,1500,2008,1000,1505,1505,1505,1364,2008,1112,1014,-0.0507,-0.0549,0.0924,0.0148,-0.9623,-0.2736,0.3429,-0.3511,-0.3409,0.3491,0.5184,0.5140,0.1092,0.5184,0.5140,0.1092,0.3000,0.0600,0.0002,0,-0.3000,-100.0000,-0.0010,-0.3000,-100.0000,-0.0010,11.8195,40.9493,0.0400,0.0100
-41.9914,-0.7203,0.3809,-0.0829,0.1642,0.0000,0.0000,0.0000,0.0000,0.3462,0.0037,-0.0009,996,1502,1500,1500,2008,1000,1505,1505,1505,1364,2008,1112,1014,-0.0219,-0.0098,0.0894,0.0179,-0.9646,-0.2789,0.3416,-0.3490,-0.3434,0.3509,0.5184,0.5140,0.1092,0.5184,0.5140,0.1092,0.3000,0.0600,0.0002,0,-0.3000,-100.0000,-0.0010,-0.3000,-100.0000,-0.0010,11.8567,40.9894,0.0200,0.0000
-42.0346,-0.7208,0.3820,-0.0000,0.0821,0.0000,0.0000,0.0000,0.0000,0.3465,0.0038,-0.0009,996,1502,1500,1500,2008,1000,1505,1505,1505,1364,2008,1112,1014,-0.0613,-0.0712,0.0796,0.0173,-0.9655,-0.2810,0.3418,-0.3494,-0.3435,0.3512,0.5184,0.5140,0.1092,0.5184,0.5140,0.1092,0.3000,0.0600,0.0002,0,-0.3000,-100.0000,-0.0010,-0.3000,-100.0000,-0.0010,11.8939,41.0296,0.0200,0.0000
-42.0779,-0.7216,0.3835,-0.0829,0.0821,0.0000,0.0000,0.0000,0.0000,0.3467,0.0038,-0.0007,996,1502,1500,1500,2008,1000,1505,1505,1505,1364,2008,1112,1014,-0.0567,-0.0905,0.0184,0.0173,-0.9634,-0.2772,0.3422,-0.3499,-0.3435,0.3512,0.5184,0.5140,0.1092,0.5184,0.5140,0.1092,0.3000,0.0600,0.0002,0,-0.3000,-100.0000,-0.0010,-0.3000,-100.0000,-0.0010,11.9311,41.0697,0.0200,0.0000
-42.1216,-0.7226,0.3844,-0.0000,0.0821,0.0000,0.0000,0.0000,0.0000,0.3469,0.0038,-0.0006,996,1502,1500,1500,2008,1000,1505,1505,1505,1364,2008,1112,1014,-0.0768,-0.0267,-0.0095,0.0173,-0.9628,-0.2758,0.3426,-0.3501,-0.3438,0.3513,0.5184,0.5140,0.1092,0.5184,0.5140,0.1092,0.3000,0.0600,0.0002,0,-0.3000,-100.0000,-0.0010,-0.3000,-100.0000,-0.0010,11.9683,41.1098,0.0200,0.0000
-42.1652,-0.7232,0.3848,-0.0829,0.0821,0.0000,0.0000,0.0000,0.0000,0.3472,0.0038,-0.0006,996,1502,1500,1500,2008,1000,1505,1505,1505,1364,2008,1112,1014,-0.0827,-0.0067,-0.0179,0.0168,-0.9655,-0.2725,0.3428,-0.3503,-0.3440,0.3515,0.5184,0.5140,0.1092,0.5184,0.5140,0.1092,0.3000,0.0600,0.0002,0,-0.3000,-100.0000,-0.0010,-0.3000,-100.0000,-0.0010,12.0055,41.1499,0.0200,0.0000
-42.2088,-0.7240,0.3858,0.0829,0.1642,0.0000,0.0600,0.3200,0.0000,0.3474,0.0041,0.0012,997,1503,1500,1500,2008,1000,1505,1505,1505,1364,2008,1112,1014,-0.0479,-0.0329,0.0402,0.0137,-0.9632,-0.2748,0.3444,-0.3526,-0.3421,0.3503,0.5184,0.5140,0.1092,0.5184,0.5140,0.1092,0.3000,0.0600,0.0002,0,-0.3000,-100.0000,-0.0010,-0.3000,-100.0000,-0.0010,12.0428,41.1900,0.0400,0.0100
-42.2524,-0.7245,0.3869,-0.1657,0.0821,0.0000,0.0000,0.0000,0.0000,0.3476,0.0038,-0.0010,996,1502,1500,1500,2008,1000,1505,1505,1505,1364,2008,1112,1014,-0.0896,-0.0281,0.0975,0.0178,-0.9619,-0.2794,0.3429,-0.3505,-0.3448,0.3524,0.5184,0.5140,0.1092,0.5184,0.5140,0.1092,0.3000,0.0600,0.0002,0,-0.3000,-100.0000,-0.0010,-0.3000,-100.0000,-0.0010,12.0800,41.2301,0.0200,0.0000
-42.2959,-0.7248,0.3886,-0.0829,-0.0000,0.0000,0.0000,0.0000,0.0000,0.3478,0.0038,-0.0009,996,1502,1500,1500,2008,1000,1505,1505,1505,1364,2008,1112,1014,-0.0216,-0.0716,0.0906,0.0152,-0.9654,-0.2755,0.3430,-0.3507,-0.3449,0.3525,0.5184,0.5140,0.1092,0.5184,0.5140,0.1092,0.3000,0.0600,0.0002,0,-0.3000,-100.0000,-0.0010,-0.3000,-100.0000,-0.0010,12.1172,41.2702,0.0200,0.0000
-42.3390,-0.7253,0.3903,-0.0000,0.0821,0.0000,0.0000,0.0000,0.0000,0.3480,0.0038,-0.0008,996,1502,1500,1500,2008,1000,1505,1505,1505,1364,2008,1112,1014,-0.0220,-0.0516,0.0550,0.0136,-0.9630,-0.2745,0.3434,-0.3510,-0.3450,0.3526,0.5184,0.5140,0.1092,0.5184,0.5140,0.1092,0.3000,0.0600,0.0002,0,-0.3000,-100.0000,-0.0010,-0.3000,-100.0000,-0.0010,12.1545,41.3103,0.0200,0.0000
-42.3822,-0.7257,0.3914,-0.0829,0.1642,0.0000,0.0000,0.0000,0.0000,0.3482,0.0038,-0.0008,996,1502,1500,1500,2008,1000,1505,1505,1505,1364,2008,1112,1014,-0.0263,-0.0010,0.0547,0.0173,-0.9646,-0.2784,0.3436,-0.3512,-0.3453,0.3528,0.5184,0.5140,0.1092,0.5184,0.5140,0.1092,0.3000,0.0600,0.0002,0,-0.3000,-100.0000,-0.0010,-0.3000,-100.0000,-0.0010,12.1917,41.3504,0.0200,0.0000
-42.4253,-0.7259,0.3922,-0.0000,0.0821,0.0000,0.0000,0.0000,0.0000,0.3485,0.0038,-0.0006,996,1502,1500,1500,2008,1000,1505,1505,1505,1364,2008,1112,1014,-0.0236,-0.0275,0.0029,0.0134,-0.9643,-0.2766,0.3440,-0.3516,-0.3453,0.3529,0.5184,0.5140,0.1092,0.5184,0.5140,0.1092,0.3000,0.0600,0.0002,0,-0.3000,-100.0000,-0.0010,-0.3000,-100.0000,-0.0010,12.2290,41.3904,0.0200,0.0000
-42.4685,-0.7265,0.3930,-0.0000,0.0821,0.0000,0.0600,0.3200,0.0000,0.3487,0.0041,0.0012,997,1503,1500,1500,2008,1000,1505,1505,1505,1364,2008,1112,1014,-0.0074,-0.0013,0.0161,0.0137,-0.9669,-0.2791,0.3458,-0.3540,-0.3434,0.3515,0.5184,0.5140,0.1092,0.5184,0.5140,0.1092,0.3000,0.0600,0.0002,0,-0.3000,-100.0000,-0.0010,-0.3000,-100.0000,-0.0010,12.2663,41.4304,0.0400,0.0100
-42.5115,-0.7267,0.3936,-0.0829,0.0821,0.0000,0.0000,0.0000,0.0000,0.3489,0.0037,-0.0008,996,1502,1500,1500,2008,1000,1505,1505,1505,1364,2008,1112,1014,-0.0144,0.0246,0.0392,0.0153,-0.9611,-0.2745,0.3444,-0.3519,-0.3459,0.3534,0.5184,0.5140,0.1092,0.5184,0.5140,0.1092,0.3000,0.0600,0.0002,0,-0.3000,-100.0000,-0.0010,-0.3000,-100.0000,-0.0010,12.3036,41.4705,0.0200,0.0000
-42.5549,-0.7271,0.3944,-0.0000,0.0821,0.0000,0.0000,0.0000,0.0000,0.3492,0.0038,-0.0008,996,1502,1500,1500,2008,1000,1505,1505,1505,1364,2008,1112,1014,-0.0561,-0.0164,0.0341,0.0157,-0.9645,-0.2695,0.3446,-0.3522,-0.3462,0.3537,0.5184,0.5140,0.1092,0.5184,0.5140,0.1092,0.3000,0.0600,0.0002,0,-0.3000,-100.0000,-0.0010,-0.3000,-100.0000,-0.0010,12.3408,41.5105,0.0200,0.0000
-42.5979,-0.7277,0.3954,0.0829,0.0821,0.0000,0.0000,0.0000,0.0000,0.3493,0.0038,-0.0006,996,1502,1500,1500,2008,1000,1505,1505,1505,1364,2008,1112,1014,-0.0175,-0.0339,-0.0198,0.0149,-0.9639,-0.2744,0.3449,-0.3526,-0.3461,0.3538,0.5184,0.5140,0.1092,0.5184,0.5140,0.1092,0.3000,0.0600,0.0002,0,-0.3000,-100.0000,-0.0010,-0.3000,-100.0000,-0.0010,12.3781,41.5505,0.0200,0.0000
-42.6409,-0.7284,0.3965,-0.0829,0.0821,0.0000,0.0000,0.0000,0.0000,0.3496,0.0038,-0.0008,996,1502,1500,1500,2008,1000,1505,1505,1505,1364,2008,1112,1014,-0.0168,-0.0242,0.0445,0.0181,-0.9655,-0.2802,0.3450,-0.3526,-0.3465,0.3541,0.5184,0.5140,0.1092,0.5184,0.5140,0.1092,0.3000,0.0600,0.0002,0,-0.3000,-100.0000,-0.0010,-0.3000,-100.0000,-0.0010,12.4154,41.5905,0.0200,0.0000
-42.6838,-0.7288,0.3972,-0.0829,0.0821,0.0000,0.0000,0.0000,0.0000,0.3498,0.0038,-0.0007,996,1502,1500,1500,2008,1000,1505,1505,1505,1364,2008,1112,1014,-0.0244,0.0000,0.0089,0.0163,-0.9669,-0.2827,0.3453,-0.3529,-0.3467,0.3543,0.5184,0.5140,0.1092,0.5184,0.5140,0.1092,0.3000,0.0600,0.0002,0,-0.3000,-100.0000,-0.0010,-0.3000,-100.0000,-0.0010,12.4528,41.6305,0.0200,0.0000
-42.7267,-0.7291,0.3983,0.0829,0.0821,0.0000,0.0600,0.3200,0.0000,0.3499,0.0043,0.0013,997,1503,1500,1500,2008,1000,1505,1505,1505,1364,2008,1112,1014,0.1091,-0.1495,0.0174,0.0100,-0.9713,-0.2702,0.3469,-0.3554,-0.3444,0.3529,0.5184,0.5140,0.1092,0.5184,0.5140,0.1092,0.3000,0.0600,0.0002,0,-0.3000,-100.0000,-0.0010,-0.3000,-100.0000,-0.0010,12.4901,41.6705,0.0400,0.0100
-42.7652,-0.7328,0.4013,-0.1657,0.1642,0.0000,0.0000,0.0000,0.0000,0.3493,0.0046,-0.0004,996,1502,1500,1500,2008,1000,1505,1505,1505,1364,2008,1112,1014,0.8161,-0.7574,-0.0787,-0.0011,-0.9930,-0.2667,0.3443,-0.3535,-0.3451,0.3544,0.5184,0.5140,0.1092,0.5184,0.5140,0.1092,0.3000,0.0600,0.0002,0,-0.3000,-100.0000,-0.0010,-0.3000,-100.0000,-0.0010,12.5274,41.7105,0.0200,0.0000
-42.7901,-0.7449,0.4169,0.0829,0.0821,0.0000,0.0000,0.0000,0.0000,0.3474,0.0075,-0.0024,996,1502,1500,1500,2008,1000,1505,1505,1505,1364,2008,1112,1014,2.6577,-3.2891,0.5394,-0.0238,-0.9907,-0.2396,0.3376,-0.3525,-0.3424,0.3573,0.5184,0.5140,0.1092,0.5184,0.5140,0.1092,0.3000,0.0600,0.0002,0,-0.3000,-100.0000,-0.0010,-0.3000,-100.0000,-0.0010,12.5648,41.7504,0.0200,0.0000
-42.7917,-0.7699,0.4591,-0.0000,0.1642,0.0000,0.0000,0.0000,0.0000,0.3448,0.0102,-0.0067,996,1502,1500,1500,2008,1000,1505,1505,1505,1364,2008,1112,1014,5.0606,-5.7168,1.9406,-0.0351,-0.9842,-0.2820,0.3278,-0.3483,-0.3413,0.3618,0.5184,0.5140,0.1092,0.5184,0.5140,0.1092,0.3000,0.0600,0.0002,0,-0.3000,-100.0000,-0.0010,-0.3000,-100.0000,-0.0010,12.6021,41.7903,0.0200,0.0000
-42.7724,-0.8065,0.5358,-0.0829,0.4104,0.0000,0.0000,0.0000,0.0000,0.3425,0.0143,-0.0123,996,1502,1500,1500,2008,1000,1505,1505,1505,1364,2008,1112,1014,7.0961,-9.2830,3.7726,-0.0089,-0.9766,-0.2682,0.3159,-0.3445,-0.3405,0.3691,0.5184,0.5140,0.1092,0.5184,0.5140,0.1092,0.3000,0.0600,0.0002,0,-0.3000,-100.0000,-0.0010,-0.3000,-100.0000,-0.0010,12.6395,41.8303,0.0200,0.0000
-42.7347,-0.8508,0.6477,-0.0829,0.4925,0.0000,0.0000,0.0000,0.0000,0.3412,0.0166,-0.0188,996,1502,1500,1500,2008,1000,1505,1505,1505,1364,2008,1112,1014,8.1160,-11.1773,5.9390,-0.0090,-0.9696,-0.2920,0.3057,-0.3389,-0.3434,0.3766,0.5184,0.5140,0.1092,0.5184,0.5140,0.1092,0.3000,0.0600,0.0002,0,-0.3000,-100.0000,-0.0010,-0.3000,-100.0000,-0.0010,12.6768,41.8702,0.0200,0.0000
-42.6933,-0.8946,0.7862,0.1657,0.3283,0.0000,0.0600,0.3200,0.0000,0.3408,0.0183,-0.0211,997,1503,1500,1500,2008,1000,1505,1505,1505,1364,2008,1112,1014,8.2614,-12.2369,7.3989,0.0238,-0.9692,-0.2711,0.3013,-0.3380,-0.3436,0.3803,0.5184,0.5140,0.1092,0.5184,0.5140,0.1092,0.3000,0.0600,0.0002,0,-0.3000,-100.0000,-0.0010,-0.3000,-100.0000,-0.0010,12.7142,41.9101,0.0400,0.0100
-42.6506,-0.9355,0.9304,-0.0000,0.2462,0.0000,0.0000,0.0000,0.0000,0.3403,0.0175,-0.0225,996,1502,1500,1500,2008,1000,1505,1505,1505,1364,2008,1112,1014,8.5167,-11.5931,7.2960,0.0549,-0.9828,-0.2510,0.3003,-0.3353,-0.3453,0.3803,0.5184,0.5140,0.1092,0.5184,0.5140,0.1092,0.3000,0.0600,0.0002,0,-0.3000,-100.0000,-0.0010,-0.3000,-100.0000,-0.0010,12.7516,41.9501,0.0200,0.0000
-42.6010,-0.9730,1.0566,-0.0829,-0.0000,0.0000,0.0000,0.0000,0.0000,0.3390,0.0154,-0.0170,996,1502,1500,1500,2008,1000,1505,1505,1505,1364,2008,1112,1014,9.4909,-9.5173,5.4997,0.0306,-0.9803,-0.2540,0.3066,-0.3374,-0.3405,0.3714,0.5184,0.5140,0.1092,0.5184,0.5140,0.1092,0.3000,0.0600,0.0002,0,-0.3000,-100.0000,-0.0010,-0.3000,-100.0000,-0.0010,12.7890,41.9900,0.0200,0.0000
-42.5385,-1.0104,1.1485,0.0829,-0.3283,0.0000,0.0000,0.0000,0.0000,0.3365,0.0133,-0.0081,996,1502,1500,1500,2008,1000,1505,1505,1505,1364,2008,1112,1014,11.4654,-7.3559,2.5818,0.0403,-1.0050,-0.2601,0.3151,-0.3416,-0.3313,0.3579,0.5184,0.5140,0.1092,0.5184,0.5140,0.1092,0.3000,0.0600,0.0002,0,-0.3000,-100.0000,-0.0010,-0.3000,-100.0000,-0.0010,12.8264,42.0300,0.0200,0.0000
-42.4460,-1.0499,1.1945,-0.1657,-0.4925,0.0000,0.0000,0.0000,0.0000,0.3331,0.0099,0.0027,996,1502,1500,1500,2008,1000,1505,1505,1505,1364,2008,1112,1014,14.1659,-4.1244,-1.0182,0.0361,-1.0020,-0.2733,0.3258,-0.3457,-0.3204,0.3403,0.5184,0.5140,0.1092,0.5184,0.5140,0.1092,0.3000,0.0600,0.0002,0,-0.3000,-100.0000,-0.0010,-0.3000,-100.0000,-0.0010,12.8638,42.0699,0.0200,0.0000
-42.3207,-1.0910,1.1928,-0.0000,-0.6566,0.0000,0.0000,0.0000,0.0000,0.3280,0.0076,0.0124,996,1502,1500,1500,2008,1000,1505,1505,1505,1364,2008,1112,1014,18.1840,-1.7889,-4.2685,-0.0055,-1.0422,-0.2761,0.3328,-0.3480,-0.3081,0.3233,0.5184,0.5140,0.1092,0.5184,0.5140,0.1092,0.3000,0.0600,0.0002,0,-0.3000,-100.0000,-0.0010,-0.3000,-100.0000,-0.0010,12.9013,42.1098,0.0200,0.0000
-42.1414,-1.1406,1.1610,-0.0000,-0.5746,0.0000,0.0600,0.3200,0.0000,0.3211,0.0077,0.0207,997,1503,1500,1500,2008,1000,1505,1505,1505,1364,2008,1112,1014,23.6721,-1.3938,-6.4467,-0.0075,-1.0518,-0.2603,0.3340,-0.3495,-0.2927,0.3082,0.5184,0.5140,0.1092,0.5184,0.5140,0.1092,0.3000,0.0600,0.0002,0,-0.3000,-100.0000,-0.0010,-0.3000,-100.0000,-0.0010,12.9387,42.1497,0.0400,0.0100
-41.8985,-1.2003,1.1172,-0.0000,-0.4925,0.0000,0.0000,0.0000,0.0000,0.3125,0.0080,0.0211,996,1502,1500,1500,2008,1000,1505,1505,1505,1364,2008,1112,1014,30.4218,-1.6258,-7.2704,0.0048,-1.0805,-0.2574,0.3255,-0.3415,-0.2834,0.2994,0.5184,0.5140,0.1092,0.5184,0.5140,0.1092,0.3000,0.0600,0.0002,0,-0.3000,-100.0000,-0.0010,-0.3000,-100.0000,-0.0010,12.9762,42.1896,0.0200,0.0000
-41.5798,-1.2683,1.0787,-0.0829,-0.3283,0.0000,0.0000,0.0000,0.0000,0.3025,0.0096,0.0199,996,1502,1500,1500,2008,1000,1505,1505,1505,1364,2008,1112,1014,38.0214,-2.7790,-6.8940,0.0068,-1.0618,-0.2472,0.3128,-0.3320,-0.2731,0.2923,0.5184,0.5140,0.1092,0.5184,0.5140,0.1092,0.3000,0.0600,0.0002,0,-0.3000,-100.0000,-0.0010,-0.3000,-100.0000,-0.0010,13.0136,42.2295,0.0200,0.0000
-41.1835,-1.3356,1.0480,-0.0000,-0.3283,0.0000,0.0000,0.0000,0.0000,0.2931,0.0097,0.0174,996,1502,1500,1500,2008,1000,1505,1505,1505,1364,2008,1112,1014,44.7532,-2.5857,-6.0810,0.0295,-1.0288,-0.2285,0.3008,-0.3203,-0.2659,0.2854,0.5184,0.5140,0.1092,0.5184,0.5140,0.1092,0.3000,0.0600,0.0002,0,-0.3000,-100.0000,-0.0010,-0.3000,-100.0000,-0.0010,13.0511,42.2694,0.0200,0.0000
-40.7225,-1.3891,1.0136,-0.1657,-0.2462,0.0000,0.0000,0.0000,0.0000,0.2841,0.0074,0.0163,996,1502,1500,1500,2008,1000,1505,1505,1505,1364,2008,1112,1014,50.8025,-0.1520,-5.6515,0.0676,-1.0165,-0.2437,0.2931,-0.3078,-0.2605,0.2752,0.5184,0.5140,0.1092,0.5184,0.5140,0.1092,0.3000,0.0600,0.0002,0,-0.3000,-100.0000,-0.0010,-0.3000,-100.0000,-0.0010,13.0886,42.3092,0.0200,0.0000
-40.2044,-1.4169,0.9562,-0.0000,-0.4925,0.0000,0.0000,0.0000,0.0000,0.2764,0.0032,0.0178,996,1502,1500,1500,2008,1000,1505,1505,1505,1364,2008,1112,1014,55.4122,3.7633,-6.1020,0.0657,-1.0103,-0.2362,0.2910,-0.2975,-0.2554,0.2618,0.5184,0.5140,0.1092,0.5184,0.5140,0.1092,0.3000,0.0600,0.0002,0,-0.3000,-100.0000,-0.0010,-0.3000,-100.0000,-0.0010,13.1260,42.3491,0.0200,0.0000
-39.6385,-1.4133,0.8629,-0.0829,-0.5746,0.0000,0.0600,0.3200,0.0000,0.2686,-0.0012,0.0224,997,1503,1500,1500,2008,1000,1505,1505,1505,1364,2008,1112,1014,59.9061,8.0976,-6.9787,0.0437,-1.0345,-0.2211,0.2922,-0.2898,-0.2473,0.2449,0.5184,0.5140,0.1092,0.5184,0.5140,0.1092,0.3000,0.0600,0.0002,0,-0.3000,-100.0000,-0.0010,-0.3000,-100.0000,-0.0010,13.1635,42.3889,0.0400,0.0100
-39.0263,-1.3857,0.7385,-0.0000,-0.8208,0.0000,0.0000,0.0000,0.0000,0.2606,-0.0048,0.0233,996,1502,1500,1500,2008,1000,1505,1505,1505,1364,2008,1112,1014,64.2560,10.9515,-7.9090,0.0231,-1.0455,-0.2083,0.2887,-0.2792,-0.2421,0.2326,0.5184,0.5140,0.1092,0.5184,0.5140,0.1092,0.3000,0.0600,0.0002,0,-0.3000,-100.0000,-0.0010,-0.3000,-100.0000,-0.0010,13.2010,42.4286,0.0200,0.0000
-38.3637,-1.3437,0.5962,-0.0000,-0.7387,0.0000,0.0000,0.0000,0.0000,0.2517,-0.0060,0.0244,996,1502,1500,1500,2008,1000,1505,1505,1505,1364,2008,1112,1014,69.2713,11.8665,-8.2972,0.0073,-1.0519,-0.2024,0.2822,-0.2702,-0.2333,0.2213,0.5184,0.5140,0.1092,0.5184,0.5140,0.1092,0.3000,0.0600,0.0002,0,-0.3000,-100.0000,-0.0010,-0.3000,-100.0000,-0.0010,13.2385,42.4683,0.0200,0.0000
-37.6479,-1.3009,0.4537,-0.0000,-0.7387,0.0000,0.0000,0.0000,0.0000,0.2421,-0.0055,0.0241,996,1502,1500,1500,2008,1000,1505,1505,1505,1363,2008,1112,1014,74.4468,11.2073,-8.1997,0.0119,-1.0458,-0.1768,0.2718,-0.2608,-0.2235,0.2125,0.5178,0.5140,0.1092,0.5178,0.5140,0.1092,0.3000,0.0600,0.0002,0,-0.3000,-100.0000,-0.0010,-0.3000,-100.0000,-0.0010,13.2760,42.5080,0.0200,0.0000
-36.8793,-1.2642,0.3205,-0.0829,-0.4925,0.0000,0.0000,0.0000,0.0000,0.2329,-0.0042,0.0234,996,1502,1500,1500,2008,1000,1505,1505,1505,1363,2008,1112,1014,79.3016,9.8598,-7.9318,0.0053,-1.0382,-0.1615,0.2605,-0.2520,-0.2137,0.2053,0.5178,0.5140,0.1092,0.5178,0.5140,0.1092,0.3000,0.0600,0.0002,0,-0.3000,-100.0000,-0.0010,-0.3000,-100.0000,-0.0010,13.3135,42.5478,0.0200,0.0000
-36.0658,-1.2337,0.1972,-0.0829,-0.4104,0.0000,0.0000,0.0000,0.0000,0.2249,-0.0035,0.0224,996,1502,1500,1500,2008,1000,1505,1505,1505,1364,2008,1112,1014,82.9764,9.0738,-7.5969,0.0243,-1.0245,-0.1437,0.2508,-0.2437,-0.2060,0.1989,0.5184,0.5140,0.1092,0.5184,0.5140,0.1092,0.3000,0.0600,0.0002,0,-0.3000,-100.0000,-0.0010,-0.3000,-100.0000,-0.0010,13.3510,42.5875,0.0200,0.0000
-35.2208,-1.2024,0.0793,-0.0829,-0.2462,0.0000,0.0600,0.3200,0.0000,0.2176,-0.0036,0.0233,997,1503,1500,1500,2008,1000,1505,1505,1505,1364,2008,1112,1014,85.5695,9.3155,-7.2209,0.0339,-1.0122,-0.1321,0.2445,-0.2373,-0.1980,0.1908,0.5184,0.5140,0.1092,0.5184,0.5140,0.1092,0.3000,0.0600,0.0002,0,-0.3000,-100.0000,-0.0010,-0.3000,-100.0000,-0.0010,13.3885,42.6271,0.0400,0.0100
-34.3528,-1.1630,-0.0379,-0.0000,-0.2462,0.0000,0.0000,0.0000,0.0000,0.2110,-0.0047,0.0204,996,1502,1500,1500,2008,1000,1505,1505,1505,1364,2008,1112,1014,87.5334,9.7827,-6.9023,0.0309,-0.9903,-0.1050,0.2361,-0.2268,-0.1952,0.1859,0.5184,0.5140,0.1092,0.5184,0.5140,0.1092,0.3000,0.0600,0.0002,0,-0.3000,-100.0000,-0.0010,-0.3000,-100.0000,-0.0010,13.4260,42.6668,0.0200,0.0000
-33.4670,-1.1158,-0.1562,-0.1657,-0.2462,0.0000,0.0000,0.0000,0.0000,0.2046,-0.0056,0.0204,996,1502,1500,1500,2008,1000,1505,1505,1505,1363,2008,1112,1014,89.0058,10.4466,-6.8604,0.0304,-1.0112,-0.0922,0.2306,-0.2194,-0.1898,0.1786,0.5178,0.5140,0.1092,0.5178,0.5140,0.1092,0.3000,0.0600,0.0002,0,-0.3000,-100.0000,-0.0010,-0.3000,-100.0000,-0.0010,13.4636,42.7065,0.0200,0.0000
-32.5651,-1.0636,-0.2777,0.0829,-0.3283,0.0000,0.0000,0.0000,0.0000,0.1980,-0.0061,0.0215,996,1502,1500,1500,2008,1000,1505,1505,1505,1363,2008,1112,1014,90.7448,10.6326,-7.2004,0.0281,-1.0398,-0.0850,0.2256,-0.2134,-0.1826,0.1704,0.5178,0.5140,0.1092,0.5178,0.5140,0.1092,0.3000,0.0600,0.0002,0,-0.3000,-100.0000,-0.0010,-0.3000,-100.0000,-0.0010,13.5011,42.7461,0.0200,0.0000
-31.6410,-1.0142,-0.4023,-0.0829,-0.3283,0.0000,0.0000,0.0000,0.0000,0.1910,-0.0057,0.0241,996,1502,1500,1500,2008,1000,1505,1505,1505,1364,2008,1112,1014,92.9871,10.0643,-8.0298,0.0240,-1.0280,-0.0685,0.2209,-0.2094,-0.1726,0.1611,0.5184,0.5140,0.1092,0.5184,0.5140,0.1092,0.3000,0.0600,0.0002,0,-0.3000,-100.0000,-0.0010,-0.3000,-100.0000,-0.0010,13.5387,42.7858,0.0200,0.0000
-30.6936,-0.9739,-0.5318,-0.0000,-0.3283,0.0000,0.0000,0.0000,0.0000,0.1834,-0.0052,0.0277,996,1502,1500,1500,2008,1000,1505,1505,1505,1364,2008,1112,1014,95.4693,9.3746,-9.1737,0.0167,-1.0431,-0.0571,0.2162,-0.2058,-0.1609,0.1505,0.5184,0.5140,0.1092,0.5184,0.5140,0.1092,0.3000,0.0600,0.0002,0,-0.3000,-100.0000,-0.0010,-0.3000,-100.0000,-0.0010,13.5763,42.8255,0.0200,0.0000
-29.7196,-0.9474,-0.6659,-0.0829,-0.3283,0.0000,0.0600,0.3200,0.0000,0.1754,-0.0036,0.0333,997,1503,1500,1500,2008,1000,1505,1505,1505,1364,2008,1112,1014,98.1334,8.1200,-10.3953,0.0223,-1.0349,-0.0531,0.2124,-0.2051,-0.1457,0.1384,0.5184,0.5140,0.1092,0.5184,0.5140,0.1092,0.3000,0.0600,0.0002,0,-0.3000,-100.0000,-0.0010,-0.3000,-100.0000,-0.0010,13.6139,42.8652,0.0400,0.0100
-28.7196,-0.9318,-0.8062,-0.0000,-0.3283,0.0000,0.0000,0.0000,0.0000,0.1680,-0.0037,0.0342,996,1502,1500,1500,2008,1000,1505,1505,1505,1364,2008,1112,1014,100.1244,7.7664,-11.3288,0.0237,-1.0115,-0.0347,0.2059,-0.1986,-0.1375,0.1302,0.5184,0.5140,0.1092,0.5184,0.5140,0.1092,0.3000,0.0600,0.0002,0,-0.3000,-100.0000,-0.0010,-0.3000,-100.0000,-0.0010,13.6515,42.9048,0.0200,0.0000
-27.7013,-0.9203,-0.9518,-0.0000,-0.4104,0.0000,0.0000,0.0000,0.0000,0.1608,-0.0036,0.0362,996,1502,1500,1500,2008,1000,1505,1505,1505,1364,2008,1112,1014,101.9237,7.6976,-11.9806,0.0390,-1.0153,-0.0097,0.2006,-0.1933,-0.1283,0.1210,0.5184,0.5140,0.1092,0.5184,0.5140,0.1092,0.3000,0.0600,0.0002,0,-0.3000,-100.0000,-0.0010,-0.3000,-100.0000,-0.0010,13.6891,42.9445,0.0200,0.0000
-26.6651,-0.9075,-1.1029,-0.0829,-0.3283,0.0000,0.0000,0.0000,0.0000,0.1539,-0.0038,0.0378,996,1502,1500,1500,2008,1000,1505,1505,1505,1364,2008,1112,1014,103.2960,7.7606,-12.4828,0.0381,-1.0268,0.0192,0.1955,-0.1879,-0.1199,0.1124,0.5184,0.5140,0.1092,0.5184,0.5140,0.1092,0.3000,0.0600,0.0002,0,-0.3000,-100.0000,-0.0010,-0.3000,-100.0000,-0.0010,13.7267,42.9841,0.0200,0.0000
-25.6114,-0.8917,-1.2599,-0.0829,-0.4104,0.0000,0.0000,0.0000,0.0000,0.1463,-0.0045,0.0396,996,1502,1500,1500,2008,1000,1505,1505,1505,1364,2008,1112,1014,105.2521,8.3830,-13.0490,0.0359,-1.0193,0.0410,0.1904,-0.1814,-0.1113,0.1022,0.5184,0.5140,0.1092,0.5184,0.5140,0.1092,0.3000,0.0600,0.0002,0,-0.3000,-100.0000,-0.0010,-0.3000,-100.0000,-0.0010,13.7643,43.0238,0.0200,0.0000
-24.5391,-0.8721,-1.4246,-0.1657,-0.4104,0.0000,0.0000,0.0000,0.0000,0.1390,-0.0049,0.0415,996,1502,1500,1500,2008,1000,1505,1505,1505,1364,2008,1112,1014,106.9224,8.6674,-13.6907,0.0391,-1.0212,0.0599,0.1854,-0.1756,-0.1023,0.0925,0.5184,0.5140,0.1092,0.5184,0.5140,0.1092,0.3000,0.0600,0.0002,0,-0.3000,-100.0000,-0.0010,-0.3000,-100.0000,-0.0010,13.8019,43.0634,0.0200,0.0000
-23.4483,-0.8458,-1.5966,-0.0829,-0.3283,0.0000,0.0600,0.3200,0.0000,0.1312,-0.0056,0.0449,997,1503,1500,1500,2008,1000,1505,1505,1505,1364,2008,1112,1014,108.8462,9.4491,-14.1541,0.0391,-1.0046,0.0704,0.1817,-0.1705,-0.0919,0.0807,0.5184,0.5140,0.1092,0.5184,0.5140,0.1092,0.3000,0.0600,0.0002,0,-0.3000,-100.0000,-0.0010,-0.3000,-100.0000,-0.0010,13.8396,43.1030,0.0400,0.0100
-22.3445,-0.8138,-1.7736,-0.0829,-0.3283,0.0000,0.0000,0.0000,0.0000,0.1245,-0.0066,0.0439,996,1502,1500,1500,2008,1000,1505,1505,1505,1364,2008,1112,1014,109.7423,9.9438,-14.4200,0.0651,-0.9975,0.0704,0.1750,-0.1617,-0.0873,0.0740,0.5184,0.5140,0.1092,0.5184,0.5140,0.1092,0.3000,0.0600,0.0002,0,-0.3000,-100.0000,-0.0010,-0.3000,-100.0000,-0.0010,13.8772,43.1426,0.0200,0.0000
-21.2313,-0.7719,-1.9533,-0.0000,-0.4925,0.0000,0.0000,0.0000,0.0000,0.1178,-0.0076,0.0434,996,1502,1500,1500,2008,1000,1505,1505,1505,1363,2008,1112,1014,110.4602,10.6038,-14.2524,0.0653,-0.9914,0.0899,0.1688,-0.1536,-0.0820,0.0669,0.5178,0.5140,0.1092,0.5178,0.5140,0.1092,0.3000,0.0600,0.0002,0,-0.3000,-100.0000,-0.0010,-0.3000,-100.0000,-0.0010,13.9149,43.1822,0.0200,0.0000
-20.1114,-0.7187,-2.1309,-0.0000,-0.4925,0.0000,0.0000,0.0000,0.0000,0.1113,-0.0087,0.0418,996,1502,1500,1500,2008,1000,1505,1505,1505,1363,2008,1112,1014,111.1063,11.3386,-13.7198,0.0629,-0.9820,0.1214,0.1618,-0.1445,-0.0781,0.0608,0.5178,0.5140,0.1092,0.5178,0.5140,0.1092,0.3000,0.0600,0.0002,0,-0.3000,-100.0000,-0.0010,-0.3000,-100.0000,-0.0010,13.9526,43.2218,0.0200,0.0000
-18.9849,-0.6539,-2.3033,-0.0829,-0.3283,0.0000,0.0000,0.0000,0.0000,0.1048,-0.0095,0.0398,996,1502,1500,1500,2008,1000,1505,1505,1505,1364,2008,1112,1014,111.7896,11.7673,-13.0218,0.0544,-0.9892,0.1577,0.1541,-0.1352,-0.0745,0.0556,0.5184,0.5140,0.1092,0.5184,0.5140,0.1092,0.3000,0.0600,0.0002,0,-0.3000,-100.0000,-0.0010,-0.3000,-100.0000,-0.0010,13.9902,43.2614,0.0200,0.0000
-17.8487,-0.5790,-2.4685,0.0829,-0.4104,0.0000,0.0000,0.0000,0.0000,0.0977,-0.0102,0.0378,996,1502,1500,1500,2008,1000,1505,1505,1505,1364,2008,1112,1014,112.9292,12.1043,-12.3168,0.0530,-0.9799,0.1803,0.1457,-0.1253,-0.0701,0.0497,0.5184,0.5140,0.1092,0.5184,0.5140,0.1092,0.3000,0.0600,0.0002,0,-0.3000,-100.0000,-0.0010,-0.3000,-100.0000,-0.0010,14.0279,43.3009,0.0200,0.0000
-16.7020,-0.4972,-2.6257,-0.0000,-0.4925,0.0000,0.0600,0.3200,0.0000,0.0905,-0.0107,0.0375,997,1503,1500,1500,2008,1000,1505,1505,1505,1364,2008,1112,1014,114.1164,12.4008,-11.5687,0.0699,-0.9796,0.2013,0.1387,-0.1173,-0.0636,0.0423,0.5184,0.5140,0.1092,0.5184,0.5140,0.1092,0.3000,0.0600,0.0002,0,-0.3000,-100.0000,-0.0010,-0.3000,-100.0000,-0.0010,14.0656,43.3405,0.0400,0.0100
-15.5422,-0.4069,-2.7738,-0.0829,-0.4104,0.0000,0.0000,0.0000,0.0000,0.0831,-0.0116,0.0330,996,1502,1500,1500,2008,1000,1505,1505,1505,1364,2008,1112,1014,115.3594,12.5400,-10.6785,0.0606,-0.9661,0.2185,0.1277,-0.1045,-0.0617,0.0385,0.5184,0.5140,0.1092,0.5184,0.5140,0.1092,0.3000,0.0600,0.0002,0,-0.3000,-100.0000,-0.0010,-0.3000,-100.0000,-0.0010,14.1033,43.3800,0.0200,0.0000
-14.3714,-0.3087,-2.9099,-0.0829,-0.4925,0.0000,0.0000,0.0000,0.0000,0.0758,-0.0123,0.0292,996,1502,1500,1500,2008,1000,1505,1505,1505,1364,2008,1112,1014,116.4517,12.7653,-9.4357,0.0567,-0.9683,0.2290,0.1174,-0.0927,-0.0590,0.0343,0.5184,0.5140,0.1092,0.5184,0.5140,0.1092,0.3000,0.0600,0.0002,0,-0.3000,-100.0000,-0.0010,-0.3000,-100.0000,-0.0010,14.1410,43.4196,0.0200,0.0000
-13.1884,-0.2026,-3.0290,-0.0000,-0.4925,0.0000,0.0000,0.0000,0.0000,0.0684,-0.0129,0.0240,996,1502,1500,1500,2008,1000,1505,1505,1505,1364,2008,1112,1014,117.6523,12.8085,-7.6926,0.0557,-0.9594,0.2490,0.1053,-0.0794,-0.0573,0.0315,0.5184,0.5140,0.1092,0.5184,0.5140,0.1092,0.3000,0.0600,0.0002,0,-0.3000,-100.0000,-0.0010,-0.3000,-100.0000,-0.0010,14.1788,43.4591,0.0200,0.0000
-11.9935,-0.0875,-3.1272,-0.0829,-0.4104,0.0000,0.0000,0.0000,0.0000,0.0613,-0.0144,0.0182,996,1502,1500,1500,2008,1000,1505,1505,1505,1364,2008,1112,1014,118.4975,13.5921,-5.7345,0.0718,-0.9500,0.2582,0.0938,-0.0651,-0.0575,0.0287,0.5184,0.5140,0.1092,0.5184,0.5140,0.1092,0.3000,0.0600,0.0002,0,-0.3000,-100.0000,-0.0010,-0.3000,-100.0000,-0.0010,14.2165,43.4987,0.0200,0.0000
-10.7862,0.0417,-3.2019,-0.0829,-0.4925,0.0000,0.0000,0.0000,0.0000,0.0530,-0.0152,0.0110,996,1502,1500,1500,2008,1000,1505,1505,1505,1364,2008,1112,1014,120.3649,13.7477,-3.3499,0.0710,-0.9586,0.2835,0.0792,-0.0487,-0.0573,0.0268,0.5184,0.5140,0.1092,0.5184,0.5140,0.1092,0.3000,0.0600,0.0002,0,-0.3000,-100.0000,-0.0010,-0.3000,-100.0000,-0.0010,14.2543,43.5383,0.0200,0.0000
-9.5588,0.1776,-3.2513,-0.0000,-0.4104,0.0000,0.0600,0.3200,0.0000,0.0449,-0.0169,0.0076,997,1503,1500,1500,2008,1000,1505,1505,1505,1364,2008,1112,1014,121.9735,14.9364,-1.4984,0.0877,-0.9484,0.3023,0.0694,-0.0355,-0.0542,0.0204,0.5184,0.5140,0.1092,0.5184,0.5140,0.1092,0.3000,0.0600,0.0002,0,-0.3000,-100.0000,-0.0010,-0.3000,-100.0000,-0.0010,14.2921,43.5778,0.0400,0.0100
-8.3186,0.3364,-3.2879,-0.0000,-0.4925,0.0000,0.0000,0.0000,0.0000,0.0367,-0.0193,0.0037,996,1502,1500,1500,2008,1000,1505,1505,1505,1364,2008,1112,1014,123.5171,16.1058,-0.8273,0.0448,-0.9695,0.3596,0.0598,-0.0211,-0.0524,0.0137,0.5184,0.5140,0.1092,0.5184,0.5140,0.1092,0.3000,0.0600,0.0002,0,-0.3000,-100.0000,-0.0010,-0.3000,-100.0000,-0.0010,14.3298,43.6173,0.0200,0.0000
-7.0550,0.5096,-3.3181,-0.0829,-0.4925,0.0000,0.0000,0.0000,0.0000,0.0275,-0.0227,0.0024,996,1502,1500,1500,2008,1000,1505,1505,1505,1363,2008,1112,1014,125.9583,18.3929,-0.4023,0.0765,-0.9291,0.3484,0.0526,-0.0072,-0.0478,0.0023,0.5178,0.5140,0.1092,0.5178,0.5140,0.1092,0.3000,0.0600,0.0002,0,-0.3000,-100.0000,-0.0010,-0.3000,-100.0000,-0.0010,14.3676,43.6568,0.0200,0.0000
-5.7789,0.7137,-3.3458,-0.0000,-0.4925,0.0000,0.0000,0.0000,0.0000,0.0210,-0.0273,0.0029,996,1502,1500,1500,2008,1000,1505,1505,1505,1363,2008,1112,1014,125.8555,21.6508,-0.4846,0.0581,-0.8932,0.3332,0.0512,0.0035,-0.0455,-0.0092,0.5178,0.5140,0.1092,0.5178,0.5140,0.1092,0.3000,0.0600,0.0002,0,-0.3000,-100.0000,-0.0010,-0.3000,-100.0000,-0.0010,14.4054,43.6963,0.0200,0.0000
-4.5089,0.9594,-3.3811,-0.0829,-0.4925,0.0000,0.0000,0.0000,0.0000,0.0149,-0.0332,0.0078,996,1502,1500,1500,2008,1000,1505,1505,1505,1364,2008,1112,1014,125.4156,25.8570,-2.0568,-0.0286,-0.8801,0.3810,0.0559,0.0105,-0.0403,-0.0261,0.5184,0.5140,0.1092,0.5184,0.5140,0.1092,0.3000,0.0600,0.0002,0,-0.3000,-100.0000,-0.0010,-0.3000,-100.0000,-0.0010,14.4431,43.7357,0.0200,0.0000
-3.2495,1.2552,-3.4358,-0.0829,-0.3283,0.0000,0.0000,0.0000,0.0000,0.0093,-0.0391,0.0139,996,1502,1500,1500,2008,1000,1505,1505,1505,1364,2008,1112,1014,124.5644,29.8392,-4.1264,-0.1194,-0.8793,0.4547,0.0623,0.0159,-0.0345,-0.0436,0.5184,0.5140,0.1092,0.5184,0.5140,0.1092,0.3000,0.0600,0.0002,0,-0.3000,-100.0000,-0.0010,-0.3000,-100.0000,-0.0010,14.4809,43.7752,0.0200,0.0000
-1.9812,1.5781,-3.4952,-0.0829,-0.0000,0.0000,0.0600,0.3200,0.0000,0.0017,-0.0426,0.0144,997,1503,1500,1500,2008,1000,1505,1505,1505,1364,2008,1112,1014,125.4893,31.7993,-3.7602,-0.0123,-0.8680,0.4891,0.0587,0.0265,-0.0300,-0.0552,0.5184,0.5140,0.1092,0.5184,0.5140,0.1092,0.3000,0.0600,0.0002,0,-0.3000,-100.0000,-0.0010,-0.3000,-100.0000,-0.0010,14.5187,43.8146,0.0400,0.0100
-0.7002,1.9004,-3.5373,-0.0829,0.4104,0.0000,0.0000,0.0000,0.0000,-0.0086,-0.0428,0.0095,996,1502,1500,1500,2008,1000,1505,1505,1505,1364,2008,1112,1014,128.8546,30.1798,-2.7553,-0.0532,-0.9240,0.4538,0.0438,0.0418,-0.0247,-0.0609,0.5184,0.5140,0.1092,0.5184,0.5140,0.1092,0.3000,0.0600,0.0002,0,-0.3000,-100.0000,-0.0010,-0.3000,-100.0000,-0.0010,14.5565,43.8541,0.0200,0.0000
0.6210,2.2062,-3.5675,-0.0829,0.9850,0.0000,0.0000,0.0000,0.0000,-0.0189,-0.0408,0.0101,996,1502,1500,1500,2008,1000,1505,1505,1505,1364,2008,1112,1014,132.0285,26.8586,-2.8635,-0.0900,-0.8672,0.4742,0.0320,0.0496,-0.0118,-0.0698,0.5184,0.5140,0.1092,0.5184,0.5140,0.1092,0.3000,0.0600,0.0002,0,-0.3000,-100.0000,-0.0010,-0.3000,-100.0000,-0.0010,14.5944,43.8935,0.0200,0.0000
1.9651,2.4755,-3.6008,-0.0000,1.7237,0.0000,0.0000,0.0000,0.0000,-0.0271,-0.0385,0.0146,996,1502,1500,1500,2008,1000,1505,1505,1505,1364,2008,1112,1014,133.0511,23.4885,-4.3076,-0.0651,-0.8636,0.5130,0.0260,0.0509,0.0032,-0.0802,0.5184,0.5140,0.1092,0.5184,0.5140,0.1092,0.3000,0.0600,0.0002,0,-0.3000,-100.0000,-0.0010,-0.3000,-100.0000,-0.0010,14.6322,43.9329,0.0200,0.0000
3.3184,2.7040,-3.6506,-0.0829,2.4624,0.0000,0.0000,0.0000,0.0000,-0.0351,-0.0351,0.0221,996,1502,1500,1500,2008,1000,1505,1505,1505,1364,2008,1112,1014,133.8961,19.2754,-6.7557,-0.0422,-0.8621,0.5381,0.0220,0.0481,0.0222,-0.0923,0.5184,0.5140,0.1092,0.5184,0.5140,0.1092,0.3000,0.0600,0.0002,0,-0.3000,-100.0000,-0.0010,-0.3000,-100.0000,-0.0010,14.6700,43.9723,0.0200,0.0000
4.6723,2.8845,-3.7282,-0.0000,3.2011,0.0000,0.0000,0.0000,0.0000,-0.0415,-0.0318,0.0319,996,1502,1500,1500,2008,1000,1505,1505,1505,1364,2008,1112,1014,133.1184,15.3995,-9.9570,0.0407,-0.8430,0.5288,0.0221,0.0414,0.0417,-0.1052,0.5184,0.5140,0.1092,0.5184,0.5140,0.1092,0.3000,0.0600,0.0002,0,-0.3000,-100.0000,-0.0010,-0.3000,-100.0000,-0.0010,14.7079,44.0117,0.0200,0.0000
6.0160,3.0310,-3.8381,-0.0000,4.0219,0.0000,0.0600,0.3200,0.0000,-0.0506,-0.0265,0.0411,997,1503,1500,1500,2008,1000,1505,1505,1505,1364,2008,1112,1014,134.7980,10.1894,-12.3889,0.0655,-0.9089,0.7079,0.0170,0.0361,0.0652,-0.1182,0.5184,0.5140,0.1092,0.5184,0.5140,0.1092,0.3000,0.0600,0.0002,0,-0.3000,-100.0000,-0.0010,-0.3000,-100.0000,-0.0010,14.7457,44.0510,0.0400,0.0100
7.3951,3.1213,-3.9506,-0.0000,4.6785,0.0000,0.0000,0.0000,0.0000,-0.0600,-0.0230,0.0312,996,1502,1500,1500,2008,1000,1505,1505,1505,1364,2008,1112,1014,136.5369,6.2128,-10.0008,0.1899,-0.7713,0.5510,-0.0059,0.0518,0.0682,-0.1141,0.5184,0.5140,0.1092,0.5184,0.5140,0.1092,0.3000,0.0600,0.0002,0,-0.3000,-100.0000,-0.0010,-0.3000,-100.0000,-0.0010,14.7836,44.0903,0.0200,0.0000
8.7947,3.1758,-4.0288,-0.0829,5.1710,0.0000,0.0000,0.0000,0.0000,-0.0729,-0.0198,0.0196,996,1502,1500,1500,2008,1000,1505,1505,1505,1364,2008,1112,1014,141.2625,3.0552,-6.1589,0.1775,-0.8027,0.5534,-0.0335,0.0731,0.0727,-0.1123,0.5184,0.5140,0.1092,0.5184,0.5140,0.1092,0.3000,0.0600,0.0002,0,-0.3000,-100.0000,-0.0010,-0.3000,-100.0000,-0.0010,14.8214,44.1296,0.0200,0.0000
10.2695,3.1668,-4.0731,-0.1657,5.3352,0.0000,0.0000,0.0000,0.0000,-0.0878,-0.0155,0.0069,996,1502,1500,1500,2008,1000,1505,1505,1505,1364,2008,1112,1014,147.4701,-0.8339,-1.9384,0.2166,-0.6952,0.5919,-0.0654,0.0964,0.0792,-0.1102,0.5184,0.5140,0.1092,0.5184,0.5140,0.1092,0.3000,0.0600,0.0002,0,-0.3000,-100.0000,-0.0010,-0.3000,-100.0000,-0.0010,14.8593,44.1690,0.0200,0.0000
11.7827,3.1429,-4.0725,-0.0829,5.2531,0.0000,0.0000,0.0000,0.0000,-0.0981,-0.0151,-0.0071,996,1502,1500,1500,2008,1000,1505,1505,1505,1364,2008,1112,1014,149.1440,-1.0976,2.7230,0.0707,-0.6861,0.6426,-0.0901,0.1203,0.0759,-0.1061,0.5184,0.5140,0.1092,0.5184,0.5140,0.1092,0.3000,0.0600,0.0002,0,-0.3000,-100.0000,-0.0010,-0.3000,-100.0000,-0.0010,14.8972,44.2083,0.0200,0.0000
13.3108,3.1183,-4.0256,-0.2486,5.3352,0.0000,0.0000,0.0000,0.0000,-0.1084,-0.0170,-0.0199,996,1502,1500,1500,2008,1000,1505,1505,1505,1364,2008,1112,1014,150.6891,0.7209,7.0164,0.1181,-0.6841,0.6526,-0.1114,0.1453,0.0715,-0.1054,0.5184,0.5140,0.1092,0.5184,0.5140,0.1092,0.3000,0.0600,0.0002,0,-0.3000,-100.0000,-0.0010,-0.3000,-100.0000,-0.0010,14.9351,44.2476,0.0200,0.0000
14.8394,3.1231,-3.9279,-0.0000,5.0068,0.0000,0.0600,0.3200,0.0000,-0.1132,-0.0222,-0.0286,997,1503,1500,1500,2008,1000,1505,1505,1505,1364,2008,1112,1014,147.1370,5.7740,10.5692,0.1029,-0.6008,0.7222,-0.1196,0.1640,0.0624,-0.1067,0.5184,0.5140,0.1092,0.5184,0.5140,0.1092,0.3000,0.0600,0.0002,0,-0.3000,-100.0000,-0.0010,-0.3000,-100.0000,-0.0010,14.9731,44.2870,0.0400,0.0100
16.3330,3.1704,-3.7812,-0.0829,4.9248,0.0000,0.0000,0.0000,0.0000,-0.1186,-0.0296,-0.0398,996,1502,1500,1500,2008,1000,1505,1505,1505,1364,2008,1112,1014,144.2038,12.0792,13.6539,0.0977,-0.6365,0.6278,-0.1288,0.1880,0.0491,-0.1084,0.5184,0.5140,0.1092,0.5184,0.5140,0.1092,0.3000,0.0600,0.0002,0,-0.3000,-100.0000,-0.0010,-0.3000,-100.0000,-0.0010,15.0110,44.3263,0.0200,0.0000
17.7737,3.2809,-3.5862,-0.0000,4.5144,0.0000,0.0000,0.0000,0.0000,-0.1188,-0.0391,-0.0440,996,1502,1500,1500,2008,1000,1505,1505,1505,1364,2008,1112,1014,136.7643,20.1956,15.1392,0.1089,-0.5360,0.6936,-0.1238,0.2019,0.0357,-0.1139,0.5184,0.5140,0.1092,0.5184,0.5140,0.1092,0.3000,0.0600,0.0002,0,-0.3000,-100.0000,-0.0010,-0.3000,-100.0000,-0.0010,15.0489,44.3656,0.0200,0.0000
19.1492,3.4597,-3.3576,-0.1657,4.5144,0.0000,0.0000,0.0000,0.0000,-0.1227,-0.0459,-0.0450,996,1502,1500,1500,2008,1000,1505,1505,1505,1364,2008,1112,1014,132.8859,25.5831,15.4166,0.0348,-0.5969,0.7591,-0.1218,0.2136,0.0319,-0.1237,0.5184,0.5140,0.1092,0.5184,0.5140,0.1092,0.3000,0.0600,0.0002,0,-0.3000,-100.0000,-0.0010,-0.3000,-100.0000,-0.0010,15.0869,44.4048,0.0200,0.0000
20.5021,3.6560,-3.1165,-0.0000,4.3502,0.0000,0.0000,0.0000,0.0000,-0.1259,-0.0495,-0.0435,996,1502,1500,1500,2008,1000,1505,1505,1505,1364,2008,1112,1014,128.4276,28.0161,14.9652,0.0809,-0.5677,0.7229,-0.1199,0.2190,0.0329,-0.1320,0.5184,0.5140,0.1092,0.5184,0.5140,0.1092,0.3000,0.0600,0.0002,0,-0.3000,-100.0000,-0.0010,-0.3000,-100.0000,-0.0010,15.1248,44.4441,0.0200,0.0000
21.8116,3.8729,-2.8765,-0.0829,4.6785,0.0000,0.0000,0.0000,0.0000,-0.1338,-0.0478,-0.0373,996,1502,1500,1500,2008,1000,1505,1505,1505,1364,2008,1112,1014,128.3870,25.4001,12.9670,-0.0807,-0.6686,0.8800,-0.1234,0.2190,0.0487,-0.1443,0.5184,0.5140,0.1092,0.5184,0.5140,0.1092,0.3000,0.0600,0.0002,0,-0.3000,-100.0000,-0.0010,-0.3000,-100.0000,-0.0010,15.1628,44.4834,0.0200,0.0000
23.1200,4.0512,-2.6733,-0.0000,5.1710,0.0000,0.0600,0.3200,0.0000,-0.1391,-0.0450,-0.0281,997,1503,1500,1500,2008,1000,1505,1505,1505,1364,2008,1112,1014,125.8586,22.2260,10.4814,-0.0593,-0.5612,0.7591,-0.1222,0.2121,0.0660,-0.1559,0.5184,0.5140,0.1092,0.5184,0.5140,0.1092,0.3000,0.0600,0.0002,0,-0.3000,-100.0000,-0.0010,-0.3000,-100.0000,-0.0010,15.2008,44.5226,0.0400,0.0100
24.4057,4.1977,-2.5068,-0.1657,6.1560,0.0000,0.0000,0.0000,0.0000,-0.1456,-0.0382,-0.0228,996,1502,1500,1500,2008,1000,1505,1505,1505,1364,2008,1112,1014,124.5200,15.0306,8.0601,-0.0635,-0.5549,0.8077,-0.1302,0.2066,0.0846,-0.1609,0.5184,0.5140,0.1092,0.5184,0.5140,0.1092,0.3000,0.0600,0.0002,0,-0.3000,-100.0000,-0.0010,-0.3000,-100.0000,-0.0010,15.2387,44.5619,0.0200,0.0000
25.6558,4.2935,-2.3811,-0.0000,7.1409,0.0000,0.0000,0.0000,0.0000,-0.1501,-0.0351,-0.0187,996,1502,1500,1500,2008,1000,1505,1505,1505,1364,2008,1112,1014,121.4727,11.7939,6.6059,-0.0335,-0.5418,0.8053,-0.1336,0.2039,0.0962,-0.1665,0.5184,0.5140,0.1092,0.5184,0.5140,0.1092,0.3000,0.0600,0.0002,0,-0.3000,-100.0000,-0.0010,-0.3000,-100.0000,-0.0010,15.2767,44.6011,0.0200,0.0000
26.8803,4.3341,-2.2917,-0.0000,8.4542,0.0000,0.0000,0.0000,0.0000,-0.1532,-0.0278,-0.0167,996,1502,1500,1500,2008,1000,1505,1505,1505,1364,2008,1112,1014,117.2435,4.8467,5.9066,-0.0180,-0.4583,0.8335,-0.1422,0.1977,0.1087,-0.1643,0.5184,0.5140,0.1092,0.5184,0.5140,0.1092,0.3000,0.0600,0.0002,0,-0.3000,-100.0000,-0.0010,-0.3000,-100.0000,-0.0010,15.3147,44.6403,0.0200,0.0000
28.0517,4.3452,-2.2199,-0.1657,10.0137,0.0000,0.0000,0.0000,0.0000,-0.1571,-0.0249,-0.0163,996,1502,1500,1500,2008,1000,1505,1505,1505,1364,2008,1112,1014,113.8996,2.1629,5.7513,-0.0440,-0.4661,0.8045,-0.1485,0.1983,0.1159,-0.1657,0.5184,0.5140,0.1092,0.5184,0.5140,0.1092,0.3000,0.0600,0.0002,0,-0.3000,-100.0000,-0.0010,-0.3000,-100.0000,-0.0010,15.3527,44.6795,0.0200,0.0000
29.1763,4.3153,-2.1688,-0.0000,11.6553,0.0000,0.0000,0.0000,0.0000,-0.1578,-0.0227,-0.0168,996,1502,1500,1500,2008,1000,1505,1505,1505,1364,2008,1112,1014,107.7349,0.3188,5.8788,0.0368,-0.3972,0.9004,-0.1519,0.1973,0.1182,-0.1637,0.5184,0.5140,0.1092,0.5184,0.5140,0.1092,0.3000,0.0600,0.0002,0,-0.3000,-100.0000,-0.0010,-0.3000,-100.0000,-0.0010,15.3907,44.7187,0.0200,0.0000
30.2430,4.2833,-2.1159,-0.0829,13.7073,0.0000,0.0600,0.3200,0.0000,-0.1595,-0.0208,-0.0158,997,1503,1500,1500,2008,1000,1505,1505,1505,1364,2008,1112,1014,102.7922,-0.9711,6.1926,-0.0196,-0.3976,0.8252,-0.1545,0.1962,0.1228,-0.1645,0.5184,0.5140,0.1092,0.5184,0.5140,0.1092,0.3000,0.0600,0.0002,0,-0.3000,-100.0000,-0.0010,-0.3000,-100.0000,-0.0010,15.4287,44.7579,0.0400,0.0100
31.2615,4.2424,-2.0650,-0.0829,15.5130,0.0000,0.0000,0.0000,0.0000,-0.1620,-0.0226,-0.0177,996,1502,1500,1500,2008,1000,1505,1505,1505,1364,2008,1112,1014,98.7369,0.5155,6.1682,0.0389,-0.3783,0.8994,-0.1571,0.2022,0.1218,-0.1669,0.5184,0.5140,0.1092,0.5184,0.5140,0.1092,0.3000,0.0600,0.0002,0,-0.3000,-100.0000,-0.0010,-0.3000,-100.0000,-0.0010,15.4668,44.7970,0.0200,0.0000
32.2352,4.2098,-2.0110,0.7459,16.3338,0.0000,0.0000,0.0000,0.0000,-0.1636,-0.0226,-0.0172,996,1502,1500,1500,2008,1000,1505,1505,1505,1364,2008,1112,1014,93.9796,0.6883,6.0024,0.0123,-0.4143,0.8635,-0.1582,0.2033,0.1238,-0.1690,0.5184,0.5140,0.1092,0.5184,0.5140,0.1092,0.3000,0.0600,0.0002,0,-0.3000,-100.0000,-0.0010,-0.3000,-100.0000,-0.0010,15.5048,44.8362,0.0200,0.0000
33.1749,4.1938,-1.9496,0.9945,16.6621,0.0000,0.0000,0.0000,0.0000,-0.1678,-0.0251,-0.0162,996,1502,1500,1500,2008,1000,1505,1505,1505,1364,2008,1112,1014,91.7655,3.0739,5.6463,0.0168,-0.3786,0.8902,-0.1589,0.2091,0.1265,-0.1767,0.5184,0.5140,0.1092,0.5184,0.5140,0.1092,0.3000,0.0600,0.0002,0,-0.3000,-100.0000,-0.0010,-0.3000,-100.0000,-0.0010,15.5428,44.8754,0.0200,0.0000
34.0799,4.1862,-1.8866,0.7459,16.7442,0.0000,0.0000,0.0000,0.0000,-0.1700,-0.0263,-0.0151,996,1502,1500,1500,2008,1000,1505,1505,1505,1364,2008,1112,1014,87.7885,4.2455,5.2791,0.0394,-0.3942,0.8670,-0.1587,0.2114,0.1286,-0.1813,0.5184,0.5140,0.1092,0.5184,0.5140,0.1092,0.3000,0.0600,0.0002,0,-0.3000,-100.0000,-0.0010,-0.3000,-100.0000,-0.0010,15.5809,44.9145,0.0200,0.0000
34.9522,4.2030,-1.8147,0.5801,16.5800,0.0000,0.0000,0.0000,0.0000,-0.1733,-0.0282,-0.0121,996,1502,1500,1500,2008,1000,1505,1505,1505,1364,2008,1112,1014,84.9865,5.8305,4.2993,0.0053,-0.3713,0.9148,-0.1572,0.2135,0.1331,-0.1894,0.5184,0.5140,0.1092,0.5184,0.5140,0.1092,0.3000,0.0600,0.0002,0,-0.3000,-100.0000,-0.0010,-0.3000,-100.0000,-0.0010,15.6190,44.9537,0.0200,0.0000
35.7921,4.2330,-1.7449,0.6630,16.4979,0.0000,0.0600,0.3200,0.0000,-0.1761,-0.0298,-0.0076,997,1503,1500,1500,2008,1000,1505,1505,1505,1364,2008,1112,1014,81.8029,7.4606,3.4329,0.0066,-0.3447,0.8918,-0.1539,0.2134,0.1387,-0.1983,0.5184,0.5140,0.1092,0.5184,0.5140,0.1092,0.3000,0.0600,0.0002,0,-0.3000,-100.0000,-0.0010,-0.3000,-100.0000,-0.0010,15.6571,44.9928,0.0400,0.0100
36.5988,4.2791,-1.6762,0.5801,16.5800,0.0000,0.0000,0.0000,0.0000,-0.1788,-0.0305,-0.0056,996,1502,1500,1500,2008,1000,1505,1505,1505,1364,2008,1112,1014,78.6612,7.6453,2.1593,-0.0213,-0.3470,0.9101,-0.1539,0.2149,0.1426,-0.2037,0.5184,0.5140,0.1092,0.5184,0.5140,0.1092,0.3000,0.0600,0.0002,0,-0.3000,-100.0000,-0.0010,-0.3000,-100.0000,-0.0010,15.6951,45.0320,0.0200,0.0000
37.3787,4.3337,-1.6176,0.7459,16.4979,0.0000,0.0000,0.0000,0.0000,-0.1824,-0.0309,-0.0020,996,1502,1500,1500,2008,1000,1505,1505,1505,1364,2008,1112,1014,76.4185,7.6829,0.9204,-0.0161,-0.3074,0.9310,-0.1535,0.2152,0.1495,-0.2112,0.5184,0.5140,0.1092,0.5184,0.5140,0.1092,0.3000,0.0600,0.0002,0,-0.3000,-100.0000,-0.0010,-0.3000,-100.0000,-0.0010,15.7333,45.0711,0.0200,0.0000
38.1287,4.3890,-1.5721,0.7459,16.4979,0.0000,0.0000,0.0000,0.0000,-0.1852,-0.0300,0.0014,996,1502,1500,1500,2008,1000,1505,1505,1505,1364,2008,1112,1014,73.5716,6.6176,-0.2026,-0.0168,-0.3261,0.9361,-0.1538,0.2137,0.1567,-0.2166,0.5184,0.5140,0.1092,0.5184,0.5140,0.1092,0.3000,0.0600,0.0002,0,-0.3000,-100.0000,-0.0010,-0.3000,-100.0000,-0.0010,15.7714,45.1102,0.0200,0.0000
38.8572,4.4431,-1.5440,0.5801,16.5800,0.0000,0.0000,0.0000,0.0000,-0.1896,-0.0285,0.0055,996,1502,1500,1500,2008,1000,1505,1505,1505,1364,2008,1112,1014,72.2244,5.0346,-1.5739,-0.0338,-0.3149,0.9406,-0.1555,0.2126,0.1666,-0.2236,0.5184,0.5140,0.1092,0.5184,0.5140,0.1092,0.3000,0.0600,0.0002,0,-0.3000,-100.0000,-0.0010,-0.3000,-100.0000,-0.0010,15.8095,45.1494,0.0200,0.0000
39.5685,4.4905,-1.5376,0.7459,16.4979,0.0000,0.0000,0.0000,0.0000,-0.1935,-0.0269,0.0094,996,1502,1500,1500,2008,1000,1505,1505,1505,1364,2008,1112,1014,70.5336,3.3128,-2.8620,-0.0180,-0.3202,0.9451,-0.1572,0.2110,0.1761,-0.2299,0.5184,0.5140,0.1092,0.5184,0.5140,0.1092,0.3000,0.0600,0.0002,0,-0.3000,-100.0000,-0.0010,-0.3000,-100.0000,-0.0010,15.8476,45.1885,0.0200,0.0000
40.2689,4.5342,-1.5559,0.5801,16.5800,0.0000,0.0600,0.3200,0.0000,-0.1996,-0.0247,0.0170,997,1503,1500,1500,2008,1000,1505,1505,1505,1364,2008,1112,1014,70.7980,1.3692,-4.7271,-0.0238,-0.3418,0.9581,-0.1579,0.2073,0.1920,-0.2413,0.5184,0.5140,0.1092,0.5184,0.5140,0.1092,0.3000,0.0600,0.0002,0,-0.3000,-100.0000,-0.0010,-0.3000,-100.0000,-0.0010,15.8858,45.2276,0.0400,0.0100
40.9772,4.5752,-1.6011,0.6630,16.4979,0.0000,0.0000,0.0000,0.0000,-0.2066,-0.0233,0.0204,996,1502,1500,1500,2008,1000,1505,1505,1505,1364,2008,1112,1014,71.7933,-0.3489,-6.4832,-0.0081,-0.3135,0.9317,-0.1628,0.2095,0.2037,-0.2503,0.5184,0.5140,0.1092,0.5184,0.5140,0.1092,0.3000,0.0600,0.0002,0,-0.3000,-100.0000,-0.0010,-0.3000,-100.0000,-0.0010,15.9239,45.2667,0.0200,0.0000
41.6966,4.6198,-1.6692,0.6630,16.4979,0.0000,0.0000,0.0000,0.0000,-0.2146,-0.0228,0.0266,996,1502,1500,1500,2008,1000,1505,1505,1505,1364,2008,1112,1014,73.6877,-1.0604,-8.5184,-0.0056,-0.3335,0.9363,-0.1652,0.2108,0.2184,-0.2640,0.5184,0.5140,0.1092,0.5184,0.5140,0.1092,0.3000,0.0600,0.0002,0,-0.3000,-100.0000,-0.0010,-0.3000,-100.0000,-0.0010,15.9621,45.3057,0.0200,0.0000
42.4412,4.6749,-1.7537,0.6630,16.4979,0.0000,0.0000,0.0000,0.0000,-0.2235,-0.0230,0.0310,996,1502,1500,1500,2008,1000,1505,1505,1505,1364,2008,1112,1014,76.2127,-1.1053,-10.0104,0.0039,-0.2889,0.9378,-0.1694,0.2155,0.2315,-0.2775,0.5184,0.5140,0.1092,0.5184,0.5140,0.1092,0.3000,0.0600,0.0002,0,-0.3000,-100.0000,-0.0010,-0.3000,-100.0000,-0.0010,16.0002,45.3448,0.0200,0.0000
43.2088,4.7449,-1.8424,0.6630,16.4979,0.0000,0.0000,0.0000,0.0000,-0.2321,-0.0250,0.0349,996,1502,1500,1500,2008,1000,1505,1505,1505,1364,2008,1112,1014,78.3268,0.4006,-11.2822,0.0235,-0.2795,0.9383,-0.1721,0.2222,0.2420,-0.2920,0.5184,0.5140,0.1092,0.5184,0.5140,0.1092,0.3000,0.0600,0.0002,0,-0.3000,-100.0000,-0.0010,-0.3000,-100.0000,-0.0010,16.0384,45.3839,0.0200,0.0000
44.0020,4.8399,-1.9231,0.6630,16.4979,0.0000,0.0000,0.0000,0.0000,-0.2413,-0.0283,0.0371,996,1502,1500,1500,2008,1000,1505,1505,1505,1364,2008,1112,1014,80.8280,2.9032,-12.0281,0.0208,-0.2496,0.9585,-0.1760,0.2325,0.2501,-0.3066,0.5184,0.5140,0.1092,0.5184,0.5140,0.1092,0.3000,0.0600,0.0002,0,-0.3000,-100.0000,-0.0010,-0.3000,-100.0000,-0.0010,16.0766,45.4229,0.0200,0.0000
44.8196,4.9600,-1.9851,0.6630,16.4979,0.0000,0.0600,0.3200,0.0000,-0.2499,-0.0319,0.0403,997,1503,1500,1500,2008,1000,1505,1505,1505,1364,2008,1112,1014,82.6377,5.9338,-12.4294,0.0280,-0.2390,0.9553,-0.1777,0.2415,0.2583,-0.3221,0.5184,0.5140,0.1092,0.5184,0.5140,0.1092,0.3000,0.0600,0.0002,0,-0.3000,-100.0000,-0.0010,-0.3000,-100.0000,-0.0010,16.1148,45.4620,0.0400,0.0100
45.6595,5.1087,-2.0255,0.5801,16.4979,0.0000,0.0000,0.0000,0.0000,-0.2590,-0.0365,0.0400,996,1502,1500,1500,2008,1000,1505,1505,1505,1364,2008,1112,1014,84.7681,9.1459,-12.9374,0.0100,-0.2353,0.9617,-0.1826,0.2555,0.2625,-0.3354,0.5184,0.5140,0.1092,0.5184,0.5140,0.1092,0.3000,0.0600,0.0002,0,-0.3000,-100.0000,-0.0010,-0.3000,-100.0000,-0.0010,16.1530,45.5010,0.0200,0.0000
46.5214,5.2819,-2.0445,0.6630,16.4159,0.0000,0.0000,0.0000,0.0000,-0.2676,-0.0402,0.0407,996,1502,1500,1500,2008,1000,1505,1505,1505,1364,2008,1112,1014,86.2418,11.7105,-13.1638,0.0143,-0.2217,0.9576,-0.1867,0.2671,0.2681,-0.3484,0.5184,0.5140,0.1092,0.5184,0.5140,0.1092,0.3000,0.0600,0.0002,0,-0.3000,-100.0000,-0.0010,-0.3000,-100.0000,-0.0010,16.1912,45.5400,0.0200,0.0000
47.4010,5.4733,-2.0446,0.6630,16.4979,0.0000,0.0000,0.0000,0.0000,-0.2766,-0.0433,0.0410,996,1502,1500,1500,2008,1000,1505,1505,1505,1364,2008,1112,1014,87.9563,13.6537,-13.2554,-0.0094,-0.2169,0.9512,-0.1923,0.2788,0.2743,-0.3608,0.5184,0.5140,0.1092,0.5184,0.5140,0.1092,0.3000,0.0600,0.0002,0,-0.3000,-100.0000,-0.0010,-0.3000,-100.0000,-0.0010,16.2294,45.5790,0.0200,0.0000
48.3007,5.6725,-2.0285,0.6630,16.4979,0.0000,0.0000,0.0000,0.0000,-0.2854,-0.0454,0.0388,996,1502,1500,1500,2008,1000,1505,1505,1505,1364,2008,1112,1014,89.4538,14.6367,-12.5255,-0.0126,-0.1712,0.9643,-0.2013,0.2920,0.2788,-0.3696,0.5184,0.5140,0.1092,0.5184,0.5140,0.1092,0.3000,0.0600,0.0002,0,-0.3000,-100.0000,-0.0010,-0.3000,-100.0000,-0.0010,16.2677,45.6180,0.0200,0.0000
49.2115,5.8692,-1.9971,0.6630,16.4979,0.0000,0.0000,0.0000,0.0000,-0.2934,-0.0470,0.0359,996,1502,1500,1500,2008,1000,1505,1505,1505,1364,2008,1112,1014,90.0288,15.2191,-11.5471,-0.0165,-0.1507,0.9600,-0.2104,0.3045,0.2823,-0.3764,0.5184,0.5140,0.1092,0.5184,0.5140,0.1092,0.3000,0.0600,0.0002,0,-0.3000,-100.0000,-0.0010,-0.3000,-100.0000,-0.0010,16.3060,45.6570,0.0200,0.0000
50.1303,6.0597,-1.9499,0.6630,16.4979,0.0000,0.0600,0.3200,0.0000,-0.3013,-0.0483,0.0335,997,1503,1500,1500,2008,1000,1505,1505,1505,1364,2008,1112,1014,90.4707,15.7940,-10.1193,-0.0137,-0.1005,0.9840,-0.2194,0.3161,0.2865,-0.3832,0.5184,0.5140,0.1092,0.5184,0.5140,0.1092,0.3000,0.0600,0.0002,0,-0.3000,-100.0000,-0.0010,-0.3000,-100.0000,-0.0010,16.3442,45.6959,0.0400,0.0100
51.0487,6.2415,-1.8830,0.6630,16.4979,0.0000,0.0000,0.0000,0.0000,-0.3078,-0.0507,0.0272,996,1502,1500,1500,2008,1000,1505,1505,1505,1364,2008,1112,1014,89.5006,16.7981,-8.6204,-0.0090,-0.0584,0.9832,-0.2298,0.3312,0.2843,-0.3857,0.5184,0.5140,0.1092,0.5184,0.5140,0.1092,0.3000,0.0600,0.0002,0,-0.3000,-100.0000,-0.0010,-0.3000,-100.0000,-0.0010,16.3825,45.7349,0.0200,0.0000
51.9554,6.4193,-1.7940,0.5801,16.5800,0.0000,0.0000,0.0000,0.0000,-0.3136,-0.0532,0.0237,996,1502,1500,1500,2008,1000,1505,1505,1505,1364,2008,1112,1014,87.9743,18.2853,-7.3984,-0.0067,-0.0547,0.9877,-0.2367,0.3432,0.2840,-0.3905,0.5184,0.5140,0.1092,0.5184,0.5140,0.1092,0.3000,0.0600,0.0002,0,-0.3000,-100.0000,-0.0010,-0.3000,-100.0000,-0.0010,16.4207,45.7738,0.0200,0.0000
52.8465,6.5968,-1.6821,0.7459,16.5800,0.0000,0.0000,0.0000,0.0000,-0.3185,-0.0559,0.0210,996,1502,1500,1500,2008,1000,1505,1505,1505,1364,2008,1112,1014,85.6314,19.8345,-6.4907,-0.0140,-0.0351,0.9796,-0.2416,0.3533,0.2836,-0.3954,0.5184,0.5140,0.1092,0.5184,0.5140,0.1092,0.3000,0.0600,0.0002,0,-0.3000,-100.0000,-0.0010,-0.3000,-100.0000,-0.0010,16.4590,45.8127,0.0200,0.0000
53.7132,6.7759,-1.5513,0.7459,16.5800,0.0000,0.0000,0.0000,0.0000,-0.3230,-0.0583,0.0193,996,1502,1500,1500,2008,1000,1505,1505,1505,1364,2008,1112,1014,83.0638,21.2008,-5.8979,-0.0216,-0.0405,0.9810,-0.2455,0.3620,0.2841,-0.4006,0.5184,0.5140,0.1092,0.5184,0.5140,0.1092,0.3000,0.0600,0.0002,0,-0.3000,-100.0000,-0.0010,-0.3000,-100.0000,-0.0010,16.4973,45.8516,0.0200,0.0000
54.5543,6.9554,-1.4022,0.7459,16.4979,0.0000,0.0000,0.0000,0.0000,-0.3270,-0.0605,0.0172,996,1502,1500,1500,2008,1000,1505,1505,1505,1364,2008,1112,1014,80.0470,22.3422,-5.1893,-0.0342,-0.0167,0.9762,-0.2494,0.3703,0.2838,-0.4047,0.5184,0.5140,0.1092,0.5184,0.5140,0.1092,0.3000,0.0600,0.0002,0,-0.3000,-100.0000,-0.0010,-0.3000,-100.0000,-0.0010,16.5356,45.8905,0.0200,0.0000
55.3631,7.1313,-1.2406,0.6630,16.5800,0.0000,0.0600,0.3200,0.0000,-0.3306,-0.0613,0.0168,997,1503,1500,1500,2008,1000,1505,1505,1505,1364,2008,1112,1014,76.7518,22.5311,-4.4146,-0.0427,-0.0175,0.9865,-0.2525,0.3751,0.2861,-0.4087,0.5184,0.5140,0.1092,0.5184,0.5140,0.1092,0.3000,0.0600,0.0002,0,-0.3000,-100.0000,-0.0010,-0.3000,-100.0000,-0.0010,16.5739,45.9294,0.0400,0.0100
56.1408,7.2973,-1.0735,0.7459,16.5800,0.0000,0.0000,0.0000,0.0000,-0.3343,-0.0620,0.0126,996,1502,1500,1500,2008,1000,1505,1505,1505,1364,2008,1112,1014,73.7376,22.1070,-3.6603,-0.0526,0.0054,0.9835,-0.2597,0.3837,0.2850,-0.4090,0.5184,0.5140,0.1092,0.5184,0.5140,0.1092,0.3000,0.0600,0.0002,0,-0.3000,-100.0000,-0.0010,-0.3000,-100.0000,-0.0010,16.6122,45.9683,0.0200,0.0000
56.8870,7.4522,-0.9081,0.7459,16.5800,0.0000,0.0000,0.0000,0.0000,-0.3380,-0.0614,0.0121,996,1502,1500,1500,2008,1000,1505,1505,1505,1364,2008,1112,1014,70.7332,20.8614,-3.4332,-0.0644,0.0144,0.9901,-0.2645,0.3873,0.2887,-0.4115,0.5184,0.5140,0.1092,0.5184,0.5140,0.1092,0.3000,0.0600,0.0002,0,-0.3000,-100.0000,-0.0010,-0.3000,-100.0000,-0.0010,16.6505,46.0071,0.0200,0.0000
57.6037,7.5964,-0.7543,0.7459,16.5800,0.0000,0.0000,0.0000,0.0000,-0.3421,-0.0602,0.0125,996,1502,1500,1500,2008,1000,1505,1505,1505,1364,2008,1112,1014,68.2931,19.1094,-3.5384,-0.0746,0.0312,0.9935,-0.2694,0.3899,0.2943,-0.4148,0.5184,0.5140,0.1092,0.5184,0.5140,0.1092,0.3000,0.0600,0.0002,0,-0.3000,-100.0000,-0.0010,-0.3000,-100.0000,-0.0010,16.6888,46.0460,0.0200,0.0000
58.2947,7.7290,-0.6185,0.7459,16.5800,0.0000,0.0000,0.0000,0.0000,-0.3465,-0.0583,0.0133,996,1502,1500,1500,2008,1000,1505,1505,1505,1364,2008,1112,1014,66.1281,16.7383,-3.8010,-0.0809,0.0494,0.9918,-0.2749,0.3916,0.3014,-0.4181,0.5184,0.5140,0.1092,0.5184,0.5140,0.1092,0.3000,0.0600,0.0002,0,-0.3000,-100.0000,-0.0010,-0.3000,-100.0000,-0.0010,16.7271,46.0848,0.0200,0.0000
58.9613,7.8470,-0.5055,0.8287,16.7442,0.0000,0.0000,0.0000,0.0000,-0.3509,-0.0560,0.0132,996,1502,1500,1500,2008,1000,1505,1505,1505,1364,2008,1112,1014,64.0992,14.0050,-3.7884,-0.0780,0.0611,0.9827,-0.2817,0.3936,0.3081,-0.4201,0.5184,0.5140,0.1092,0.5184,0.5140,0.1092,0.3000,0.0600,0.0002,0,-0.3000,-100.0000,-0.0010,-0.3000,-100.0000,-0.0010,16.7655,46.1236,0.0200,0.0000
59.6022,7.9480,-0.4144,0.9116,16.9083,0.0000,0.0600,0.3200,0.0000,-0.3548,-0.0533,0.0139,997,1503,1500,1500,2008,1000,1505,1505,1505,1364,2008,1112,1014,61.6989,11.3817,-3.4027,-0.0829,0.0749,0.9819,-0.2875,0.3942,0.3154,-0.4220,0.5184,0.5140,0.1092,0.5184,0.5140,0.1092,0.3000,0.0600,0.0002,0,-0.3000,-100.0000,-0.0010,-0.3000,-100.0000,-0.0010,16.8039,46.1625,0.0400,0.0100
60.2127,8.0271,-0.3415,0.9945,16.9904,0.0000,0.0000,0.0000,0.0000,-0.3580,-0.0515,0.0086,996,1502,1500,1500,2008,1000,1505,1505,1505,1364,2008,1112,1014,58.7432,9.0694,-2.3037,-0.0737,0.0853,0.9915,-0.2978,0.4008,0.3151,-0.4181,0.5184,0.5140,0.1092,0.5184,0.5140,0.1092,0.3000,0.0600,0.0002,0,-0.3000,-100.0000,-0.0010,-0.3000,-100.0000,-0.0010,16.8422,46.2013,0.0200,0.0000
60.7868,8.0836,-0.2788,1.0773,16.9904,0.0000,0.0000,0.0000,0.0000,-0.3602,-0.0500,0.0044,996,1502,1500,1500,2008,1000,1505,1505,1505,1364,2008,1112,1014,55.0690,7.4014,-0.8872,-0.0730,0.0970,0.9808,-0.3058,0.4058,0.3146,-0.4145,0.5184,0.5140,0.1092,0.5184,0.5140,0.1092,0.3000,0.0600,0.0002,0,-0.3000,-100.0000,-0.0010,-0.3000,-100.0000,-0.0010,16.8806,46.2402,0.0200,0.0000
61.3209,8.1183,-0.2226,1.2431,17.0725,0.0000,0.0000,0.0000,0.0000,-0.3617,-0.0486,0.0002,996,1502,1500,1500,2008,1000,1505,1505,1505,1363,2008,1112,1014,51.2338,5.9906,0.5143,-0.0729,0.1070,0.9958,-0.3129,0.4101,0.3133,-0.4105,0.5178,0.5140,0.1092,0.5178,0.5140,0.1092,0.3000,0.0600,0.0002,0,-0.3000,-100.0000,-0.0010,-0.3000,-100.0000,-0.0010,16.9190,46.2790,0.0200,0.0000
61.8134,8.1339,-0.1702,1.3260,17.3187,0.0000,0.0000,0.0000,0.0000,-0.3632,-0.0476,-0.0038,996,1502,1500,1500,2008,1000,1505,1505,1505,1363,2008,1112,1014,47.2372,5.0570,1.8303,-0.0697,0.1206,0.9895,-0.3193,0.4146,0.3118,-0.4071,0.5178,0.5140,0.1092,0.5178,0.5140,0.1092,0.3000,0.0600,0.0002,0,-0.3000,-100.0000,-0.0010,-0.3000,-100.0000,-0.0010,16.9574,46.3179,0.0200,0.0000
62.2631,8.1336,-0.1186,1.4917,17.4008,0.0000,0.0000,0.0000,0.0000,-0.3648,-0.0469,-0.0074,996,1502,1500,1500,2008,1000,1505,1505,1505,1364,2008,1112,1014,43.1244,4.3220,3.0393,-0.0689,0.1418,0.9924,-0.3253,0.4190,0.3105,-0.4042,0.5184,0.5140,0.1092,0.5184,0.5140,0.1092,0.3000,0.0600,0.0002,0,-0.3000,-100.0000,-0.0010,-0.3000,-100.0000,-0.0010,16.9959,46.3567,0.0200,0.0000
62.6683,8.1192,-0.0667,1.5746,17.4829,0.0000,0.0600,0.3200,0.0000,-0.3655,-0.0461,-0.0086,997,1503,1500,1500,2008,1000,1505,1505,1505,1364,2008,1112,1014,38.8008,3.9792,4.0968,-0.0662,0.1474,0.9917,-0.3280,0.4203,0.3108,-0.4030,0.5184,0.5140,0.1092,0.5184,0.5140,0.1092,0.3000,0.0600,0.0002,0,-0.3000,-100.0000,-0.0010,-0.3000,-100.0000,-0.0010,17.0343,46.3956,0.0400,0.0100
63.0286,8.0946,-0.0117,1.7403,17.6471,0.0000,0.0000,0.0000,0.0000,-0.3659,-0.0462,-0.0135,996,1502,1500,1500,2008,1000,1505,1505,1505,1364,2008,1112,1014,34.3828,3.8846,5.0716,-0.0665,0.1570,0.9839,-0.3333,0.4257,0.3062,-0.3986,0.5184,0.5140,0.1092,0.5184,0.5140,0.1092,0.3000,0.0600,0.0002,0,-0.3000,-100.0000,-0.0010,-0.3000,-100.0000,-0.0010,17.0727,46.4344,0.0200,0.0000
63.3418,8.0598,0.0467,1.9889,17.7291,0.0000,0.0000,0.0000,0.0000,-0.3656,-0.0459,-0.0159,996,1502,1500,1500,2008,1000,1505,1505,1505,1363,2008,1112,1014,29.8042,3.8539,5.8830,-0.0587,0.1559,0.9911,-0.3356,0.4275,0.3037,-0.3956,0.5178,0.5140,0.1092,0.5178,0.5140,0.1092,0.3000,0.0600,0.0002,0,-0.3000,-100.0000,-0.0010,-0.3000,-100.0000,-0.0010,17.1112,46.4732,0.0200,0.0000
63.6070,8.0213,0.1091,2.0718,18.0575,0.0000,0.0000,0.0000,0.0000,-0.3653,-0.0462,-0.0162,996,1502,1500,1500,2008,1000,1505,1505,1505,1363,2008,1112,1014,25.1152,4.2504,6.0124,-0.0663,0.1552,0.9848,-0.3353,0.4277,0.3029,-0.3952,0.5178,0.5140,0.1092,0.5178,0.5140,0.1092,0.3000,0.0600,0.0002,0,-0.3000,-100.0000,-0.0010,-0.3000,-100.0000,-0.0010,17.1496,46.5120,0.0200,0.0000
63.8224,7.9852,0.1742,2.2376,18.1395,0.0000,0.0000,0.0000,0.0000,-0.3650,-0.0462,-0.0155,996,1502,1500,1500,2008,1000,1505,1505,1505,1364,2008,1112,1014,20.2920,4.4380,5.7882,-0.0647,0.1589,0.9949,-0.3342,0.4267,0.3032,-0.3957,0.5184,0.5140,0.1092,0.5184,0.5140,0.1092,0.3000,0.0600,0.0002,0,-0.3000,-100.0000,-0.0010,-0.3000,-100.0000,-0.0010,17.1881,46.5507,0.0200,0.0000
63.9892,7.9542,0.2390,2.4862,18.3037,0.0000,0.0000,0.0000,0.0000,-0.3644,-0.0463,-0.0135,996,1502,1500,1500,2008,1000,1505,1505,1505,1364,2008,1112,1014,15.8710,4.6803,5.1121,-0.0691,0.1567,0.9935,-0.3316,0.4243,0.3046,-0.3973,0.5184,0.5140,0.1092,0.5184,0.5140,0.1092,0.3000,0.0600,0.0002,0,-0.3000,-100.0000,-0.0010,-0.3000,-100.0000,-0.0010,17.2266,46.5895,0.0200,0.0000
64.1110,7.9298,0.2988,2.6519,18.5499,0.0000,0.0600,0.3200,0.0000,-0.3641,-0.0453,-0.0094,997,1503,1500,1500,2008,1000,1505,1505,1505,1364,2008,1112,1014,11.8342,4.0817,4.3649,-0.0830,0.1640,0.9966,-0.3283,0.4188,0.3094,-0.3999,0.5184,0.5140,0.1092,0.5184,0.5140,0.1092,0.3000,0.0600,0.0002,0,-0.3000,-100.0000,-0.0010,-0.3000,-100.0000,-0.0010,17.2651,46.6283,0.0400,0.0100
64.1919,7.9081,0.3461,2.9006,18.7141,0.0000,0.0000,0.0000,0.0000,-0.3643,-0.0441,-0.0091,996,1502,1500,1500,2008,1000,1505,1505,1505,1364,2008,1112,1014,8.4528,2.8393,3.6243,-0.0871,0.1511,0.9903,-0.3293,0.4175,0.3111,-0.3993,0.5184,0.5140,0.1092,0.5184,0.5140,0.1092,0.3000,0.0600,0.0002,0,-0.3000,-100.0000,-0.0010,-0.3000,-100.0000,-0.0010,17.3036,46.6670,0.0200,0.0000
64.2389,7.8868,0.3750,3.1492,18.9603,0.0000,0.0000,0.0000,0.0000,-0.3651,-0.0419,-0.0070,996,1502,1500,1500,2008,1000,1505,1505,1505,1364,2008,1112,1014,5.7621,0.9106,2.9102,-0.0895,0.1452,0.9855,-0.3302,0.4139,0.3162,-0.4000,0.5184,0.5140,0.1092,0.5184,0.5140,0.1092,0.3000,0.0600,0.0002,0,-0.3000,-100.0000,-0.0010,-0.3000,-100.0000,-0.0010,17.3421,46.7058,0.0200,0.0000
64.2578,7.8621,0.3796,3.3978,19.2066,0.0000,0.0000,0.0000,0.0000,-0.3663,-0.0393,-0.0048,996,1502,1500,1500,2008,1000,1505,1505,1505,1364,2008,1112,1014,3.6556,-1.3483,2.1771,-0.0880,0.1331,0.9875,-0.3319,0.4104,0.3223,-0.4008,0.5184,0.5140,0.1092,0.5184,0.5140,0.1092,0.3000,0.0600,0.0002,0,-0.3000,-100.0000,-0.0010,-0.3000,-100.0000,-0.0010,17.3806,46.7445,0.0200,0.0000
64.2533,7.8347,0.3599,3.7293,19.5349,0.0000,0.0000,0.0000,0.0000,-0.3679,-0.0369,-0.0024,996,1502,1500,1500,2008,1000,1505,1505,1505,1364,2008,1112,1014,1.9331,-3.4375,1.3653,-0.0792,0.1301,0.9850,-0.3334,0.4072,0.3287,-0.4024,0.5184,0.5140,0.1092,0.5184,0.5140,0.1092,0.3000,0.0600,0.0002,0,-0.3000,-100.0000,-0.0010,-0.3000,-100.0000,-0.0010,17.4191,46.7833,0.0200,0.0000
64.2281,7.8053,0.3185,4.2265,20.0274,0.0000,0.0000,0.0000,0.0000,-0.3693,-0.0349,-0.0003,996,1502,1500,1500,2008,1000,1505,1505,1505,1364,2008,1112,1014,0.1872,-5.0708,0.6701,-0.0726,0.1352,0.9875,-0.3347,0.4046,0.3341,-0.4039,0.5184,0.5140,0.1092,0.5184,0.5140,0.1092,0.3000,0.0600,0.0002,0,-0.3000,-100.0000,-0.0010,-0.3000,-100.0000,-0.0010,17.4577,46.8221,0.0200,0.0000
64.1819,7.7762,0.2635,4.8066,20.8482,0.0000,0.0600,0.3200,0.0000,-0.3705,-0.0337,0.0029,997,1503,1500,1500,2008,1000,1505,1505,1505,1364,2008,1112,1014,-1.6605,-5.7724,0.2052,-0.0643,0.1371,0.9987,-0.3339,0.4013,0.3398,-0.4072,0.5184,0.5140,0.1092,0.5184,0.5140,0.1092,0.3000,0.0600,0.0002,0,-0.3000,-100.0000,-0.0010,-0.3000,-100.0000,-0.0010,17.4962,46.8608,0.0400,0.0100
64.1161,7.7478,0.2044,5.0552,20.6840,0.0000,0.0000,0.0000,0.0000,-0.3717,-0.0336,0.0010,996,1502,1500,1500,2008,1000,1505,1505,1505,1364,2008,1112,1014,-3.4886,-6.0033,0.1900,-0.0712,0.1487,0.9967,-0.3371,0.4043,0.3391,-0.4063,0.5184,0.5140,0.1092,0.5184,0.5140,0.1092,0.3000,0.0600,0.0002,0,-0.3000,-100.0000,-0.0010,-0.3000,-100.0000,-0.0010,17.5348,46.8994,0.0200,0.0000
64.0311,7.7170,0.1469,4.9724,20.8482,0.0000,0.0000,0.0000,0.0000,-0.3728,-0.0340,-0.0002,996,1502,1500,1500,2008,1000,1505,1505,1505,1364,2008,1112,1014,-5.2455,-5.4862,0.5863,-0.0605,0.1382,0.9842,-0.3390,0.4070,0.3385,-0.4066,0.5184,0.5140,0.1092,0.5184,0.5140,0.1092,0.3000,0.0600,0.0002,0,-0.3000,-100.0000,-0.0010,-0.3000,-100.0000,-0.0010,17.5733,46.9381,0.0200,0.0000
63.9313,7.6837,0.0963,4.8895,20.7661,0.0000,0.0000,0.0000,0.0000,-0.3743,-0.0342,-0.0022,996,1502,1500,1500,2008,1000,1505,1505,1505,1364,2008,1112,1014,-6.5316,-5.2002,1.2358,-0.0611,0.1306,0.9953,-0.3424,0.4107,0.3379,-0.4062,0.5184,0.5140,0.1092,0.5184,0.5140,0.1092,0.3000,0.0600,0.0002,0,-0.3000,-100.0000,-0.0010,-0.3000,-100.0000,-0.0010,17.6119,46.9767,0.0200,0.0000
63.8200,7.6452,0.0511,4.8895,20.8482,0.0000,0.0000,0.0000,0.0000,-0.3760,-0.0343,-0.0041,996,1502,1500,1500,2008,1000,1505,1505,1505,1364,2008,1112,1014,-7.5608,-4.8958,1.8435,-0.0651,0.1197,0.9841,-0.3458,0.4144,0.3377,-0.4063,0.5184,0.5140,0.1092,0.5184,0.5140,0.1092,0.3000,0.0600,0.0002,0,-0.3000,-100.0000,-0.0010,-0.3000,-100.0000,-0.0010,17.6505,47.0153,0.0200,0.0000
63.7026,7.6020,0.0109,4.7238,20.8482,0.0000,0.0000,0.0000,0.0000,-0.3786,-0.0341,-0.0057,996,1502,1500,1500,2008,1000,1505,1505,1505,1364,2008,1112,1014,-7.8402,-4.8874,2.3884,-0.0658,0.1091,0.9928,-0.3502,0.4183,0.3388,-0.4070,0.5184,0.5140,0.1092,0.5184,0.5140,0.1092,0.3000,0.0600,0.0002,0,-0.3000,-100.0000,-0.0010,-0.3000,-100.0000,-0.0010,17.6891,47.0539,0.0200,0.0000
63.5845,7.5544,-0.0265,4.8895,20.8482,0.0000,0.0600,0.3200,0.0000,-0.3814,-0.0336,-0.0048,997,1503,1500,1500,2008,1000,1505,1505,1505,1364,2008,1112,1014,-7.8792,-4.8136,2.7362,-0.0606,0.1009,0.9876,-0.3525,0.4197,0.3430,-0.4102,0.5184,0.5140,0.1092,0.5184,0.5140,0.1092,0.3000,0.0600,0.0002,0,-0.3000,-100.0000,-0.0010,-0.3000,-100.0000,-0.0010,17.7276,47.0925,0.0400,0.0100
63.4676,7.5048,-0.0641,4.8066,20.8482,0.0000,0.0000,0.0000,0.0000,-0.3845,-0.0335,-0.0070,996,1502,1500,1500,2008,1000,1505,1505,1505,1364,2008,1112,1014,-7.5471,-4.9488,2.8218,-0.0584,0.0985,1.0020,-0.3580,0.4250,0.3441,-0.4111,0.5184,0.5140,0.1092,0.5184,0.5140,0.1092,0.3000,0.0600,0.0002,0,-0.3000,-100.0000,-0.0010,-0.3000,-100.0000,-0.0010,17.7663,47.1311,0.0200,0.0000
63.3563,7.4543,-0.1019,4.8895,20.7661,0.0000,0.0000,0.0000,0.0000,-0.3881,-0.0332,-0.0070,996,1502,1500,1500,2008,1000,1505,1505,1505,1364,2008,1112,1014,-6.9041,-5.0018,2.8365,-0.0557,0.1059,0.9960,-0.3619,0.4283,0.3479,-0.4143,0.5184,0.5140,0.1092,0.5184,0.5140,0.1092,0.3000,0.0600,0.0002,0,-0.3000,-100.0000,-0.0010,-0.3000,-100.0000,-0.0010,17.8049,47.1697,0.0200,0.0000
63.2525,7.4049,-0.1395,4.8066,20.8482,0.0000,0.0000,0.0000,0.0000,-0.3919,-0.0331,-0.0066,996,1502,1500,1500,2008,1000,1505,1505,1505,1364,2008,1112,1014,-6.0770,-4.8252,2.6868,-0.0525,0.1026,0.9950,-0.3653,0.4315,0.3522,-0.4184,0.5184,0.5140,0.1092,0.5184,0.5140,0.1092,0.3000,0.0600,0.0002,0,-0.3000,-100.0000,-0.0010,-0.3000,-100.0000,-0.0010,17.8435,47.2083,0.0200,0.0000
63.1583,7.3565,-0.1755,4.8066,20.8482,0.0000,0.0000,0.0000,0.0000,-0.3958,-0.0330,-0.0065,996,1502,1500,1500,2008,1000,1505,1505,1505,1364,2008,1112,1014,-5.1655,-4.6670,2.6761,-0.0512,0.1062,0.9865,-0.3693,0.4354,0.3562,-0.4223,0.5184,0.5140,0.1092,0.5184,0.5140,0.1092,0.3000,0.0600,0.0002,0,-0.3000,-100.0000,-0.0010,-0.3000,-100.0000,-0.0010,17.8821,47.2469,0.0200,0.0000
63.0739,7.3097,-0.2084,4.8066,20.8482,0.0000,0.0000,0.0000,0.0000,-0.3996,-0.0334,-0.0065,996,1502,1500,1500,2008,1000,1505,1505,1505,1364,2008,1112,1014,-4.3809,-4.1402,2.6614,-0.0470,0.1016,0.9879,-0.3728,0.4395,0.3597,-0.4265,0.5184,0.5140,0.1092,0.5184,0.5140,0.1092,0.3000,0.0600,0.0002,0,-0.3000,-100.0000,-0.0010,-0.3000,-100.0000,-0.0010,17.9207,47.2854,0.0200,0.0000
62.9975,7.2651,-0.2360,4.8066,20.7661,0.0000,0.0600,0.3200,0.0000,-0.4033,-0.0334,-0.0049,997,1503,1500,1500,2008,1000,1505,1505,1505,1364,2008,1112,1014,-3.7260,-3.5770,2.7436,-0.0423,0.0981,0.9872,-0.3748,0.4416,0.3650,-0.4319,0.5184,0.5140,0.1092,0.5184,0.5140,0.1092,0.3000,0.0600,0.0002,0,-0.3000,-100.0000,-0.0010,-0.3000,-100.0000,-0.0010,17.9594,47.3240,0.0400,0.0100
62.9271,7.2241,-0.2553,4.7238,20.8482,0.0000,0.0000,0.0000,0.0000,-0.4067,-0.0347,-0.0069,996,1502,1500,1500,2008,1000,1505,1505,1505,1364,2008,1112,1014,-3.4040,-2.5164,2.7611,-0.0441,0.0969,0.9901,-0.3789,0.4483,0.3651,-0.4345,0.5184,0.5140,0.1092,0.5184,0.5140,0.1092,0.3000,0.0600,0.0002,0,-0.3000,-100.0000,-0.0010,-0.3000,-100.0000,-0.0010,17.9981,47.3626,0.0200,0.0000
62.8609,7.1876,-0.2649,4.8895,20.8482,0.0000,0.0000,0.0000,0.0000,-0.4101,-0.0356,-0.0070,996,1502,1500,1500,2008,1000,1505,1505,1505,1364,2008,1112,1014,-3.1408,-1.5544,2.7991,-0.0471,0.0977,0.9985,-0.3815,0.4526,0.3675,-0.4386,0.5184,0.5140,0.1092,0.5184,0.5140,0.1092,0.3000,0.0600,0.0002,0,-0.3000,-100.0000,-0.0010,-0.3000,-100.0000,-0.0010,18.0368,47.4011,0.0200,0.0000
62.7986,7.1550,-0.2651,4.8066,20.8482,0.0000,0.0000,0.0000,0.0000,-0.4134,-0.0364,-0.0075,996,1502,1500,1500,2008,1000,1505,1505,1505,1364,2008,1112,1014,-2.8834,-0.6641,2.9489,-0.0469,0.1009,0.9950,-0.3845,0.4573,0.3695,-0.4423,0.5184,0.5140,0.1092,0.5184,0.5140,0.1092,0.3000,0.0600,0.0002,0,-0.3000,-100.0000,-0.0010,-0.3000,-100.0000,-0.0010,18.0755,47.4397,0.0200,0.0000
62.7400,7.1249,-0.2572,4.8066,20.8482,0.0000,0.0000,0.0000,0.0000,-0.4168,-0.0370,-0.0078,996,1502,1500,1500,2008,1000,1505,1505,1505,1364,2008,1112,1014,-2.6008,0.0222,3.0494,-0.0475,0.1017,0.9941,-0.3876,0.4616,0.3720,-0.4459,0.5184,0.5140,0.1092,0.5184,0.5140,0.1092,0.3000,0.0600,0.0002,0,-0.3000,-100.0000,-0.0010,-0.3000,-100.0000,-0.0010,18.1142,47.4783,0.0200,0.0000
62.6854,7.0963,-0.2431,4.8066,20.7661,0.0000,0.0000,0.0000,0.0000,-0.4202,-0.0373,-0.0084,996,1502,1500,1500,2008,1000,1505,1505,1505,1364,2008,1112,1014,-2.3000,0.5100,3.2337,-0.0532,0.1075,0.9951,-0.3913,0.4660,0.3745,-0.4492,0.5184,0.5140,0.1092,0.5184,0.5140,0.1092,0.3000,0.0600,0.0002,0,-0.3000,-100.0000,-0.0010,-0.3000,-100.0000,-0.0010,18.1529,47.5169,0.0200,0.0000
62.6333,7.0680,-0.2254,4.8066,20.8482,0.0000,0.0600,0.3200,0.0000,-0.4235,-0.0371,-0.0067,997,1503,1500,1500,2008,1000,1505,1505,1505,1364,2008,1112,1014,-2.1490,0.7002,3.3172,-0.0553,0.1040,0.9900,-0.3931,0.4673,0.3797,-0.4539,0.5184,0.5140,0.1092,0.5184,0.5140,0.1092,0.3000,0.0600,0.0002,0,-0.3000,-100.0000,-0.0010,-0.3000,-100.0000,-0.0010,18.1916,47.5554,0.0400,0.0100
62.5836,7.0410,-0.2060,4.8895,20.8482,0.0000,0.0000,0.0000,0.0000,-0.4269,-0.0374,-0.0082,996,1502,1500,1500,2008,1000,1505,1505,1505,1364,2008,1112,1014,-1.9371,0.7930,3.1790,-0.0549,0.1002,0.9931,-0.3977,0.4724,0.3813,-0.4560,0.5184,0.5140,0.1092,0.5184,0.5140,0.1092,0.3000,0.0600,0.0002,0,-0.3000,-100.0000,-0.0010,-0.3000,-100.0000,-0.0010,18.2304,47.5939,0.0200,0.0000
62.5356,7.0151,-0.1879,4.8066,20.8482,0.0000,0.0000,0.0000,0.0000,-0.4302,-0.0371,-0.0079,996,1502,1500,1500,2008,1000,1505,1505,1505,1364,2008,1112,1014,-1.7345,0.6266,3.0491,-0.0596,0.0997,0.9889,-0.4010,0.4751,0.3853,-0.4594,0.5184,0.5140,0.1092,0.5184,0.5140,0.1092,0.3000,0.0600,0.0002,0,-0.3000,-100.0000,-0.0010,-0.3000,-100.0000,-0.0010,18.2691,47.6325,0.0200,0.0000
62.4900,6.9889,-0.1733,4.8066,20.8482,0.0000,0.0000,0.0000,0.0000,-0.4337,-0.0364,-0.0076,996,1502,1500,1500,2008,1000,1505,1505,1505,1364,2008,1112,1014,-1.4446,0.1885,2.9561,-0.0573,0.0963,0.9952,-0.4048,0.4777,0.3896,-0.4625,0.5184,0.5140,0.1092,0.5184,0.5140,0.1092,0.3000,0.0600,0.0002,0,-0.3000,-100.0000,-0.0010,-0.3000,-100.0000,-0.0010,18.3079,47.6710,0.0200,0.0000
62.4464,6.9605,-0.1627,4.8895,20.8482,0.0000,0.0000,0.0000,0.0000,-0.4370,-0.0358,-0.0079,996,1502,1500,1500,2008,1000,1505,1505,1505,1364,2008,1112,1014,-1.2435,-0.2293,3.0580,-0.0584,0.1018,0.9945,-0.4091,0.4808,0.3933,-0.4649,0.5184,0.5140,0.1092,0.5184,0.5140,0.1092,0.3000,0.0600,0.0002,0,-0.3000,-100.0000,-0.0010,-0.3000,-100.0000,-0.0010,18.3467,47.7095,0.0200,0.0000
62.4038,6.9288,-0.1551,4.8066,20.8482,0.0000,0.0000,0.0000,0.0000,-0.4402,-0.0353,-0.0085,996,1502,1500,1500,2008,1000,1505,1505,1505,1364,2008,1112,1014,-1.2058,-0.5686,3.2202,-0.0554,0.1079,0.9971,-0.4134,0.4840,0.3965,-0.4671,0.5184,0.5140,0.1092,0.5184,0.5140,0.1092,0.3000,0.0600,0.0002,0,-0.3000,-100.0000,-0.0010,-0.3000,-100.0000,-0.0010,18.3854,47.7480,0.0200,0.0000
62.3602,6.8938,-0.1485,4.8066,20.8482,0.0000,0.0600,0.3200,0.0000,-0.4431,-0.0347,-0.0074,997,1503,1500,1500,2008,1000,1505,1505,1505,1364,2008,1112,1014,-1.4019,-0.6818,3.4990,-0.0506,0.1035,0.9923,-0.4159,0.4852,0.4010,-0.4704,0.5184,0.5140,0.1092,0.5184,0.5140,0.1092,0.3000,0.0600,0.0002,0,-0.3000,-100.0000,-0.0010,-0.3000,-100.0000,-0.0010,18.4242,47.7865,0.0400,0.0100
62.3131,6.8560,-0.1401,4.8066,20.8482,0.0000,0.0000,0.0000,0.0000,-0.4458,-0.0350,-0.0102,996,1502,1500,1500,2008,1000,1505,1505,1505,1364,2008,1112,1014,-1.8506,-0.4927,3.7978,-0.0494,0.1088,0.9952,-0.4210,0.4910,0.4005,-0.4705,0.5184,0.5140,0.1092,0.5184,0.5140,0.1092,0.3000,0.0600,0.0002,0,-0.3000,-100.0000,-0.0010,-0.3000,-100.0000,-0.0010,18.4630,47.8249,0.0200,0.0000
62.2603,6.8176,-0.1274,4.8895,20.8482,0.0000,0.0000,0.0000,0.0000,-0.4481,-0.0353,-0.0108,996,1502,1500,1500,2008,1000,1505,1505,1505,1364,2008,1112,1014,-2.5802,-0.0814,3.9790,-0.0498,0.1094,0.9910,-0.4236,0.4941,0.4020,-0.4725,0.5184,0.5140,0.1092,0.5184,0.5140,0.1092,0.3000,0.0600,0.0002,0,-0.3000,-100.0000,-0.0010,-0.3000,-100.0000,-0.0010,18.5017,47.8634,0.0200,0.0000
62.2009,6.7805,-0.1097,4.8895,20.7661,0.0000,0.0000,0.0000,0.0000,-0.4474,-0.0355,-0.0109,996,1502,1500,1500,2008,1000,1505,1505,1505,1364,2008,1112,1014,-3.2521,0.3366,4.0044,-0.0456,0.1117,0.9949,-0.4228,0.4938,0.4010,-0.4720,0.5184,0.5140,0.1092,0.5184,0.5140,0.1092,0.3000,0.0600,0.0002,0,-0.3000,-100.0000,-0.0010,-0.3000,-100.0000,-0.0010,18.5405,47.9018,0.0200,0.0000
62.1345,6.7453,-0.0893,4.8066,20.8482,0.0000,0.0000,0.0000,0.0000,-0.4464,-0.0357,-0.0107,996,1502,1500,1500,2008,1000,1505,1505,1505,1364,2008,1112,1014,-3.8632,0.6598,3.9354,-0.0545,0.1091,0.9922,-0.4214,0.4927,0.4000,-0.4714,0.5184,0.5140,0.1092,0.5184,0.5140,0.1092,0.3000,0.0600,0.0002,0,-0.3000,-100.0000,-0.0010,-0.3000,-100.0000,-0.0010,18.5793,47.9403,0.0200,0.0000
62.0623,6.7126,-0.0676,4.8895,20.8482,0.0000,0.0000,0.0000,0.0000,-0.4454,-0.0355,-0.0100,996,1502,1500,1500,2008,1000,1505,1505,1505,1364,2008,1112,1014,-4.4593,0.6650,3.7264,-0.0562,0.1080,0.9939,-0.4199,0.4909,0.3998,-0.4708,0.5184,0.5140,0.1092,0.5184,0.5140,0.1092,0.3000,0.0600,0.0002,0,-0.3000,-100.0000,-0.0010,-0.3000,-100.0000,-0.0010,18.6182,47.9787,0.0200,0.0000
61.9842,6.6827,-0.0474,4.8066,20.8482,0.0000,0.0600,0.3200,0.0000,-0.4445,-0.0351,-0.0071,997,1503,1500,1500,2008,1000,1505,1505,1505,1364,2008,1112,1014,-4.8573,0.7226,3.3902,-0.0534,0.1044,0.9975,-0.4165,0.4868,0.4023,-0.4725,0.5184,0.5140,0.1092,0.5184,0.5140,0.1092,0.3000,0.0600,0.0002,0,-0.3000,-100.0000,-0.0010,-0.3000,-100.0000,-0.0010,18.6571,48.0172,0.0400,0.0100
61.9010,6.6559,-0.0293,4.8066,20.7661,0.0000,0.0000,0.0000,0.0000,-0.4434,-0.0350,-0.0079,996,1502,1500,1500,2008,1000,1505,1505,1505,1364,2008,1112,1014,-5.4442,0.4986,3.0045,-0.0540,0.0998,0.9960,-0.4163,0.4864,0.4005,-0.4706,0.5184,0.5140,0.1092,0.5184,0.5140,0.1092,0.3000,0.0600,0.0002,0,-0.3000,-100.0000,-0.0010,-0.3000,-100.0000,-0.0010,18.6959,48.0556,0.0200,0.0000
61.8115,6.6320,-0.0163,4.8895,20.7661,0.0000,0.0000,0.0000,0.0000,-0.4424,-0.0346,-0.0064,996,1502,1500,1500,2008,1000,1505,1505,1505,1364,2008,1112,1014,-5.9436,0.2163,2.4938,-0.0542,0.1013,0.9877,-0.4142,0.4834,0.4015,-0.4707,0.5184,0.5140,0.1092,0.5184,0.5140,0.1092,0.3000,0.0600,0.0002,0,-0.3000,-100.0000,-0.0010,-0.3000,-100.0000,-0.0010,18.7348,48.0941,0.0200,0.0000
61.7157,6.6125,-0.0082,4.8066,20.8482,0.0000,0.0000,0.0000,0.0000,-0.4413,-0.0343,-0.0043,996,1502,1500,1500,2008,1000,1505,1505,1505,1364,2008,1112,1014,-6.5305,0.0118,1.7904,-0.0556,0.1022,0.9912,-0.4113,0.4799,0.4027,-0.4713,0.5184,0.5140,0.1092,0.5184,0.5140,0.1092,0.3000,0.0600,0.0002,0,-0.3000,-100.0000,-0.0010,-0.3000,-100.0000,-0.0010,18.7736,48.1324,0.0200,0.0000
61.6129,6.5981,-0.0050,4.8895,20.8482,0.0000,0.0000,0.0000,0.0000,-0.4401,-0.0340,-0.0025,996,1502,1500,1500,2008,1000,1505,1505,1505,1364,2008,1112,1014,-7.1701,-0.1641,1.2093,-0.0556,0.1051,0.9886,-0.4086,0.4766,0.4035,-0.4716,0.5184,0.5140,0.1092,0.5184,0.5140,0.1092,0.3000,0.0600,0.0002,0,-0.3000,-100.0000,-0.0010,-0.3000,-100.0000,-0.0010,18.8125,48.1708,0.0200,0.0000
61.5029,6.5877,-0.0061,4.8895,20.7661,0.0000,0.0000,0.0000,0.0000,-0.4388,-0.0338,-0.0011,996,1502,1500,1500,2008,1000,1505,1505,1505,1364,2008,1112,1014,-7.7726,-0.3046,0.7277,-0.0548,0.1072,0.9922,-0.4061,0.4738,0.4039,-0.4716,0.5184,0.5140,0.1092,0.5184,0.5140,0.1092,0.3000,0.0600,0.0002,0,-0.3000,-100.0000,-0.0010,-0.3000,-100.0000,-0.0010,18.8514,48.2091,0.0200,0.0000
61.3850,6.5809,-0.0114,4.7238,20.8482,0.0000,0.0600,0.3200,0.0000,-0.4370,-0.0332,0.0021,997,1503,1500,1500,2008,1000,1505,1505,1505,1363,2008,1112,1014,-8.5856,-0.5058,0.2912,-0.0514,0.1077,0.9989,-0.4017,0.4681,0.4059,-0.4723,0.5178,0.5140,0.1092,0.5178,0.5140,0.1092,0.3000,0.0600,0.0002,0,-0.3000,-100.0000,-0.0010,-0.3000,-100.0000,-0.0010,18.8903,48.2475,0.0400,0.0100
61.2576,6.5771,-0.0194,4.8066,20.8482,0.0000,0.0000,0.0000,0.0000,-0.4353,-0.0335,0.0015,996,1502,1500,1500,2008,1000,1505,1505,1505,1363,2008,1112,1014,-9.5574,-0.5283,-0.1328,-0.0509,0.1011,0.9981,-0.4003,0.4673,0.4032,-0.4702,0.5178,0.5140,0.1092,0.5178,0.5140,0.1092,0.3000,0.0600,0.0002,0,-0.3000,-100.0000,-0.0010,-0.3000,-100.0000,-0.0010,18.9292,48.2858,0.0200,0.0000
61.1191,6.5773,-0.0299,4.8895,20.8482,0.0000,0.0000,0.0000,0.0000,-0.4337,-0.0336,0.0028,996,1502,1500,1500,2008,1000,1505,1505,1505,1364,2008,1112,1014,-10.6262,-0.4950,-0.5709,-0.0539,0.0943,0.9982,-0.3974,0.4645,0.4030,-0.4701,0.5184,0.5140,0.1092,0.5184,0.5140,0.1092,0.3000,0.0600,0.0002,0,-0.3000,-100.0000,-0.0010,-0.3000,-100.0000,-0.0010,18.9681,48.3242,0.0200,0.0000
60.9685,6.5811,-0.0423,4.8895,20.8482,0.0000,0.0000,0.0000,0.0000,-0.4317,-0.0335,0.0038,996,1502,1500,1500,2008,1000,1505,1505,1505,1364,2008,1112,1014,-11.7320,-0.6018,-0.9114,-0.0535,0.0934,0.9965,-0.3945,0.4614,0.4021,-0.4690,0.5184,0.5140,0.1092,0.5184,0.5140,0.1092,0.3000,0.0600,0.0002,0,-0.3000,-100.0000,-0.0010,-0.3000,-100.0000,-0.0010,19.0070,48.3625,0.0200,0.0000
60.8069,6.5859,-0.0581,4.8895,20.8482,0.0000,0.0000,0.0000,0.0000,-0.4300,-0.0330,0.0040,996,1502,1500,1500,2008,1000,1505,1505,1505,1364,2008,1112,1014,-12.5577,-1.0091,-1.0068,-0.0585,0.0892,0.9935,-0.3929,0.4590,0.4010,-0.4671,0.5184,0.5140,0.1092,0.5184,0.5140,0.1092,0.3000,0.0600,0.0002,0,-0.3000,-100.0000,-0.0010,-0.3000,-100.0000,-0.0010,19.0459,48.4008,0.0200,0.0000
60.6394,6.5873,-0.0800,4.8066,20.8482,0.0000,0.0000,0.0000,0.0000,-0.4289,-0.0321,0.0038,996,1502,1500,1500,2008,1000,1505,1505,1505,1364,2008,1112,1014,-12.7936,-1.8841,-0.9393,-0.0626,0.0898,0.9908,-0.3930,0.4572,0.4006,-0.4648,0.5184,0.5140,0.1092,0.5184,0.5140,0.1092,0.3000,0.0600,0.0002,0,-0.3000,-100.0000,-0.0010,-0.3000,-100.0000,-0.0010,19.0849,48.4391,0.0200,0.0000
60.4708,6.5826,-0.1106,4.8895,20.7661,0.0000,0.0600,0.3200,0.0000,-0.4282,-0.0306,0.0054,997,1503,1500,1500,2008,1000,1505,1505,1505,1364,2008,1112,1014,-12.6235,-2.9470,-0.8266,-0.0597,0.0831,0.9860,-0.3922,0.4534,0.4030,-0.4642,0.5184,0.5140,0.1092,0.5184,0.5140,0.1092,0.3000,0.0600,0.0002,0,-0.3000,-100.0000,-0.0010,-0.3000,-100.0000,-0.0010,19.1238,48.4773,0.0400,0.0100
60.3045,6.5710,-0.1511,4.8895,20.8482,0.0000,0.0000,0.0000,0.0000,-0.4279,-0.0296,0.0031,996,1502,1500,1500,2008,1000,1505,1505,1505,1364,2008,1112,1014,-12.1387,-4.0630,-0.7019,-0.0570,0.0736,0.9954,-0.3951,0.4544,0.4014,-0.4606,0.5184,0.5140,0.1092,0.5184,0.5140,0.1092,0.3000,0.0600,0.0002,0,-0.3000,-100.0000,-0.0010,-0.3000,-100.0000,-0.0010,19.1628,48.5157,0.0200,0.0000
60.1431,6.5525,-0.1994,4.8895,20.8482,0.0000,0.0000,0.0000,0.0000,-0.4276,-0.0286,0.0024,996,1502,1500,1500,2008,1000,1505,1505,1505,1364,2008,1112,1014,-11.6039,-4.9004,-0.4656,-0.0539,0.0607,0.9983,-0.3966,0.4538,0.4014,-0.4586,0.5184,0.5140,0.1092,0.5184,0.5140,0.1092,0.3000,0.0600,0.0002,0,-0.3000,-100.0000,-0.0010,-0.3000,-100.0000,-0.0010,19.2018,48.5540,0.0200,0.0000
59.9865,6.5278,-0.2526,4.8066,20.8482,0.0000,0.0000,0.0000,0.0000,-0.4273,-0.0279,0.0016,996,1502,1500,1500,2008,1000,1505,1505,1505,1364,2008,1112,1014,-11.1110,-5.4427,-0.2032,-0.0493,0.0554,1.0041,-0.3978,0.4536,0.4010,-0.4568,0.5184,0.5140,0.1092,0.5184,0.5140,0.1092,0.3000,0.0600,0.0002,0,-0.3000,-100.0000,-0.0010,-0.3000,-100.0000,-0.0010,19.2408,48.5923,0.0200,0.0000
59.8349,6.4980,-0.3083,4.8066,20.8482,0.0000,0.0000,0.0000,0.0000,-0.4272,-0.0273,0.0005,996,1502,1500,1500,2008,1000,1505,1505,1505,1364,2008,1112,1014,-10.5274,-5.8063,0.1447,-0.0499,0.0490,0.9997,-0.3993,0.4540,0.4004,-0.4551,0.5184,0.5140,0.1092,0.5184,0.5140,0.1092,0.3000,0.0600,0.0002,0,-0.3000,-100.0000,-0.0010,-0.3000,-100.0000,-0.0010,19.2798,48.6307,0.0200,0.0000
59.6906,6.4629,-0.3634,4.8066,20.8482,0.0000,0.0000,0.0000,0.0000,-0.4269,-0.0270,-0.0011,996,1502,1500,1500,2008,1000,1505,1505,1505,1363,2008,1112,1014,-9.7896,-5.8850,0.6714,-0.0476,0.0555,0.9929,-0.4009,0.4550,0.3988,-0.4529,0.5178,0.5140,0.1092,0.5178,0.5140,0.1092,0.3000,0.0600,0.0002,0,-0.3000,-100.0000,-0.0010,-0.3000,-100.0000,-0.0010,19.3189,48.6690,0.0200,0.0000
59.5554,6.4220,-0.4157,4.8895,20.8482,0.0000,0.0600,0.3200,0.0000,-0.4276,-0.0265,-0.0010,997,1503,1500,1500,2008,1000,1505,1505,1505,1364,2008,1112,1014,-8.8318,-5.9356,1.2796,-0.0446,0.0589,0.9930,-0.4021,0.4551,0.4001,-0.4531,0.5184,0.5140,0.1092,0.5184,0.5140,0.1092,0.3000,0.0600,0.0002,0,-0.3000,-100.0000,-0.0010,-0.3000,-100.0000,-0.0010,19.3579,48.7073,0.0400,0.0100
59.4312,6.3751,-0.4633,4.8066,20.7661,0.0000,0.0000,0.0000,0.0000,-0.4281,-0.0268,-0.0052,996,1502,1500,1500,2008,1000,1505,1505,1505,1364,2008,1112,1014,-7.7901,-5.6925,2.0467,-0.0385,0.0586,0.9930,-0.4065,0.4601,0.3960,-0.4497,0.5184,0.5140,0.1092,0.5184,0.5140,0.1092,0.3000,0.0600,0.0002,0,-0.3000,-100.0000,-0.0010,-0.3000,-100.0000,-0.0010,19.3970,48.7455,0.0200,0.0000
59.3189,6.3237,-0.5042,4.8895,20.7661,0.0000,0.0000,0.0000,0.0000,-0.4287,-0.0271,-0.0069,996,1502,1500,1500,2008,1000,1505,1505,1505,1364,2008,1112,1014,-6.7303,-5.2293,2.6086,-0.0398,0.0591,0.9946,-0.4085,0.4626,0.3947,-0.4488,0.5184,0.5140,0.1092,0.5184,0.5140,0.1092,0.3000,0.0600,0.0002,0,-0.3000,-100.0000,-0.0010,-0.3000,-100.0000,-0.0010,19.4360,48.7838,0.0200,0.0000
59.2182,6.2707,-0.5366,4.8066,20.7661,0.0000,0.0000,0.0000,0.0000,-0.4292,-0.0276,-0.0082,996,1502,1500,1500,2008,1000,1505,1505,1505,1364,2008,1112,1014,-5.7522,-4.4800,3.0523,-0.0377,0.0524,0.9967,-0.4098,0.4650,0.3934,-0.4486,0.5184,0.5140,0.1092,0.5184,0.5140,0.1092,0.3000,0.0600,0.0002,0,-0.3000,-100.0000,-0.0010,-0.3000,-100.0000,-0.0010,19.4751,48.8220,0.0200,0.0000
59.1282,6.2193,-0.5593,4.8066,20.8482,0.0000,0.0000,0.0000,0.0000,-0.4296,-0.0284,-0.0088,996,1502,1500,1500,2008,1000,1505,1505,1505,1364,2008,1112,1014,-4.9221,-3.5489,3.2555,-0.0287,0.0446,0.9993,-0.4101,0.4668,0.3925,-0.4492,0.5184,0.5140,0.1092,0.5184,0.5140,0.1092,0.3000,0.0600,0.0002,0,-0.3000,-100.0000,-0.0010,-0.3000,-100.0000,-0.0010,19.5141,48.8603,0.0200,0.0000
59.0469,6.1737,-0.5715,4.7238,20.8482,0.0000,0.0000,0.0000,0.0000,-0.4299,-0.0295,-0.0083,996,1502,1500,1500,2008,1000,1505,1505,1505,1364,2008,1112,1014,-4.3286,-2.2806,3.0857,-0.0300,0.0448,1.0010,-0.4087,0.4677,0.3921,-0.4511,0.5184,0.5140,0.1092,0.5184,0.5140,0.1092,0.3000,0.0600,0.0002,0,-0.3000,-100.0000,-0.0010,-0.3000,-100.0000,-0.0010,19.5532,48.8985,0.0200,0.0000
58.9734,6.1382,-0.5734,4.8066,20.8482,0.0000,0.0600,0.3200,0.0000,-0.4302,-0.0306,-0.0049,997,1503,1500,1500,2008,1000,1505,1505,1505,1364,2008,1112,1014,-3.6495,-0.8622,2.6106,-0.0322,0.0510,1.0000,-0.4045,0.4657,0.3948,-0.4559,0.5184,0.5140,0.1092,0.5184,0.5140,0.1092,0.3000,0.0600,0.0002,0,-0.3000,-100.0000,-0.0010,-0.3000,-100.0000,-0.0010,19.5923,48.9367,0.0400,0.0100
58.9074,6.1164,-0.5665,4.8066,20.8482,0.0000,0.0000,0.0000,0.0000,-0.4306,-0.0322,-0.0044,996,1502,1500,1500,2008,1000,1505,1505,1505,1364,2008,1112,1014,-3.0061,0.4234,1.8227,-0.0353,0.0594,0.9942,-0.4028,0.4672,0.3940,-0.4583,0.5184,0.5140,0.1092,0.5184,0.5140,0.1092,0.3000,0.0600,0.0002,0,-0.3000,-100.0000,-0.0010,-0.3000,-100.0000,-0.0010,19.6313,48.9749,0.0200,0.0000
58.8487,6.1080,-0.5530,4.8895,20.7661,0.0000,0.0000,0.0000,0.0000,-0.4310,-0.0333,-0.0022,996,1502,1500,1500,2008,1000,1505,1505,1505,1364,2008,1112,1014,-2.3589,1.4997,1.0643,-0.0358,0.0638,0.9952,-0.3999,0.4665,0.3955,-0.4621,0.5184,0.5140,0.1092,0.5184,0.5140,0.1092,0.3000,0.0600,0.0002,0,-0.3000,-100.0000,-0.0010,-0.3000,-100.0000,-0.0010,19.6704,49.0131,0.0200,0.0000
58.7973,6.1106,-0.5351,4.8066,20.7661,0.0000,0.0000,0.0000,0.0000,-0.4314,-0.0341,-0.0006,996,1502,1500,1500,2008,1000,1505,1505,1505,1364,2008,1112,1014,-1.7272,2.2034,0.5394,-0.0413,0.0647,0.9931,-0.3980,0.4661,0.3967,-0.4649,0.5184,0.5140,0.1092,0.5184,0.5140,0.1092,0.3000,0.0600,0.0002,0,-0.3000,-100.0000,-0.0010,-0.3000,-100.0000,-0.0010,19.7095,49.0512,0.0200,0.0000
58.7521,6.1209,-0.5147,4.7238,20.8482,0.0000,0.0000,0.0000,0.0000,-0.4317,-0.0346,0.0005,996,1502,1500,1500,2008,1000,1505,1505,1505,1364,2008,1112,1014,-1.2338,2.6235,0.1343,-0.0460,0.0581,0.9961,-0.3966,0.4658,0.3977,-0.4668,0.5184,0.5140,0.1092,0.5184,0.5140,0.1092,0.3000,0.0600,0.0002,0,-0.3000,-100.0000,-0.0010,-0.3000,-100.0000,-0.0010,19.7486,49.0895,0.0200,0.0000
58.7118,6.1351,-0.4944,4.8066,20.9302,0.0000,0.0000,0.0000,0.0000,-0.4320,-0.0347,0.0015,996,1502,1500,1500,2008,1000,1505,1505,1505,1364,2008,1112,1014,-0.7538,2.6331,-0.1792,-0.0445,0.0463,0.9989,-0.3959,0.4653,0.3988,-0.4682,0.5184,0.5140,0.1092,0.5184,0.5140,0.1092,0.3000,0.0600,0.0002,0,-0.3000,-100.0000,-0.0010,-0.3000,-100.0000,-0.0010,19.7878,49.1277,0.0200,0.0000
58.6768,6.1499,-0.4780,4.8895,20.8482,0.0000,0.0600,0.3200,0.0000,-0.4321,-0.0337,0.0039,997,1503,1500,1500,2008,1000,1505,1505,1505,1363,2008,1112,1014,-0.1890,1.9743,-0.3434,-0.0510,0.0419,1.0010,-0.3946,0.4620,0.4023,-0.4697,0.5178,0.5140,0.1092,0.5178,0.5140,0.1092,0.3000,0.0600,0.0002,0,-0.3000,-100.0000,-0.0010,-0.3000,-100.0000,-0.0010,19.8269,49.1659,0.0400,0.0100
58.6476,6.1612,-0.4694,4.8066,20.8482,0.0000,0.0000,0.0000,0.0000,-0.4327,-0.0331,0.0020,996,1502,1500,1500,2008,1000,1505,1505,1505,1363,2008,1112,1014,0.5200,1.1224,-0.3672,-0.0497,0.0433,0.9961,-0.3976,0.4639,0.4016,-0.4679,0.5178,0.5140,0.1092,0.5178,0.5140,0.1092,0.3000,0.0600,0.0002,0,-0.3000,-100.0000,-0.0010,-0.3000,-100.0000,-0.0010,19.8661,49.2040,0.0200,0.0000
58.6247,6.1676,-0.4693,4.8066,20.8482,0.0000,0.0000,0.0000,0.0000,-0.4337,-0.0322,0.0021,996,1502,1500,1500,2008,1000,1505,1505,1505,1364,2008,1112,1014,1.1426,0.1965,-0.3834,-0.0496,0.0534,0.9943,-0.3994,0.4638,0.4035,-0.4679,0.5184,0.5140,0.1092,0.5184,0.5140,0.1092,0.3000,0.0600,0.0002,0,-0.3000,-100.0000,-0.0010,-0.3000,-100.0000,-0.0010,19.9053,49.2422,0.0200,0.0000
58.6052,6.1695,-0.4751,4.8895,20.7661,0.0000,0.0000,0.0000,0.0000,-0.4337,-0.0317,0.0017,996,1502,1500,1500,2008,1000,1505,1505,1505,1364,2008,1112,1014,1.2708,-0.2407,-0.2565,-0.0418,0.0690,1.0006,-0.4003,0.4637,0.4036,-0.4671,0.5184,0.5140,0.1092,0.5184,0.5140,0.1092,0.3000,0.0600,0.0002,0,-0.3000,-100.0000,-0.0010,-0.3000,-100.0000,-0.0010,19.9445,49.2803,0.0200,0.0000
58.5837,6.1692,-0.4816,4.8066,20.8482,0.0000,0.0000,0.0000,0.0000,-0.4332,-0.0319,0.0014,996,1502,1500,1500,2008,1000,1505,1505,1505,1364,2008,1112,1014,0.8991,-0.1077,-0.1634,-0.0397,0.0706,0.9987,-0.3999,0.4636,0.4027,-0.4664,0.5184,0.5140,0.1092,0.5184,0.5140,0.1092,0.3000,0.0600,0.0002,0,-0.3000,-100.0000,-0.0010,-0.3000,-100.0000,-0.0010,19.9836,49.3185,0.0200,0.0000
58.5582,6.1707,-0.4860,4.8066,20.8482,0.0000,0.0000,0.0000,0.0000,-0.4325,-0.0323,0.0018,996,1502,1500,1500,2008,1000,1505,1505,1505,1364,2008,1112,1014,0.4003,0.2525,-0.2787,-0.0355,0.0739,0.9976,-0.3985,0.4630,0.4020,-0.4665,0.5184,0.5140,0.1092,0.5184,0.5140,0.1092,0.3000,0.0600,0.0002,0,-0.3000,-100.0000,-0.0010,-0.3000,-100.0000,-0.0010,20.0228,49.3566,0.0200,0.0000
58.5256,6.1765,-0.4851,4.8895,20.8482,0.0000,0.0600,0.3200,0.0000,-0.4314,-0.0329,0.0040,997,1503,1500,1500,2008,1000,1505,1505,1505,1364,2008,1112,1014,-0.4812,1.0826,-0.4028,-0.0404,0.0673,1.0013,-0.3945,0.4602,0.4025,-0.4683,0.5184,0.5140,0.1092,0.5184,0.5140,0.1092,0.3000,0.0600,0.0002,0,-0.3000,-100.0000,-0.0010,-0.3000,-100.0000,-0.0010,20.0620,49.3947,0.0400,0.0100
58.4846,6.1871,-0.4797,4.8895,20.7661,0.0000,0.0000,0.0000,0.0000,-0.4304,-0.0337,0.0024,996,1502,1500,1500,2008,1000,1505,1505,1505,1364,2008,1112,1014,-1.2089,1.4724,-0.5153,-0.0417,0.0572,0.9974,-0.3942,0.4616,0.3991,-0.4665,0.5184,0.5140,0.1092,0.5184,0.5140,0.1092,0.3000,0.0600,0.0002,0,-0.3000,-100.0000,-0.0010,-0.3000,-100.0000,-0.0010,20.1013,49.4328,0.0200,0.0000
58.4371,6.2007,-0.4713,4.8066,20.8482,0.0000,0.0000,0.0000,0.0000,-0.4293,-0.0341,0.0027,996,1502,1500,1500,2008,1000,1505,1505,1505,1364,2008,1112,1014,-1.9464,1.7497,-0.5893,-0.0472,0.0679,0.9930,-0.3926,0.4607,0.3979,-0.4660,0.5184,0.5140,0.1092,0.5184,0.5140,0.1092,0.3000,0.0600,0.0002,0,-0.3000,-100.0000,-0.0010,-0.3000,-100.0000,-0.0010,20.1405,49.4709,0.0200,0.0000
58.3819,6.2149,-0.4623,4.8066,20.8482,0.0000,0.0000,0.0000,0.0000,-0.4283,-0.0341,0.0026,996,1502,1500,1500,2008,1000,1505,1505,1505,1364,2008,1112,1014,-2.5854,1.7205,-0.5624,-0.0462,0.0627,0.9983,-0.3916,0.4598,0.3968,-0.4650,0.5184,0.5140,0.1092,0.5184,0.5140,0.1092,0.3000,0.0600,0.0002,0,-0.3000,-100.0000,-0.0010,-0.3000,-100.0000,-0.0010,20.1797,49.5089,0.0200,0.0000
58.3203,6.2279,-0.4537,4.8895,20.8482,0.0000,0.0000,0.0000,0.0000,-0.4274,-0.0340,0.0022,996,1502,1500,1500,2008,1000,1505,1505,1505,1364,2008,1112,1014,-3.1530,1.5515,-0.4502,-0.0491,0.0699,0.9950,-0.3912,0.4591,0.3957,-0.4636,0.5184,0.5140,0.1092,0.5184,0.5140,0.1092,0.3000,0.0600,0.0002,0,-0.3000,-100.0000,-0.0010,-0.3000,-100.0000,-0.0010,20.2189,49.5470,0.0200,0.0000
58.2525,6.2386,-0.4470,4.8066,20.8482,0.0000,0.0000,0.0000,0.0000,-0.4264,-0.0337,0.0020,996,1502,1500,1500,2008,1000,1505,1505,1505,1364,2008,1112,1014,-3.7437,1.2352,-0.3559,-0.0524,0.0674,0.9883,-0.3907,0.4581,0.3947,-0.4620,0.5184,0.5140,0.1092,0.5184,0.5140,0.1092,0.3000,0.0600,0.0002,0,-0.3000,-100.0000,-0.0010,-0.3000,-100.0000,-0.0010,20.2582,49.5850,0.0200,0.0000
58.1787,6.2466,-0.4433,4.8895,20.9302,0.0000,0.0600,0.3200,0.0000,-0.4255,-0.0329,0.0038,997,1503,1500,1500,2008,1000,1505,1505,1505,1364,2008,1112,1014,-4.1848,0.7689,-0.3067,-0.0487,0.0661,0.9964,-0.3889,0.4547,0.3964,-0.4622,0.5184,0.5140,0.1092,0.5184,0.5140,0.1092,0.3000,0.0600,0.0002,0,-0.3000,-100.0000,-0.0010,-0.3000,-100.0000,-0.0010,20.2975,49.6231,0.0400,0.0100
58.1004,6.2509,-0.4436,4.8066,20.8482,0.0000,0.0000,0.0000,0.0000,-0.4246,-0.0327,0.0014,996,1502,1500,1500,2008,1000,1505,1505,1505,1364,2008,1112,1014,-4.6444,0.2398,-0.1583,-0.0488,0.0631,0.9996,-0.3906,0.4559,0.3933,-0.4587,0.5184,0.5140,0.1092,0.5184,0.5140,0.1092,0.3000,0.0600,0.0002,0,-0.3000,-100.0000,-0.0010,-0.3000,-100.0000,-0.0010,20.3368,49.6612,0.0200,0.0000
58.0156,6.2512,-0.4482,4.8066,20.8482,0.0000,0.0000,0.0000,0.0000,-0.4232,-0.0320,0.0011,996,1502,1500,1500,2008,1000,1505,1505,1505,1363,2008,1112,1014,-5.2107,-0.2925,-0.0504,-0.0524,0.0592,1.0015,-0.3901,0.4542,0.3922,-0.4563,0.5178,0.5140,0.1092,0.5178,0.5140,0.1092,0.3000,0.0600,0.0002,0,-0.3000,-100.0000,-0.0010,-0.3000,-100.0000,-0.0010,20.3761,49.6993,0.0200,0.0000
57.9239,6.2477,-0.4566,4.8066,20.8482,0.0000,0.0000,0.0000,0.0000,-0.4220,-0.0316,0.0008,996,1502,1500,1500,2008,1000,1505,1505,1505,1363,2008,1112,1014,-5.8923,-0.7056,0.0482,-0.0490,0.0555,1.0000,-0.3897,0.4528,0.3912,-0.4543,0.5178,0.5140,0.1092,0.5178,0.5140,0.1092,0.3000,0.0600,0.0002,0,-0.3000,-100.0000,-0.0010,-0.3000,-100.0000,-0.0010,20.4155,49.7374,0.0200,0.0000
57.8254,6.2413,-0.4673,4.8066,20.8482,0.0000,0.0000,0.0000,0.0000,-0.4212,-0.0312,0.0005,996,1502,1500,1500,2008,1000,1505,1505,1505,1364,2008,1112,1014,-6.4661,-1.0826,0.1461,-0.0480,0.0569,0.9958,-0.3896,0.4519,0.3905,-0.4529,0.5184,0.5140,0.1092,0.5184,0.5140,0.1092,0.3000,0.0600,0.0002,0,-0.3000,-100.0000,-0.0010,-0.3000,-100.0000,-0.0010,20.4548,49.7755,0.0200,0.0000
57.7202,6.2328,-0.4808,4.9724,20.8482,0.0000,0.0000,0.0000,0.0000,-0.4200,-0.0309,0.0006,996,1502,1500,1500,2008,1000,1505,1505,1505,1364,2008,1112,1014,-7.0992,-1.2586,0.1043,-0.0447,0.0606,0.9943,-0.3884,0.4503,0.3896,-0.4515,0.5184,0.5140,0.1092,0.5184,0.5140,0.1092,0.3000,0.0600,0.0002,0,-0.3000,-100.0000,-0.0010,-0.3000,-100.0000,-0.0010,20.4941,49.8135,0.0200,0.0000
57.6088,6.2239,-0.4953,4.8895,20.8482,0.0000,0.0600,0.3200,0.0000,-0.4185,-0.0305,0.0026,997,1503,1500,1500,2008,1000,1505,1505,1505,1363,2008,1112,1014,-7.6306,-1.3176,0.0855,-0.0462,0.0615,0.9951,-0.3854,0.4463,0.3906,-0.4516,0.5178,0.5140,0.1092,0.5178,0.5140,0.1092,0.3000,0.0600,0.0002,0,-0.3000,-100.0000,-0.0010,-0.3000,-100.0000,-0.0010,20.5335,49.8516,0.0400,0.0100
57.4913,6.2159,-0.5098,4.8066,20.8482,0.0000,0.0000,0.0000,0.0000,-0.4175,-0.0309,0.0010,996,1502,1500,1500,2008,1000,1505,1505,1505,1364,2008,1112,1014,-8.2651,-1.1886,-0.0128,-0.0428,0.0620,0.9968,-0.3856,0.4475,0.3876,-0.4494,0.5184,0.5140,0.1092,0.5184,0.5140,0.1092,0.3000,0.0600,0.0002,0,-0.3000,-100.0000,-0.0010,-0.3000,-100.0000,-0.0010,20.5728,49.8896,0.0200,0.0000
57.3672,6.2093,-0.5237,4.8066,20.8482,0.0000,0.0000,0.0000,0.0000,-0.4162,-0.0311,0.0013,996,1502,1500,1500,2008,1000,1505,1505,1505,1364,2008,1112,1014,-8.8387,-1.0294,-0.1239,-0.0455,0.0551,0.9954,-0.3838,0.4460,0.3865,-0.4486,0.5184,0.5140,0.1092,0.5184,0.5140,0.1092,0.3000,0.0600,0.0002,0,-0.3000,-100.0000,-0.0010,-0.3000,-100.0000,-0.0010,20.6121,49.9276,0.0200,0.0000
57.2377,6.2045,-0.5365,4.8066,20.7661,0.0000,0.0000,0.0000,0.0000,-0.4146,-0.0312,0.0014,996,1502,1500,1500,2008,1000,1505,1505,1505,1363,2008,1112,1014,-9.4085,-0.8450,-0.1543,-0.0418,0.0506,0.9987,-0.3820,0.4444,0.3848,-0.4472,0.5178,0.5140,0.1092,0.5178,0.5140,0.1092,0.3000,0.0600,0.0002,0,-0.3000,-100.0000,-0.0010,-0.3000,-100.0000,-0.0010,20.6515,49.9655,0.0200,0.0000
