roll_imu,pitch_imu,yaw_imu,alpha,beta,roll_des,pitch_des,yaw_des,throttle_des,roll_pid,pitch_pid,yaw_pid,radio_ch1,radio_ch2,radio_ch3,radio_ch4,radio_ch5,radio_ch6,radio_ch7,radio_ch8,radio_ch9,radio_ch10,radio_ch11,radio_ch12,radio_ch13,GyroX,GyroY,GyroZ,AccX,AccY,AccZ,s1_command,s2_command,s3_command,s4_command,kp_roll,ki_roll,kd_roll,kp_pitch,ki_pitch,kd_pitch,kp_yaw,ki_yaw,kd_yaw,failsafeTriggered,kp_alphaRoll,ki_alphaRoll,kd_alphaRoll,kp_betaPitch,ki_betaPitch,kd_betaPitch,ripIMU_roll,ripIMU_pitch,ripRoll_des,ripPitch_des
0.0000,0.0000,0.0000,1.2431,5.5404,0.0000,0.0000,0.0000,0.0000,0.0000,0.0000,0.0000,1000,1500,1500,1500,2000,1000,1000,1000,1500,1500,1500,1500,1500,0.0000,0.0000,0.0000,0.0000,0.0000,0.0000,0.0000,0.0000,0.0000,0.0000,0.2204,0.0300,0.0438,0.2204,0.0300,0.0438,0.3000,0.0600,0.0002,0,-0.3000,-100.0000,-0.0010,-0.3000,-100.0000,-0.0010,0.0000,0.0000,0.0000,0.0000
-24.6799,44.3500,-10.0345,0.0829,0.0821,-7.8600,-8.0400,-43.2000,0.0000,0.0446,-0.1154,-0.1298,973,1464,1461,1460,1000,1000,1505,1000,1000,1505,1502,1500,1505,-0.1736,-0.0516,0.0432,-0.0152,-0.0066,0.4533,0.0302,0.2006,-0.2899,0.0590,0.2204,0.0300,0.0438,0.2204,0.0300,0.0438,0.3000,0.0600,0.0002,0,-2.2635,-351.4000,-0.0060,-2.2635,-351.4000,-0.0060,14.2748,48.4357,-1.3100,-1.3400
-24.3634,43.9754,-9.7865,-0.0000,0.0821,-2.3400,-2.3400,-12.8000,0.0000,0.0563,-0.1020,-0.0399,971,1461,1461,1460,1000,1000,1505,1000,1000,1505,1502,1500,1505,-0.5388,-0.0962,0.1275,-0.0309,-0.0132,0.9841,0.1184,0.0856,-0.1982,-0.0059,0.2204,0.0300,0.0438,0.2204,0.0300,0.0438,0.3000,0.0600,0.0002,0,-2.2635,-351.4000,-0.0060,-2.2635,-351.4000,-0.0060,14.5966,48.9180,-0.3900,-0.3900
-24.3403,43.9452,-9.7652,0.0829,0.1642,-0.6000,-0.7800,-4.1600,0.0000,0.0600,-0.0985,-0.0141,991,1490,1487,1487,1000,1000,1505,1000,1000,1505,1502,1500,1505,-0.5083,-0.1654,0.1420,-0.0347,-0.0113,1.0006,0.1444,0.0526,-0.1726,-0.0244,0.2204,0.0300,0.0438,0.2204,0.0300,0.0438,0.3000,0.0600,0.0002,0,-2.2635,-351.4000,-0.0060,-2.2635,-351.4000,-0.0060,14.6368,48.9562,-0.1000,-0.1300
-24.3142,43.9145,-9.7428,0.0829,0.0821,0.0000,-0.1800,-0.9600,0.0000,0.0612,-0.0971,-0.0048,996,1500,1497,1497,1000,1000,1505,1000,1000,1505,1502,1500,1505,-0.2386,-0.1528,0.2389,-0.0335,-0.0154,1.0062,0.1535,0.0407,-0.1631,-0.0312,0.2204,0.0300,0.0438,0.2204,0.0300,0.0438,0.3000,0.0600,0.0002,0,-2.2635,-351.4000,-0.0060,-2.2635,-351.4000,-0.0060,14.6778,48.9942,0.0000,-0.0300
-24.2865,43.8843,-9.7210,0.0829,0.0821,0.1200,0.0000,0.0000,0.0000,0.0613,-0.0967,-0.0015,996,1502,1500,1500,1000,1000,1505,1000,1000,1505,1502,1500,1505,-0.0296,-0.0862,0.1081,-0.0329,-0.0154,1.0016,0.1565,0.0369,-0.1595,-0.0339,0.2204,0.0300,0.0438,0.2204,0.0300,0.0438,0.3000,0.0600,0.0002,0,-2.2635,-351.4000,-0.0060,-2.2635,-351.4000,-0.0060,14.7188,49.0323,0.0200,0.0000
-24.2577,43.8542,-9.7003,-0.0829,-0.0821,0.1200,0.0000,0.0000,0.0000,0.0612,-0.0966,-0.0017,996,1502,1500,1500,1000,1000,1505,1000,1000,1505,1502,1500,1505,0.1211,-0.0324,0.1347,-0.0322,-0.0145,1.0023,0.1561,0.0371,-0.1595,-0.0338,0.2204,0.0300,0.0438,0.2204,0.0300,0.0438,0.3000,0.0600,0.0002,0,-2.2635,-351.4000,-0.0060,-2.2635,-351.4000,-0.0060,14.7599,49.0704,0.0200,0.0000
-24.2274,43.8244,-9.6798,0.0829,0.0821,0.1200,0.0000,0.0000,0.0000,0.0610,-0.0966,-0.0014,996,1502,1500,1500,1000,1000,1505,1000,1000,1505,1502,1500,1505,0.2841,-0.0435,0.0755,-0.0324,-0.0168,1.0037,0.1562,0.0369,-0.1590,-0.0341,0.2204,0.0300,0.0438,0.2204,0.0300,0.0438,0.3000,0.0600,0.0002,0,-2.2635,-351.4000,-0.0060,-2.2635,-351.4000,-0.0060,14.8010,49.1085,0.0200,0.0000
-24.1960,43.7946,-9.6608,-0.0829,0.0000,0.2400,0.0600,0.3200,0.0000,0.0611,-0.0964,0.0007,997,1503,1500,1500,1000,1000,1505,1000,1000,1505,1502,1500,1505,0.5149,0.0527,-0.0060,-0.0314,-0.0119,1.0068,0.1583,0.0346,-0.1568,-0.0360,0.2204,0.0300,0.0438,0.2204,0.0300,0.0438,0.3000,0.0600,0.0002,0,-2.2635,-351.4000,-0.0060,-2.2635,-351.4000,-0.0060,14.8420,49.1465,0.0400,0.0100
-24.1638,43.7649,-9.6428,-0.0000,0.0821,0.1200,0.0000,0.0000,0.0000,0.0608,-0.0964,-0.0011,996,1502,1500,1500,1000,1000,1505,1000,1000,1505,1502,1500,1505,0.5744,-0.0303,-0.0385,-0.0331,-0.0115,0.9989,0.1561,0.0368,-0.1583,-0.0346,0.2204,0.0300,0.0438,0.2204,0.0300,0.0438,0.3000,0.0600,0.0002,0,-2.2635,-351.4000,-0.0060,-2.2635,-351.4000,-0.0060,14.8831,49.1846,0.0200,0.0000
-24.1308,43.7345,-9.6243,0.0829,0.0821,0.1200,0.0000,0.0000,0.0000,0.0607,-0.0964,-0.0012,996,1502,1500,1500,1000,1000,1505,1000,1000,1505,1502,1500,1505,0.4907,-0.0443,-0.0318,-0.0326,-0.0108,1.0029,0.1559,0.0368,-0.1583,-0.0345,0.2204,0.0300,0.0438,0.2204,0.0300,0.0438,0.3000,0.0600,0.0002,0,-2.2635,-351.4000,-0.0060,-2.2635,-351.4000,-0.0060,14.9243,49.2226,0.0200,0.0000
-24.0994,43.7040,-9.6052,0.0829,0.1642,0.1200,0.0000,0.0000,0.0000,0.0607,-0.0963,-0.0010,996,1502,1500,1500,1000,1000,1505,1000,1000,1505,1502,1500,1505,0.3332,-0.1161,-0.0517,-0.0322,-0.0062,1.0014,0.1560,0.0366,-0.1581,-0.0345,0.2204,0.0300,0.0438,0.2204,0.0300,0.0438,0.3000,0.0600,0.0002,0,-2.2635,-351.4000,-0.0060,-2.2635,-351.4000,-0.0060,14.9654,49.2606,0.0200,0.0000
-24.0696,43.6726,-9.5861,0.1657,0.0821,0.1200,0.0000,0.0000,0.0000,0.0607,-0.0962,-0.0010,996,1502,1500,1500,1000,1000,1505,1000,1000,1505,1502,1500,1505,0.1469,-0.1205,-0.0893,-0.0320,-0.0054,1.0009,0.1560,0.0364,-0.1579,-0.0345,0.2204,0.0300,0.0438,0.2204,0.0300,0.0438,0.3000,0.0600,0.0002,0,-2.2635,-351.4000,-0.0060,-2.2635,-351.4000,-0.0060,15.0065,49.2986,0.0200,0.0000
-24.0407,43.6410,-9.5664,0.0829,0.0000,0.1200,0.0000,0.0000,0.0000,0.0608,-0.0961,-0.0013,996,1502,1500,1500,1000,1000,1505,1000,1000,1505,1502,1500,1505,-0.0257,-0.2147,0.0409,-0.0326,-0.0074,1.0000,0.1555,0.0367,-0.1582,-0.0340,0.2204,0.0300,0.0438,0.2204,0.0300,0.0438,0.3000,0.0600,0.0002,0,-2.2635,-351.4000,-0.0060,-2.2635,-351.4000,-0.0060,15.0477,49.3367,0.0200,0.0000
-24.0132,43.6092,-9.5453,0.1657,0.0821,0.2400,0.0600,0.3200,0.0000,0.0610,-0.0959,0.0002,997,1503,1500,1500,1000,1000,1505,1000,1000,1505,1502,1500,1505,-0.1822,-0.2146,0.1669,-0.0323,-0.0086,1.0054,0.1571,0.0347,-0.1567,-0.0351,0.2204,0.0300,0.0438,0.2204,0.0300,0.0438,0.3000,0.0600,0.0002,0,-2.2635,-351.4000,-0.0060,-2.2635,-351.4000,-0.0060,15.0889,49.3747,0.0400,0.0100
-23.9855,43.5782,-9.5227,0.0829,0.0821,0.1200,0.0000,0.0000,0.0000,0.0607,-0.0960,-0.0021,996,1502,1500,1500,1000,1000,1505,1000,1000,1505,1502,1500,1505,-0.1679,-0.1440,0.2887,-0.0306,-0.0124,1.0043,0.1545,0.0374,-0.1588,-0.0331,0.2204,0.0300,0.0438,0.2204,0.0300,0.0438,0.3000,0.0600,0.0002,0,-2.2635,-351.4000,-0.0060,-2.2635,-351.4000,-0.0060,15.1300,49.4126,0.0200,0.0000
-23.9582,43.5478,-9.4999,0.0829,0.0821,0.1200,0.0000,0.0000,0.0000,0.0607,-0.0959,-0.0019,996,1502,1500,1500,1000,1000,1505,1000,1000,1505,1502,1500,1505,-0.2949,-0.1184,0.2412,-0.0313,-0.0114,1.0054,0.1547,0.0372,-0.1586,-0.0333,0.2204,0.0300,0.0438,0.2204,0.0300,0.0438,0.3000,0.0600,0.0002,0,-2.2635,-351.4000,-0.0060,-2.2635,-351.4000,-0.0060,15.1713,49.4506,0.0200,0.0000
-23.9316,43.5178,-9.4772,0.0829,0.0821,0.1200,0.0000,0.0000,0.0000,0.0606,-0.0958,-0.0020,996,1502,1500,1500,1000,1000,1505,1000,1000,1505,1502,1500,1505,-0.2783,-0.1724,0.2668,-0.0319,-0.0105,1.0083,0.1545,0.0372,-0.1585,-0.0332,0.2204,0.0300,0.0438,0.2204,0.0300,0.0438,0.3000,0.0600,0.0002,0,-2.2635,-351.4000,-0.0060,-2.2635,-351.4000,-0.0060,15.2125,49.4886,0.0200,0.0000
-23.9042,43.4876,-9.4549,0.0829,0.0000,0.1200,0.0000,0.0000,0.0000,0.0605,-0.0958,-0.0019,996,1502,1500,1500,1000,1000,1505,1000,1000,1505,1502,1500,1505,-0.1517,-0.0772,0.2123,-0.0293,-0.0138,1.0021,0.1545,0.0371,-0.1582,-0.0334,0.2204,0.0300,0.0438,0.2204,0.0300,0.0438,0.3000,0.0600,0.0002,0,-2.2635,-351.4000,-0.0060,-2.2635,-351.4000,-0.0060,15.2537,49.5266,0.0200,0.0000
-23.8765,43.4576,-9.4345,0.0829,0.0821,0.1200,0.0000,0.0000,0.0000,0.0603,-0.0958,-0.0014,996,1502,1500,1500,1000,1000,1505,1000,1000,1505,1502,1500,1505,0.0960,-0.0009,0.0491,-0.0323,-0.0185,0.9999,0.1547,0.0368,-0.1575,-0.0340,0.2204,0.0300,0.0438,0.2204,0.0300,0.0438,0.3000,0.0600,0.0002,0,-2.2635,-351.4000,-0.0060,-2.2635,-351.4000,-0.0060,15.2949,49.5645,0.0200,0.0000
-23.8482,43.4275,-9.4168,0.0829,0.0821,0.2400,0.0600,0.0000,0.0000,0.0605,-0.0956,-0.0011,997,1503,1500,1500,1000,1000,1505,1000,1000,1505,1502,1500,1505,0.3132,0.0167,-0.0650,-0.0349,-0.0164,1.0015,0.1550,0.0362,-0.1571,-0.0341,0.2204,0.0300,0.0438,0.2204,0.0300,0.0438,0.3000,0.0600,0.0002,0,-2.2635,-351.4000,-0.0060,-2.2635,-351.4000,-0.0060,15.3361,49.6024,0.0400,0.0100
-23.8176,43.3968,-9.3995,0.0829,0.0821,0.1200,0.0000,0.0000,0.0000,0.0600,-0.0957,-0.0011,996,1502,1500,1500,1000,1000,1505,1000,1000,1505,1502,1500,1505,0.5363,0.0105,-0.0316,-0.0318,-0.0164,1.0045,0.1545,0.0368,-0.1568,-0.0345,0.2204,0.0300,0.0438,0.2204,0.0300,0.0438,0.3000,0.0600,0.0002,0,-2.2635,-351.4000,-0.0060,-2.2635,-351.4000,-0.0060,15.3774,49.6403,0.0200,0.0000
-23.7849,43.3665,-9.3818,0.0829,0.0821,0.1200,0.0000,0.0000,0.0000,0.0599,-0.0955,-0.0010,996,1502,1500,1500,1000,1000,1505,1000,1000,1505,1502,1500,1505,0.6997,-0.1188,-0.0708,-0.0337,-0.0113,1.0067,0.1544,0.0367,-0.1564,-0.0346,0.2204,0.0300,0.0438,0.2204,0.0300,0.0438,0.3000,0.0600,0.0002,0,-2.2635,-351.4000,-0.0060,-2.2635,-351.4000,-0.0060,15.4187,49.6782,0.0200,0.0000
-23.7508,43.3353,-9.3637,0.0829,0.0821,0.1200,0.0000,0.0000,0.0000,0.0598,-0.0955,-0.0012,996,1502,1500,1500,1000,1000,1505,1000,1000,1505,1502,1500,1505,0.6792,-0.0696,-0.0314,-0.0321,-0.0099,1.0037,0.1541,0.0368,-0.1565,-0.0345,0.2204,0.0300,0.0438,0.2204,0.0300,0.0438,0.3000,0.0600,0.0002,0,-2.2635,-351.4000,-0.0060,-2.2635,-351.4000,-0.0060,15.4600,49.7161,0.0200,0.0000
-23.7185,43.3040,-9.3451,-0.0000,0.0821,0.1200,0.0000,0.0000,0.0000,0.0599,-0.0954,-0.0011,996,1502,1500,1500,1000,1000,1505,1000,1000,1505,1502,1500,1505,0.2896,-0.0732,-0.0583,-0.0350,-0.0038,1.0032,0.1543,0.0366,-0.1564,-0.0344,0.2204,0.0300,0.0438,0.2204,0.0300,0.0438,0.3000,0.0600,0.0002,0,-2.2635,-351.4000,-0.0060,-2.2635,-351.4000,-0.0060,15.5013,49.7540,0.0200,0.0000
-23.6889,43.2733,-9.3255,-0.0000,0.0821,0.1200,0.0000,0.0000,0.0000,0.0600,-0.0953,-0.0014,996,1502,1500,1500,1000,1000,1505,1000,1000,1505,1502,1500,1505,0.0107,-0.1042,0.0335,-0.0339,-0.0058,1.0067,0.1539,0.0367,-0.1567,-0.0340,0.2204,0.0300,0.0438,0.2204,0.0300,0.0438,0.3000,0.0600,0.0002,0,-2.2635,-351.4000,-0.0060,-2.2635,-351.4000,-0.0060,15.5426,49.7920,0.0200,0.0000
-23.6633,43.2420,-9.3051,-0.0000,0.0821,0.2400,0.0600,0.3200,0.0000,0.0604,-0.0951,0.0005,997,1503,1500,1500,1000,1000,1505,1000,1000,1505,1502,1500,1505,-0.4764,-0.1079,0.0887,-0.0312,-0.0071,1.0046,0.1560,0.0343,-0.1551,-0.0352,0.2204,0.0300,0.0438,0.2204,0.0300,0.0438,0.3000,0.0600,0.0002,0,-2.2635,-351.4000,-0.0060,-2.2635,-351.4000,-0.0060,15.5839,49.8298,0.0400,0.0100
-23.6416,43.2108,-9.2843,-0.0829,-0.0821,0.1200,0.0000,0.0000,0.0000,0.0602,-0.0952,-0.0016,996,1502,1500,1500,1000,1000,1505,1000,1000,1505,1502,1500,1505,-0.7289,-0.1690,0.1088,-0.0328,-0.0098,1.0028,0.1537,0.0366,-0.1570,-0.0333,0.2204,0.0300,0.0438,0.2204,0.0300,0.0438,0.3000,0.0600,0.0002,0,-2.2635,-351.4000,-0.0060,-2.2635,-351.4000,-0.0060,15.6253,49.8677,0.0200,0.0000
-23.6202,43.1799,-9.2624,-0.0000,0.0821,0.1200,0.0000,0.0000,0.0000,0.0601,-0.0951,-0.0018,996,1502,1500,1500,1000,1000,1505,1000,1000,1505,1502,1500,1505,-0.7116,-0.1611,0.2178,-0.0348,-0.0118,1.0006,0.1534,0.0368,-0.1571,-0.0331,0.2204,0.0300,0.0438,0.2204,0.0300,0.0438,0.3000,0.0600,0.0002,0,-2.2635,-351.4000,-0.0060,-2.2635,-351.4000,-0.0060,15.6666,49.9055,0.0200,0.0000
-23.5965,43.1498,-9.2401,-0.0000,0.0000,0.1200,0.0000,0.0000,0.0000,0.0599,-0.0951,-0.0022,996,1502,1500,1500,1000,1000,1505,1000,1000,1505,1502,1500,1505,-0.3900,-0.0760,0.3058,-0.0317,-0.0154,1.0027,0.1529,0.0373,-0.1572,-0.0330,0.2204,0.0300,0.0438,0.2204,0.0300,0.0438,0.3000,0.0600,0.0002,0,-2.2635,-351.4000,-0.0060,-2.2635,-351.4000,-0.0060,15.7080,49.9434,0.0200,0.0000
-23.5696,43.1212,-9.2192,-0.0000,0.0000,0.1200,0.0000,0.0000,0.0000,0.0597,-0.0951,-0.0021,996,1502,1500,1500,1000,1000,1505,1000,1000,1505,1502,1500,1505,0.1256,0.0402,0.2721,-0.0350,-0.0157,1.0023,0.1526,0.0375,-0.1568,-0.0333,0.2204,0.0300,0.0438,0.2204,0.0300,0.0438,0.3000,0.0600,0.0002,0,-2.2635,-351.4000,-0.0060,-2.2635,-351.4000,-0.0060,15.7494,49.9812,0.0200,0.0000
-23.5376,43.0926,-9.1989,0.0829,0.2462,0.1200,0.0000,0.0000,0.0000,0.0594,-0.0951,-0.0017,996,1502,1500,1500,1000,1000,1505,1000,1000,1505,1502,1500,1505,0.6043,0.1811,0.1440,-0.0332,-0.0178,1.0044,0.1527,0.0374,-0.1561,-0.0340,0.2204,0.0300,0.0438,0.2204,0.0300,0.0438,0.3000,0.0600,0.0002,0,-2.2635,-351.4000,-0.0060,-2.2635,-351.4000,-0.0060,15.7908,50.0191,0.0200,0.0000
-23.5033,43.0640,-9.1813,-0.0000,0.1642,0.2400,0.0600,0.0000,0.0000,0.0594,-0.0948,-0.0010,997,1503,1500,1500,1000,1000,1505,1000,1000,1505,1502,1500,1505,0.9188,0.1469,-0.0781,-0.0322,-0.0144,1.0047,0.1533,0.0364,-0.1553,-0.0344,0.2204,0.0300,0.0438,0.2204,0.0300,0.0438,0.3000,0.0600,0.0002,0,-2.2635,-351.4000,-0.0060,-2.2635,-351.4000,-0.0060,15.8322,50.0569,0.0400,0.0100
-23.4681,43.0343,-9.1663,0.0829,0.0821,0.1200,0.0000,0.0000,0.0000,0.0590,-0.0949,-0.0006,996,1502,1500,1500,1000,1000,1505,1000,1000,1505,1502,1500,1505,1.0614,0.0985,-0.1936,-0.0320,-0.0130,1.0027,0.1533,0.0365,-0.1546,-0.0352,0.2204,0.0300,0.0438,0.2204,0.0300,0.0438,0.3000,0.0600,0.0002,0,-2.2635,-351.4000,-0.0060,-2.2635,-351.4000,-0.0060,15.8737,50.0947,0.0200,0.0000
-23.4344,43.0041,-9.1519,-0.0000,0.0821,0.1200,0.0000,0.0000,0.0000,0.0590,-0.0949,-0.0006,996,1502,1500,1500,1000,1000,1505,1000,1000,1505,1502,1500,1505,0.8355,0.1719,-0.1980,-0.0300,-0.0101,1.0005,0.1533,0.0364,-0.1545,-0.0352,0.2204,0.0300,0.0438,0.2204,0.0300,0.0438,0.3000,0.0600,0.0002,0,-2.2635,-351.4000,-0.0060,-2.2635,-351.4000,-0.0060,15.9151,50.1325,0.0200,0.0000
-23.4034,42.9740,-9.1381,-0.0000,0.0821,0.1200,0.0000,0.0000,0.0000,0.0591,-0.0947,-0.0003,996,1502,1500,1500,1000,1000,1505,1000,1000,1505,1502,1500,1505,0.5347,0.0671,-0.3214,-0.0335,-0.0086,1.0003,0.1536,0.0359,-0.1541,-0.0354,0.2204,0.0300,0.0438,0.2204,0.0300,0.0438,0.3000,0.0600,0.0002,0,-2.2635,-351.4000,-0.0060,-2.2635,-351.4000,-0.0060,15.9566,50.1703,0.0200,0.0000
-23.3758,42.9435,-9.1236,0.0829,0.0821,0.1200,0.0000,0.0000,0.0000,0.0592,-0.0947,-0.0006,996,1502,1500,1500,1000,1000,1505,1000,1000,1505,1502,1500,1505,0.1816,0.1302,-0.2096,-0.0329,-0.0020,1.0018,0.1533,0.0361,-0.1545,-0.0349,0.2204,0.0300,0.0438,0.2204,0.0300,0.0438,0.3000,0.0600,0.0002,0,-2.2635,-351.4000,-0.0060,-2.2635,-351.4000,-0.0060,15.9980,50.2081,0.0200,0.0000
-23.3507,42.9140,-9.1083,-0.0000,0.0821,0.1200,0.0000,0.0000,0.0000,0.0593,-0.0946,-0.0011,996,1502,1500,1500,1000,1000,1505,1000,1000,1505,1502,1500,1505,-0.0986,0.1079,-0.0417,-0.0298,-0.0038,1.0048,0.1528,0.0365,-0.1550,-0.0342,0.2204,0.0300,0.0438,0.2204,0.0300,0.0438,0.3000,0.0600,0.0002,0,-2.2635,-351.4000,-0.0060,-2.2635,-351.4000,-0.0060,16.0395,50.2459,0.0200,0.0000
-23.3254,42.8852,-9.0895,0.0829,0.0821,0.2400,0.0600,0.3200,0.0000,0.0595,-0.0945,0.0001,997,1503,1500,1500,1000,1000,1505,1000,1000,1505,1502,1500,1505,-0.2314,0.1498,0.1804,-0.0333,-0.0065,1.0035,0.1541,0.0348,-0.1538,-0.0351,0.2204,0.0300,0.0438,0.2204,0.0300,0.0438,0.3000,0.0600,0.0002,0,-2.2635,-351.4000,-0.0060,-2.2635,-351.4000,-0.0060,16.0811,50.2837,0.0400,0.0100
-23.2987,42.8573,-9.0682,-0.0000,0.0821,0.1200,0.0000,0.0000,0.0000,0.0592,-0.0945,-0.0024,996,1502,1500,1500,1000,1000,1505,1000,1000,1505,1502,1500,1505,-0.1772,0.0675,0.3897,-0.0315,-0.0097,1.0037,0.1513,0.0377,-0.1561,-0.0329,0.2204,0.0300,0.0438,0.2204,0.0300,0.0438,0.3000,0.0600,0.0002,0,-2.2635,-351.4000,-0.0060,-2.2635,-351.4000,-0.0060,16.1226,50.3215,0.0200,0.0000
-23.2703,42.8289,-9.0451,-0.0000,0.1642,0.1200,0.0000,0.0000,0.0000,0.0591,-0.0944,-0.0026,996,1502,1500,1500,1000,1000,1505,1000,1000,1505,1502,1500,1505,-0.1065,0.0529,0.4374,-0.0343,-0.0158,1.0049,0.1509,0.0379,-0.1561,-0.0327,0.2204,0.0300,0.0438,0.2204,0.0300,0.0438,0.3000,0.0600,0.0002,0,-2.2635,-351.4000,-0.0060,-2.2635,-351.4000,-0.0060,16.1642,50.3593,0.0200,0.0000
-23.2409,42.8005,-9.0222,-0.0829,0.1642,0.1200,0.0000,0.0000,0.0000,0.0590,-0.0944,-0.0021,996,1502,1500,1500,1000,1000,1505,1000,1000,1505,1502,1500,1505,-0.0033,0.0782,0.3050,-0.0331,-0.0137,0.9982,0.1513,0.0375,-0.1555,-0.0333,0.2204,0.0300,0.0438,0.2204,0.0300,0.0438,0.3000,0.0600,0.0002,0,-2.2635,-351.4000,-0.0060,-2.2635,-351.4000,-0.0060,16.2057,50.3971,0.0200,0.0000
-23.2108,42.7708,-9.0004,-0.0000,0.0821,0.1200,0.0000,0.0000,0.0000,0.0589,-0.0943,-0.0017,996,1502,1500,1500,1000,1000,1505,1000,1000,1505,1502,1500,1505,0.1549,0.0025,0.1708,-0.0321,-0.0151,1.0012,0.1514,0.0371,-0.1548,-0.0337,0.2204,0.0300,0.0438,0.2204,0.0300,0.0438,0.3000,0.0600,0.0002,0,-2.2635,-351.4000,-0.0060,-2.2635,-351.4000,-0.0060,16.2473,50.4349,0.0200,0.0000
-23.1819,42.7396,-8.9822,-0.0000,0.0821,0.1200,0.0000,0.0000,0.0000,0.0587,-0.0942,-0.0009,996,1502,1500,1500,1000,1000,1505,1000,1000,1505,1502,1500,1505,0.3067,0.0093,-0.1146,-0.0321,-0.0157,1.0000,0.1521,0.0363,-0.1538,-0.0346,0.2204,0.0300,0.0438,0.2204,0.0300,0.0438,0.3000,0.0600,0.0002,0,-2.2635,-351.4000,-0.0060,-2.2635,-351.4000,-0.0060,16.2889,50.4727,0.0200,0.0000
-23.1535,42.7080,-8.9665,-0.0000,0.1642,0.2400,0.0600,0.0000,0.0000,0.0589,-0.0940,-0.0007,997,1503,1500,1500,1000,1000,1505,1000,1000,1505,1502,1500,1505,0.3717,-0.0383,-0.1886,-0.0325,-0.0088,1.0012,0.1522,0.0358,-0.1536,-0.0344,0.2204,0.0300,0.0438,0.2204,0.0300,0.0438,0.3000,0.0600,0.0002,0,-2.2635,-351.4000,-0.0060,-2.2635,-351.4000,-0.0060,16.3305,50.5105,0.0400,0.0100
-23.1254,42.6769,-8.9519,0.0829,0.1642,0.1200,0.0000,0.0000,0.0000,0.0586,-0.0941,-0.0006,996,1502,1500,1500,1000,1000,1505,1000,1000,1505,1502,1500,1505,0.3214,0.0495,-0.2353,-0.0333,-0.0075,1.0031,0.1521,0.0361,-0.1533,-0.0349,0.2204,0.0300,0.0438,0.2204,0.0300,0.0438,0.3000,0.0600,0.0002,0,-2.2635,-351.4000,-0.0060,-2.2635,-351.4000,-0.0060,16.3721,50.5482,0.0200,0.0000
-23.0982,42.6465,-8.9369,-0.0829,0.0000,0.1200,0.0000,0.0000,0.0000,0.0586,-0.0941,-0.0007,996,1502,1500,1500,1000,1000,1505,1000,1000,1505,1502,1500,1505,0.1827,0.1345,-0.1798,-0.0298,-0.0035,1.0010,0.1519,0.0362,-0.1534,-0.0347,0.2204,0.0300,0.0438,0.2204,0.0300,0.0438,0.3000,0.0600,0.0002,0,-2.2635,-351.4000,-0.0060,-2.2635,-351.4000,-0.0060,16.4137,50.5858,0.0200,0.0000
-23.0718,42.6167,-8.9205,0.1657,0.0821,0.1200,0.0000,0.0000,0.0000,0.0586,-0.0940,-0.0013,996,1502,1500,1500,1000,1000,1505,1000,1000,1505,1502,1500,1505,0.0342,0.0665,-0.0009,-0.0354,-0.0054,1.0049,0.1513,0.0366,-0.1538,-0.0341,0.2204,0.0300,0.0438,0.2204,0.0300,0.0438,0.3000,0.0600,0.0002,0,-2.2635,-351.4000,-0.0060,-2.2635,-351.4000,-0.0060,16.4553,50.6234,0.0200,0.0000
-23.0453,42.5874,-8.9013,-0.0000,0.0000,0.1200,0.0000,0.0000,0.0000,0.0586,-0.0939,-0.0019,996,1502,1500,1500,1000,1000,1505,1000,1000,1505,1502,1500,1505,-0.1603,0.0867,0.1807,-0.0314,-0.0051,1.0045,0.1507,0.0371,-0.1544,-0.0334,0.2204,0.0300,0.0438,0.2204,0.0300,0.0438,0.3000,0.0600,0.0002,0,-2.2635,-351.4000,-0.0060,-2.2635,-351.4000,-0.0060,16.4970,50.6610,0.0200,0.0000
-23.0193,42.5587,-8.8800,0.0829,0.0821,0.1200,0.0000,0.0000,0.0000,0.0587,-0.0938,-0.0024,996,1502,1500,1500,1000,1000,1505,1000,1000,1505,1502,1500,1505,-0.3707,0.0731,0.3821,-0.0319,-0.0066,1.0033,0.1501,0.0375,-0.1549,-0.0328,0.2204,0.0300,0.0438,0.2204,0.0300,0.0438,0.3000,0.0600,0.0002,0,-2.2635,-351.4000,-0.0060,-2.2635,-351.4000,-0.0060,16.5386,50.6986,0.0200,0.0000
-22.9946,42.5298,-8.8580,-0.0000,0.0000,0.2400,0.0600,0.3200,0.0000,0.0589,-0.0936,-0.0001,997,1503,1500,1500,1000,1000,1505,1000,1000,1505,1502,1500,1505,-0.4704,0.0045,0.2610,-0.0319,-0.0096,1.0041,0.1524,0.0348,-0.1526,-0.0346,0.2204,0.0300,0.0438,0.2204,0.0300,0.0438,0.3000,0.0600,0.0002,0,-2.2635,-351.4000,-0.0060,-2.2635,-351.4000,-0.0060,16.5803,50.7361,0.0400,0.0100
-22.9710,42.5003,-8.8362,-0.0000,0.0821,0.1200,0.0000,0.0000,0.0000,0.0586,-0.0936,-0.0022,996,1502,1500,1500,1000,1000,1505,1000,1000,1505,1502,1500,1505,-0.4611,-0.0584,0.3188,-0.0326,-0.0160,1.0010,0.1500,0.0372,-0.1544,-0.0329,0.2204,0.0300,0.0438,0.2204,0.0300,0.0438,0.3000,0.0600,0.0002,0,-2.2635,-351.4000,-0.0060,-2.2635,-351.4000,-0.0060,16.6219,50.7737,0.0200,0.0000
-22.9469,42.4704,-8.8148,0.0829,0.0821,0.1200,0.0000,0.0000,0.0000,0.0585,-0.0936,-0.0017,996,1502,1500,1500,1000,1000,1505,1000,1000,1505,1502,1500,1505,-0.4681,0.0269,0.1711,-0.0323,-0.0155,1.0010,0.1504,0.0368,-0.1539,-0.0334,0.2204,0.0300,0.0438,0.2204,0.0300,0.0438,0.3000,0.0600,0.0002,0,-2.2635,-351.4000,-0.0060,-2.2635,-351.4000,-0.0060,16.6636,50.8113,0.0200,0.0000
-22.9234,42.4401,-8.7955,0.0829,0.2462,0.1200,0.0000,0.0000,0.0000,0.0584,-0.0935,-0.0014,996,1502,1500,1500,1000,1000,1505,1000,1000,1505,1502,1500,1505,-0.2365,-0.0015,0.0768,-0.0370,-0.0130,1.0057,0.1505,0.0366,-0.1534,-0.0337,0.2204,0.0300,0.0438,0.2204,0.0300,0.0438,0.3000,0.0600,0.0002,0,-2.2635,-351.4000,-0.0060,-2.2635,-351.4000,-0.0060,16.7053,50.8489,0.0200,0.0000
-22.8984,42.4091,-8.7779,-0.0000,0.1642,0.1200,0.0000,0.0000,0.0000,0.0582,-0.0935,-0.0011,996,1502,1500,1500,1000,1000,1505,1000,1000,1505,1502,1500,1505,-0.0143,0.0572,-0.0401,-0.0334,-0.0120,1.0038,0.1506,0.0364,-0.1528,-0.0342,0.2204,0.0300,0.0438,0.2204,0.0300,0.0438,0.3000,0.0600,0.0002,0,-2.2635,-351.4000,-0.0060,-2.2635,-351.4000,-0.0060,16.7471,50.8865,0.0200,0.0000
-22.8719,42.3783,-8.7611,0.0829,0.0821,0.1200,0.0000,0.0000,0.0000,0.0581,-0.0934,-0.0011,996,1502,1500,1500,1000,1000,1505,1000,1000,1505,1502,1500,1505,0.2187,-0.0457,-0.0770,-0.0330,-0.0129,1.0016,0.1504,0.0364,-0.1525,-0.0342,0.2204,0.0300,0.0438,0.2204,0.0300,0.0438,0.3000,0.0600,0.0002,0,-2.2635,-351.4000,-0.0060,-2.2635,-351.4000,-0.0060,16.7888,50.9241,0.0200,0.0000
-22.8432,42.3467,-8.7443,0.0829,0.0821,0.2400,0.0600,0.3200,0.0000,0.0582,-0.0932,0.0010,997,1503,1500,1500,1000,1000,1505,1000,1000,1505,1502,1500,1505,0.3193,-0.0228,-0.1003,-0.0346,-0.0129,1.0028,0.1524,0.0340,-0.1504,-0.0360,0.2204,0.0300,0.0438,0.2204,0.0300,0.0438,0.3000,0.0600,0.0002,0,-2.2635,-351.4000,-0.0060,-2.2635,-351.4000,-0.0060,16.8306,50.9617,0.0400,0.0100
-22.8131,42.3154,-8.7270,0.0829,0.0821,0.1200,0.0000,0.0000,0.0000,0.0578,-0.0933,-0.0012,996,1502,1500,1500,1000,1000,1505,1000,1000,1505,1502,1500,1505,0.4622,0.0105,-0.0033,-0.0328,-0.0102,1.0041,0.1499,0.0366,-0.1523,-0.0342,0.2204,0.0300,0.0438,0.2204,0.0300,0.0438,0.3000,0.0600,0.0002,0,-2.2635,-351.4000,-0.0060,-2.2635,-351.4000,-0.0060,16.8724,50.9992,0.0200,0.0000
-22.7823,42.2852,-8.7099,0.0829,0.0821,0.1200,0.0000,0.0000,0.0000,0.0578,-0.0932,-0.0013,996,1502,1500,1500,1000,1000,1505,1000,1000,1505,1502,1500,1505,0.4414,0.0213,0.0156,-0.0324,-0.0092,1.0044,0.1497,0.0367,-0.1523,-0.0341,0.2204,0.0300,0.0438,0.2204,0.0300,0.0438,0.3000,0.0600,0.0002,0,-2.2635,-351.4000,-0.0060,-2.2635,-351.4000,-0.0060,16.9142,51.0368,0.0200,0.0000
-22.7506,42.2550,-8.6911,0.0829,0.0821,0.1200,0.0000,0.0000,0.0000,0.0578,-0.0931,-0.0015,996,1502,1500,1500,1000,1000,1505,1000,1000,1505,1502,1500,1505,0.3171,-0.0005,0.1065,-0.0319,-0.0064,1.0035,0.1494,0.0369,-0.1524,-0.0338,0.2204,0.0300,0.0438,0.2204,0.0300,0.0438,0.3000,0.0600,0.0002,0,-2.2635,-351.4000,-0.0060,-2.2635,-351.4000,-0.0060,16.9560,51.0744,0.0200,0.0000
-22.7215,42.2245,-8.6722,0.0829,0.1642,0.1200,0.0000,0.0000,0.0000,0.0578,-0.0931,-0.0016,996,1502,1500,1500,1000,1000,1505,1000,1000,1505,1502,1500,1505,0.0771,0.0703,0.1192,-0.0350,-0.0067,1.0078,0.1493,0.0369,-0.1525,-0.0337,0.2204,0.0300,0.0438,0.2204,0.0300,0.0438,0.3000,0.0600,0.0002,0,-2.2635,-351.4000,-0.0060,-2.2635,-351.4000,-0.0060,16.9978,51.1119,0.0200,0.0000
-22.6941,42.1949,-8.6533,0.0829,0.1642,0.1200,0.0000,0.0000,0.0000,0.0578,-0.0930,-0.0018,996,1502,1500,1500,1000,1000,1505,1000,1000,1505,1502,1500,1505,-0.0928,0.1133,0.1788,-0.0341,-0.0072,1.0069,0.1491,0.0370,-0.1526,-0.0335,0.2204,0.0300,0.0438,0.2204,0.0300,0.0438,0.3000,0.0600,0.0002,0,-2.2635,-351.4000,-0.0060,-2.2635,-351.4000,-0.0060,17.0396,51.1495,0.0200,0.0000
-22.6686,42.1648,-8.6334,0.0829,0.0821,0.2400,0.0600,0.3200,0.0000,0.0581,-0.0928,0.0002,997,1503,1500,1500,1000,1000,1505,1000,1000,1505,1502,1500,1505,-0.3110,-0.0273,0.1700,-0.0344,-0.0074,1.0016,0.1511,0.0345,-0.1508,-0.0348,0.2204,0.0300,0.0438,0.2204,0.0300,0.0438,0.3000,0.0600,0.0002,0,-2.2635,-351.4000,-0.0060,-2.2635,-351.4000,-0.0060,17.0815,51.1870,0.0400,0.0100
-22.6450,42.1349,-8.6134,0.0829,0.1642,0.1200,0.0000,0.0000,0.0000,0.0579,-0.0929,-0.0016,996,1502,1500,1500,1000,1000,1505,1000,1000,1505,1502,1500,1505,-0.4890,0.0032,0.1483,-0.0347,-0.0115,1.0025,0.1491,0.0366,-0.1524,-0.0333,0.2204,0.0300,0.0438,0.2204,0.0300,0.0438,0.3000,0.0600,0.0002,0,-2.2635,-351.4000,-0.0060,-2.2635,-351.4000,-0.0060,17.1234,51.2245,0.0200,0.0000
-22.6224,42.1049,-8.5938,0.0829,0.1642,0.1200,0.0000,0.0000,0.0000,0.0578,-0.0928,-0.0016,996,1502,1500,1500,1000,1000,1505,1000,1000,1505,1502,1500,1505,-0.4394,0.0814,0.1241,-0.0314,-0.0123,1.0048,0.1491,0.0366,-0.1522,-0.0334,0.2204,0.0300,0.0438,0.2204,0.0300,0.0438,0.3000,0.0600,0.0002,0,-2.2635,-351.4000,-0.0060,-2.2635,-351.4000,-0.0060,17.1653,51.2621,0.0200,0.0000
-22.5999,42.0740,-8.5749,0.0829,0.1642,0.1200,0.0000,0.0000,0.0000,0.0577,-0.0927,-0.0016,996,1502,1500,1500,1000,1000,1505,1000,1000,1505,1502,1500,1505,-0.3886,-0.0364,0.1185,-0.0328,-0.0088,1.0016,0.1489,0.0366,-0.1521,-0.0334,0.2204,0.0300,0.0438,0.2204,0.0300,0.0438,0.3000,0.0600,0.0002,0,-2.2635,-351.4000,-0.0060,-2.2635,-351.4000,-0.0060,17.2072,51.2995,0.0200,0.0000
-22.5743,42.0427,-8.5551,-0.0829,0.1642,0.1200,0.0000,0.0000,0.0000,0.0575,-0.0926,-0.0018,996,1502,1500,1500,1000,1000,1505,1000,1000,1505,1502,1500,1505,-0.0553,-0.0678,0.1551,-0.0333,-0.0127,1.0044,0.1484,0.0368,-0.1519,-0.0333,0.2204,0.0300,0.0438,0.2204,0.0300,0.0438,0.3000,0.0600,0.0002,0,-2.2635,-351.4000,-0.0060,-2.2635,-351.4000,-0.0060,17.2491,51.3370,0.0200,0.0000
-22.5458,42.0117,-8.5347,-0.0000,0.0000,0.1200,0.0000,0.0000,0.0000,0.0574,-0.0926,-0.0021,996,1502,1500,1500,1000,1000,1505,1000,1000,1505,1502,1500,1505,0.1197,-0.0641,0.2508,-0.0327,-0.0126,1.0063,0.1479,0.0372,-0.1520,-0.0331,0.2204,0.0300,0.0438,0.2204,0.0300,0.0438,0.3000,0.0600,0.0002,0,-2.2635,-351.4000,-0.0060,-2.2635,-351.4000,-0.0060,17.2910,51.3745,0.0200,0.0000
-22.5153,41.9817,-8.5154,0.1657,0.1642,0.2400,0.0600,0.3200,0.0000,0.0574,-0.0924,0.0005,997,1503,1500,1500,1000,1000,1505,1000,1000,1505,1502,1500,1505,0.4654,0.0675,0.0546,-0.0301,-0.0142,1.0027,0.1504,0.0345,-0.1494,-0.0355,0.2204,0.0300,0.0438,0.2204,0.0300,0.0438,0.3000,0.0600,0.0002,0,-2.2635,-351.4000,-0.0060,-2.2635,-351.4000,-0.0060,17.3329,51.4119,0.0400,0.0100
-22.4837,41.9513,-8.4983,-0.0829,0.0000,0.1200,0.0000,0.0000,0.0000,0.0570,-0.0925,-0.0013,996,1502,1500,1500,1000,1000,1505,1000,1000,1505,1502,1500,1505,0.6618,0.1397,0.0026,-0.0324,-0.0129,1.0011,0.1483,0.0368,-0.1508,-0.0342,0.2204,0.0300,0.0438,0.2204,0.0300,0.0438,0.3000,0.0600,0.0002,0,-2.2635,-351.4000,-0.0060,-2.2635,-351.4000,-0.0060,17.3749,51.4494,0.0200,0.0000
-22.4511,41.9211,-8.4823,0.0829,0.2462,0.1200,0.0000,0.0000,0.0000,0.0569,-0.0924,-0.0010,996,1502,1500,1500,1000,1000,1505,1000,1000,1505,1502,1500,1505,0.7284,0.0733,-0.0832,-0.0340,-0.0124,1.0015,0.1483,0.0365,-0.1504,-0.0345,0.2204,0.0300,0.0438,0.2204,0.0300,0.0438,0.3000,0.0600,0.0002,0,-2.2635,-351.4000,-0.0060,-2.2635,-351.4000,-0.0060,17.4169,51.4869,0.0200,0.0000
-22.4193,41.8903,-8.4673,0.0829,0.1642,0.1200,0.0000,0.0000,0.0000,0.0569,-0.0924,-0.0008,996,1502,1500,1500,1000,1000,1505,1000,1000,1505,1502,1500,1505,0.6770,0.1416,-0.1446,-0.0306,-0.0107,1.0067,0.1485,0.0363,-0.1501,-0.0347,0.2204,0.0300,0.0438,0.2204,0.0300,0.0438,0.3000,0.0600,0.0002,0,-2.2635,-351.4000,-0.0060,-2.2635,-351.4000,-0.0060,17.4588,51.5244,0.0200,0.0000
-22.3890,41.8605,-8.4529,0.0829,0.0821,0.1200,0.0000,0.0000,0.0000,0.0569,-0.0924,-0.0007,996,1502,1500,1500,1000,1000,1505,1000,1000,1505,1502,1500,1505,0.4596,0.2179,-0.1795,-0.0359,-0.0050,1.0043,0.1486,0.0361,-0.1499,-0.0348,0.2204,0.0300,0.0438,0.2204,0.0300,0.0438,0.3000,0.0600,0.0002,0,-2.2635,-351.4000,-0.0060,-2.2635,-351.4000,-0.0060,17.5008,51.5618,0.0200,0.0000
-22.3619,41.8300,-8.4378,0.0829,0.1642,0.1200,0.0000,0.0000,0.0000,0.0570,-0.0922,-0.0010,996,1502,1500,1500,1000,1000,1505,1000,1000,1505,1502,1500,1505,0.0150,0.1122,-0.0755,-0.0334,-0.0051,1.0024,0.1483,0.0362,-0.1503,-0.0342,0.2204,0.0300,0.0438,0.2204,0.0300,0.0438,0.3000,0.0600,0.0002,0,-2.2635,-351.4000,-0.0060,-2.2635,-351.4000,-0.0060,17.5429,51.5993,0.0200,0.0000
-22.3385,41.8001,-8.4208,0.0829,0.2462,0.2400,0.0600,0.3200,0.0000,0.0575,-0.0920,0.0005,997,1503,1500,1500,1000,1000,1505,1000,1000,1505,1502,1500,1505,-0.4959,0.0849,0.0420,-0.0356,-0.0028,1.0003,0.1500,0.0340,-0.1490,-0.0351,0.2204,0.0300,0.0438,0.2204,0.0300,0.0438,0.3000,0.0600,0.0002,0,-2.2635,-351.4000,-0.0060,-2.2635,-351.4000,-0.0060,17.5849,51.6367,0.0400,0.0100
-22.3186,41.7702,-8.4025,0.0829,0.1642,0.1200,0.0000,0.0000,0.0000,0.0573,-0.0921,-0.0017,996,1502,1500,1500,1000,1000,1505,1000,1000,1505,1502,1500,1505,-0.7202,0.0880,0.1554,-0.0331,-0.0066,1.0022,0.1476,0.0366,-0.1511,-0.0331,0.2204,0.0300,0.0438,0.2204,0.0300,0.0438,0.3000,0.0600,0.0002,0,-2.2635,-351.4000,-0.0060,-2.2635,-351.4000,-0.0060,17.6269,51.6741,0.0200,0.0000
-22.2994,41.7402,-8.3816,0.0829,0.2462,0.1200,0.0000,0.0000,0.0000,0.0574,-0.0920,-0.0024,996,1502,1500,1500,1000,1000,1505,1000,1000,1505,1502,1500,1505,-1.0434,-0.0448,0.3756,-0.0316,-0.0066,1.0033,0.1469,0.0370,-0.1518,-0.0322,0.2204,0.0300,0.0438,0.2204,0.0300,0.0438,0.3000,0.0600,0.0002,0,-2.2635,-351.4000,-0.0060,-2.2635,-351.4000,-0.0060,17.6690,51.7115,0.0200,0.0000
-22.2813,41.7104,-8.3590,0.0829,0.1642,0.1200,0.0000,0.0000,0.0000,0.0573,-0.0919,-0.0025,996,1502,1500,1500,1000,1000,1505,1000,1000,1505,1502,1500,1505,-1.0818,0.0333,0.4154,-0.0329,-0.0098,1.0035,0.1467,0.0371,-0.1518,-0.0321,0.2204,0.0300,0.0438,0.2204,0.0300,0.0438,0.3000,0.0600,0.0002,0,-2.2635,-351.4000,-0.0060,-2.2635,-351.4000,-0.0060,17.7111,51.7488,0.0200,0.0000
-22.2628,41.6808,-8.3352,0.0829,0.1642,0.1200,0.0000,0.0000,0.0000,0.0573,-0.0918,-0.0029,996,1502,1500,1500,1000,1000,1505,1000,1000,1505,1502,1500,1505,-1.0703,-0.0667,0.5375,-0.0347,-0.0116,1.0029,0.1463,0.0374,-0.1520,-0.0317,0.2204,0.0300,0.0438,0.2204,0.0300,0.0438,0.3000,0.0600,0.0002,0,-2.2635,-351.4000,-0.0060,-2.2635,-351.4000,-0.0060,17.7531,51.7862,0.0200,0.0000
-22.2439,41.6505,-8.3122,0.0829,0.2462,0.1200,0.0000,0.0000,0.0000,0.0572,-0.0918,-0.0021,996,1502,1500,1500,1000,1000,1505,1000,1000,1505,1502,1500,1505,-0.9393,-0.0840,0.3040,-0.0336,-0.0156,1.0024,0.1468,0.0367,-0.1511,-0.0324,0.2204,0.0300,0.0438,0.2204,0.0300,0.0438,0.3000,0.0600,0.0002,0,-2.2635,-351.4000,-0.0060,-2.2635,-351.4000,-0.0060,17.7952,51.8236,0.0200,0.0000
-22.2238,41.6197,-8.2909,0.0829,0.1642,0.2400,0.0600,0.3200,0.0000,0.0573,-0.0916,-0.0000,997,1503,1500,1500,1000,1000,1505,1000,1000,1505,1502,1500,1505,-0.6380,-0.0376,0.2498,-0.0309,-0.0146,1.0023,0.1488,0.0343,-0.1489,-0.0342,0.2204,0.0300,0.0438,0.2204,0.0300,0.0438,0.3000,0.0600,0.0002,0,-2.2635,-351.4000,-0.0060,-2.2635,-351.4000,-0.0060,17.8374,51.8610,0.0400,0.0100
-22.2017,41.5883,-8.2714,0.0829,0.1642,0.1200,0.0000,0.0000,0.0000,0.0569,-0.0916,-0.0015,996,1502,1500,1500,1000,1000,1505,1000,1000,1505,1502,1500,1505,-0.3505,-0.0808,0.1054,-0.0311,-0.0138,1.0003,0.1470,0.0363,-0.1500,-0.0333,0.2204,0.0300,0.0438,0.2204,0.0300,0.0438,0.3000,0.0600,0.0002,0,-2.2635,-351.4000,-0.0060,-2.2635,-351.4000,-0.0060,17.8795,51.8984,0.0200,0.0000
-22.1779,41.5571,-8.2536,0.0829,0.2462,0.1200,0.0000,0.0000,0.0000,0.0567,-0.0916,-0.0012,996,1502,1500,1500,1000,1000,1505,1000,1000,1505,1502,1500,1505,-0.1129,-0.0600,-0.0230,-0.0339,-0.0122,1.0063,0.1471,0.0360,-0.1494,-0.0337,0.2204,0.0300,0.0438,0.2204,0.0300,0.0438,0.3000,0.0600,0.0002,0,-2.2635,-351.4000,-0.0060,-2.2635,-351.4000,-0.0060,17.9216,51.9357,0.0200,0.0000
-22.1525,41.5259,-8.2372,0.1657,0.3283,0.1200,0.0000,0.0000,0.0000,0.0566,-0.0916,-0.0011,996,1502,1500,1500,1000,1000,1505,1000,1000,1505,1502,1500,1505,0.0787,0.0673,-0.0656,-0.0348,-0.0099,1.0041,0.1470,0.0361,-0.1492,-0.0339,0.2204,0.0300,0.0438,0.2204,0.0300,0.0438,0.3000,0.0600,0.0002,0,-2.2635,-351.4000,-0.0060,-2.2635,-351.4000,-0.0060,17.9638,51.9731,0.0200,0.0000
-22.1257,41.4947,-8.2209,0.1657,0.2462,0.1200,0.0000,0.0000,0.0000,0.0565,-0.0915,-0.0009,996,1502,1500,1500,1000,1000,1505,1000,1000,1505,1502,1500,1505,0.1697,0.0387,-0.0937,-0.0351,-0.0093,1.0029,0.1470,0.0359,-0.1488,-0.0341,0.2204,0.0300,0.0438,0.2204,0.0300,0.0438,0.3000,0.0600,0.0002,0,-2.2635,-351.4000,-0.0060,-2.2635,-351.4000,-0.0060,18.0060,52.0104,0.0200,0.0000
-22.0994,41.4638,-8.2048,0.0829,0.0821,0.1200,0.0000,0.0000,0.0000,0.0565,-0.0914,-0.0013,996,1502,1500,1500,1000,1000,1505,1000,1000,1505,1502,1500,1505,-0.0180,0.1067,0.0050,-0.0350,-0.0069,1.0027,0.1466,0.0363,-0.1492,-0.0336,0.2204,0.0300,0.0438,0.2204,0.0300,0.0438,0.3000,0.0600,0.0002,0,-2.2635,-351.4000,-0.0060,-2.2635,-351.4000,-0.0060,18.0482,52.0477,0.0200,0.0000
-22.0737,41.4333,-8.1869,-0.0829,0.0000,0.2400,0.0600,0.3200,0.0000,0.0568,-0.0912,0.0003,997,1503,1500,1500,1000,1000,1505,1000,1000,1505,1502,1500,1505,-0.1878,-0.0166,0.1173,-0.0371,-0.0056,1.0075,0.1482,0.0341,-0.1477,-0.0347,0.2204,0.0300,0.0438,0.2204,0.0300,0.0438,0.3000,0.0600,0.0002,0,-2.2635,-351.4000,-0.0060,-2.2635,-351.4000,-0.0060,18.0904,52.0850,0.0400,0.0100
-22.0489,41.4031,-8.1671,0.1657,0.1642,0.1200,0.0000,0.0000,0.0000,0.0565,-0.0913,-0.0018,996,1502,1500,1500,1000,1000,1505,1000,1000,1505,1502,1500,1505,-0.4107,0.0047,0.1962,-0.0316,-0.0055,1.0023,0.1460,0.0365,-0.1496,-0.0329,0.2204,0.0300,0.0438,0.2204,0.0300,0.0438,0.3000,0.0600,0.0002,0,-2.2635,-351.4000,-0.0060,-2.2635,-351.4000,-0.0060,18.1326,52.1223,0.0200,0.0000
-22.0259,41.3725,-8.1471,-0.0000,0.0821,0.1200,0.0000,0.0000,0.0000,0.0565,-0.0912,-0.0018,996,1502,1500,1500,1000,1000,1505,1000,1000,1505,1502,1500,1505,-0.4731,0.0096,0.1882,-0.0322,-0.0078,1.0033,0.1459,0.0365,-0.1495,-0.0328,0.2204,0.0300,0.0438,0.2204,0.0300,0.0438,0.3000,0.0600,0.0002,0,-2.2635,-351.4000,-0.0060,-2.2635,-351.4000,-0.0060,18.1749,52.1596,0.0200,0.0000
-22.0042,41.3425,-8.1274,0.1657,0.2462,0.1200,0.0000,0.0000,0.0000,0.0565,-0.0911,-0.0019,996,1502,1500,1500,1000,1000,1505,1000,1000,1505,1502,1500,1505,-0.5853,0.0607,0.2292,-0.0323,-0.0131,0.9992,0.1457,0.0366,-0.1496,-0.0327,0.2204,0.0300,0.0438,0.2204,0.0300,0.0438,0.3000,0.0600,0.0002,0,-2.2635,-351.4000,-0.0060,-2.2635,-351.4000,-0.0060,18.2172,52.1969,0.0200,0.0000
-21.9823,41.3121,-8.1082,0.0829,0.2462,0.1200,0.0000,0.0000,0.0000,0.0564,-0.0911,-0.0018,996,1502,1500,1500,1000,1000,1505,1000,1000,1505,1502,1500,1505,-0.3837,0.0408,0.1798,-0.0348,-0.0157,1.0060,0.1456,0.0365,-0.1493,-0.0329,0.2204,0.0300,0.0438,0.2204,0.0300,0.0438,0.3000,0.0600,0.0002,0,-2.2635,-351.4000,-0.0060,-2.2635,-351.4000,-0.0060,18.2594,52.2342,0.0200,0.0000
-21.9587,41.2814,-8.0899,0.0829,0.1642,0.1200,0.0000,0.0000,0.0000,0.0562,-0.0910,-0.0015,996,1502,1500,1500,1000,1000,1505,1000,1000,1505,1502,1500,1505,-0.0706,0.0351,0.0646,-0.0348,-0.0179,1.0059,0.1457,0.0363,-0.1487,-0.0333,0.2204,0.0300,0.0438,0.2204,0.0300,0.0438,0.3000,0.0600,0.0002,0,-2.2635,-351.4000,-0.0060,-2.2635,-351.4000,-0.0060,18.3017,52.2714,0.0200,0.0000
-21.9321,41.2502,-8.0729,0.0829,0.2462,0.2400,0.0600,0.3200,0.0000,0.0563,-0.0908,0.0005,997,1503,1500,1500,1000,1000,1505,1000,1000,1505,1502,1500,1505,0.2653,0.0000,0.0603,-0.0355,-0.0198,1.0075,0.1475,0.0341,-0.1466,-0.0350,0.2204,0.0300,0.0438,0.2204,0.0300,0.0438,0.3000,0.0600,0.0002,0,-2.2635,-351.4000,-0.0060,-2.2635,-351.4000,-0.0060,18.3440,52.3087,0.0400,0.0100
-21.9026,41.2188,-8.0556,0.0829,0.1642,0.1200,0.0000,0.0000,0.0000,0.0558,-0.0908,-0.0013,996,1502,1500,1500,1000,1000,1505,1000,1000,1505,1502,1500,1505,0.5289,-0.0557,0.0196,-0.0347,-0.0141,1.0026,0.1453,0.0363,-0.1479,-0.0337,0.2204,0.0300,0.0438,0.2204,0.0300,0.0438,0.3000,0.0600,0.0002,0,-2.2635,-351.4000,-0.0060,-2.2635,-351.4000,-0.0060,18.3863,52.3458,0.0200,0.0000
-21.8710,41.1867,-8.0395,0.0829,0.3283,0.1200,0.0000,0.0000,0.0000,0.0557,-0.0908,-0.0009,996,1502,1500,1500,1000,1000,1505,1000,1000,1505,1502,1500,1505,0.7017,0.0649,-0.1237,-0.0335,-0.0100,1.0005,0.1456,0.0360,-0.1473,-0.0343,0.2204,0.0300,0.0438,0.2204,0.0300,0.0438,0.3000,0.0600,0.0002,0,-2.2635,-351.4000,-0.0060,-2.2635,-351.4000,-0.0060,18.4286,52.3830,0.0200,0.0000
-21.8378,41.1553,-8.0242,0.1657,0.3283,0.1200,0.0000,0.0000,0.0000,0.0555,-0.0907,-0.0009,996,1502,1500,1500,1000,1000,1505,1000,1000,1505,1502,1500,1505,0.8298,0.0673,-0.1187,-0.0328,-0.0063,1.0040,0.1453,0.0361,-0.1472,-0.0343,0.2204,0.0300,0.0438,0.2204,0.0300,0.0438,0.3000,0.0600,0.0002,0,-2.2635,-351.4000,-0.0060,-2.2635,-351.4000,-0.0060,18.4709,52.4202,0.0200,0.0000
-21.8056,41.1240,-8.0088,0.2486,0.3283,0.1200,0.0000,0.0000,0.0000,0.0556,-0.0907,-0.0010,996,1502,1500,1500,1000,1000,1505,1000,1000,1505,1502,1500,1505,0.6223,0.1003,-0.0799,-0.0319,-0.0058,1.0018,0.1452,0.0362,-0.1473,-0.0341,0.2204,0.0300,0.0438,0.2204,0.0300,0.0438,0.3000,0.0600,0.0002,0,-2.2635,-351.4000,-0.0060,-2.2635,-351.4000,-0.0060,18.5132,52.4573,0.0200,0.0000
-21.7756,41.0930,-7.9925,0.1657,0.1642,0.1200,0.0000,0.0000,0.0000,0.0557,-0.0906,-0.0013,996,1502,1500,1500,1000,1000,1505,1000,1000,1505,1502,1500,1505,0.2420,0.0224,0.0213,-0.0332,-0.0056,1.0016,0.1449,0.0362,-0.1475,-0.0336,0.2204,0.0300,0.0438,0.2204,0.0300,0.0438,0.3000,0.0600,0.0002,0,-2.2635,-351.4000,-0.0060,-2.2635,-351.4000,-0.0060,18.5556,52.4945,0.0200,0.0000
-21.7498,41.0615,-7.9754,0.0829,0.1642,0.2400,0.0600,0.0000,0.0000,0.0561,-0.0904,-0.0013,997,1503,1500,1500,1000,1000,1505,1000,1000,1505,1502,1500,1505,-0.2454,0.0255,-0.0185,-0.0339,-0.0064,1.0037,0.1452,0.0356,-0.1477,-0.0330,0.2204,0.0300,0.0438,0.2204,0.0300,0.0438,0.3000,0.0600,0.0002,0,-2.2635,-351.4000,-0.0060,-2.2635,-351.4000,-0.0060,18.5980,52.5316,0.0400,0.0100
-21.7287,41.0297,-7.9570,0.0829,0.2462,0.1200,0.0000,0.0000,0.0000,0.0560,-0.0904,-0.0017,996,1502,1500,1500,1000,1000,1505,1000,1000,1505,1502,1500,1505,-0.7639,-0.1142,0.1462,-0.0317,-0.0073,1.0063,0.1447,0.0361,-0.1481,-0.0327,0.2204,0.0300,0.0438,0.2204,0.0300,0.0438,0.3000,0.0600,0.0002,0,-2.2635,-351.4000,-0.0060,-2.2635,-351.4000,-0.0060,18.6404,52.5688,0.0200,0.0000
-21.7102,40.9979,-7.9368,0.0829,0.3283,0.1200,0.0000,0.0000,0.0000,0.0561,-0.0903,-0.0021,996,1502,1500,1500,1000,1000,1505,1000,1000,1505,1502,1500,1505,-1.0299,-0.1395,0.2636,-0.0343,-0.0081,1.0003,0.1443,0.0363,-0.1484,-0.0322,0.2204,0.0300,0.0438,0.2204,0.0300,0.0438,0.3000,0.0600,0.0002,0,-2.2635,-351.4000,-0.0060,-2.2635,-351.4000,-0.0060,18.6828,52.6060,0.0200,0.0000
-21.6925,40.9663,-7.9151,0.0829,0.2462,0.1200,0.0000,0.0000,0.0000,0.0560,-0.0902,-0.0025,996,1502,1500,1500,1000,1000,1505,1000,1000,1505,1502,1500,1505,-1.0424,-0.1628,0.3826,-0.0334,-0.0118,1.0029,0.1438,0.0367,-0.1487,-0.0317,0.2204,0.0300,0.0438,0.2204,0.0300,0.0438,0.3000,0.0600,0.0002,0,-2.2635,-351.4000,-0.0060,-2.2635,-351.4000,-0.0060,18.7253,52.6432,0.0200,0.0000
-21.6739,40.9348,-7.8931,0.0829,0.2462,0.1200,0.0000,0.0000,0.0000,0.0559,-0.0902,-0.0022,996,1502,1500,1500,1000,1000,1505,1000,1000,1505,1502,1500,1505,-0.9084,-0.0995,0.2996,-0.0333,-0.0156,1.0011,0.1439,0.0364,-0.1483,-0.0321,0.2204,0.0300,0.0438,0.2204,0.0300,0.0438,0.3000,0.0600,0.0002,0,-2.2635,-351.4000,-0.0060,-2.2635,-351.4000,-0.0060,18.7677,52.6804,0.0200,0.0000
-21.6548,40.9036,-7.8725,-0.0000,0.2462,0.1200,0.0000,0.0000,0.0000,0.0558,-0.0901,-0.0022,996,1502,1500,1500,1000,1000,1505,1000,1000,1505,1502,1500,1505,-0.7040,-0.0078,0.2985,-0.0356,-0.0150,1.0003,0.1438,0.0365,-0.1481,-0.0322,0.2204,0.0300,0.0438,0.2204,0.0300,0.0438,0.3000,0.0600,0.0002,0,-2.2635,-351.4000,-0.0060,-2.2635,-351.4000,-0.0060,18.8102,52.7175,0.0200,0.0000
-21.6334,40.8731,-7.8529,0.0829,0.3283,0.2400,0.0600,0.3200,0.0000,0.0559,-0.0900,0.0001,997,1503,1500,1500,1000,1000,1505,1000,1000,1505,1502,1500,1505,-0.4893,0.0217,0.1781,-0.0355,-0.0147,1.0036,0.1460,0.0340,-0.1458,-0.0341,0.2204,0.0300,0.0438,0.2204,0.0300,0.0438,0.3000,0.0600,0.0002,0,-2.2635,-351.4000,-0.0060,-2.2635,-351.4000,-0.0060,18.8527,52.7546,0.0400,0.0100
-21.6116,40.8412,-7.8344,0.0829,0.2462,0.1200,0.0000,0.0000,0.0000,0.0556,-0.0900,-0.0013,996,1502,1500,1500,1000,1000,1505,1000,1000,1505,1502,1500,1505,-0.4075,-0.0336,0.0117,-0.0359,-0.0159,1.0044,0.1443,0.0357,-0.1469,-0.0331,0.2204,0.0300,0.0438,0.2204,0.0300,0.0438,0.3000,0.0600,0.0002,0,-2.2635,-351.4000,-0.0060,-2.2635,-351.4000,-0.0060,18.8951,52.7918,0.0200,0.0000
-21.5903,40.8091,-7.8175,0.0829,0.2462,0.1200,0.0000,0.0000,0.0000,0.0555,-0.0899,-0.0011,996,1502,1500,1500,1000,1000,1505,1000,1000,1505,1502,1500,1505,-0.4504,-0.0254,-0.0602,-0.0338,-0.0111,1.0030,0.1444,0.0355,-0.1466,-0.0333,0.2204,0.0300,0.0438,0.2204,0.0300,0.0438,0.3000,0.0600,0.0002,0,-2.2635,-351.4000,-0.0060,-2.2635,-351.4000,-0.0060,18.9377,52.8289,0.0200,0.0000
-21.5703,40.7767,-7.8010,-0.0000,0.0821,0.1200,0.0000,0.0000,0.0000,0.0556,-0.0898,-0.0011,996,1502,1500,1500,1000,1000,1505,1000,1000,1505,1502,1500,1505,-0.5705,-0.0921,-0.0610,-0.0338,-0.0087,1.0062,0.1443,0.0354,-0.1465,-0.0332,0.2204,0.0300,0.0438,0.2204,0.0300,0.0438,0.3000,0.0600,0.0002,0,-2.2635,-351.4000,-0.0060,-2.2635,-351.4000,-0.0060,18.9802,52.8660,0.0200,0.0000
-21.5517,40.7437,-7.7839,0.1657,0.2462,0.1200,0.0000,0.0000,0.0000,0.0556,-0.0897,-0.0011,996,1502,1500,1500,1000,1000,1505,1000,1000,1505,1502,1500,1505,-0.7321,-0.2123,-0.0667,-0.0360,-0.0045,1.0029,0.1442,0.0352,-0.1464,-0.0330,0.2204,0.0300,0.0438,0.2204,0.0300,0.0438,0.3000,0.0600,0.0002,0,-2.2635,-351.4000,-0.0060,-2.2635,-351.4000,-0.0060,19.0227,52.9032,0.0200,0.0000
-21.5336,40.7101,-7.7653,-0.0829,0.0821,0.1200,0.0000,0.0000,0.0000,0.0556,-0.0896,-0.0015,996,1502,1500,1500,1000,1000,1505,1000,1000,1505,1502,1500,1505,-0.8466,-0.2299,0.0779,-0.0331,-0.0096,1.0039,0.1437,0.0355,-0.1467,-0.0325,0.2204,0.0300,0.0438,0.2204,0.0300,0.0438,0.3000,0.0600,0.0002,0,-2.2635,-351.4000,-0.0060,-2.2635,-351.4000,-0.0060,19.0653,52.9403,0.0200,0.0000
-21.5153,40.6768,-7.7457,0.0829,0.2462,0.2400,0.0600,0.0000,0.0000,0.0558,-0.0894,-0.0019,997,1503,1500,1500,1000,1000,1505,1000,1000,1505,1502,1500,1505,-0.8632,-0.2138,0.1937,-0.0323,-0.0091,1.0033,0.1434,0.0355,-0.1471,-0.0317,0.2204,0.0300,0.0438,0.2204,0.0300,0.0438,0.3000,0.0600,0.0002,0,-2.2635,-351.4000,-0.0060,-2.2635,-351.4000,-0.0060,19.1079,52.9774,0.0400,0.0100
-21.4955,40.6445,-7.7244,0.0829,0.2462,0.1200,0.0000,0.0000,0.0000,0.0555,-0.0895,-0.0023,996,1502,1500,1500,1000,1000,1505,1000,1000,1505,1502,1500,1505,-0.8014,-0.1595,0.3324,-0.0323,-0.0116,1.0055,0.1427,0.0363,-0.1473,-0.0317,0.2204,0.0300,0.0438,0.2204,0.0300,0.0438,0.3000,0.0600,0.0002,0,-2.2635,-351.4000,-0.0060,-2.2635,-351.4000,-0.0060,19.1505,53.0145,0.0200,0.0000
-21.4742,40.6130,-7.7023,0.0829,0.2462,0.1200,0.0000,0.0000,0.0000,0.0554,-0.0895,-0.0025,996,1502,1500,1500,1000,1000,1505,1000,1000,1505,1502,1500,1505,-0.6201,-0.0919,0.4177,-0.0314,-0.0155,1.0039,0.1423,0.0366,-0.1474,-0.0316,0.2204,0.0300,0.0438,0.2204,0.0300,0.0438,0.3000,0.0600,0.0002,0,-2.2635,-351.4000,-0.0060,-2.2635,-351.4000,-0.0060,19.1931,53.0515,0.0200,0.0000
-21.4527,40.5823,-7.6811,0.1657,0.3283,0.1200,0.0000,0.0000,0.0000,0.0553,-0.0895,-0.0023,996,1502,1500,1500,1000,1000,1505,1000,1000,1505,1502,1500,1505,-0.6229,0.0199,0.3371,-0.0325,-0.0150,1.0054,0.1425,0.0364,-0.1471,-0.0318,0.2204,0.0300,0.0438,0.2204,0.0300,0.0438,0.3000,0.0600,0.0002,0,-2.2635,-351.4000,-0.0060,-2.2635,-351.4000,-0.0060,19.2357,53.0886,0.0200,0.0000
-21.4315,40.5516,-7.6617,0.1657,0.2462,0.1200,0.0000,0.0000,0.0000,0.0553,-0.0893,-0.0017,996,1502,1500,1500,1000,1000,1505,1000,1000,1505,1502,1500,1505,-0.5728,-0.0696,0.1468,-0.0333,-0.0159,1.0058,0.1429,0.0358,-0.1463,-0.0324,0.2204,0.0300,0.0438,0.2204,0.0300,0.0438,0.3000,0.0600,0.0002,0,-2.2635,-351.4000,-0.0060,-2.2635,-351.4000,-0.0060,19.2784,53.1257,0.0200,0.0000
-21.4110,40.5190,-7.6435,0.0829,0.2462,0.1200,0.0000,0.0000,0.0000,0.0552,-0.0892,-0.0016,996,1502,1500,1500,1000,1000,1505,1000,1000,1505,1502,1500,1505,-0.5263,-0.1516,0.1105,-0.0325,-0.0139,1.0024,0.1428,0.0356,-0.1460,-0.0325,0.2204,0.0300,0.0438,0.2204,0.0300,0.0438,0.3000,0.0600,0.0002,0,-2.2635,-351.4000,-0.0060,-2.2635,-351.4000,-0.0060,19.3210,53.1628,0.0200,0.0000
-21.3918,40.4862,-7.6263,0.1657,0.0821,0.2400,0.0600,0.3200,0.0000,0.0555,-0.0890,0.0008,997,1503,1500,1500,1000,1000,1505,1000,1000,1505,1502,1500,1505,-0.6694,-0.1599,-0.0480,-0.0337,-0.0090,1.0033,0.1453,0.0328,-0.1437,-0.0344,0.2204,0.0300,0.0438,0.2204,0.0300,0.0438,0.3000,0.0600,0.0002,0,-2.2635,-351.4000,-0.0060,-2.2635,-351.4000,-0.0060,19.3637,53.1999,0.0400,0.0100
-21.3731,40.4517,-7.6093,0.1657,0.1642,0.1200,0.0000,0.0000,0.0000,0.0552,-0.0890,-0.0011,996,1502,1500,1500,1000,1000,1505,1000,1000,1505,1502,1500,1505,-0.6570,-0.2559,-0.0588,-0.0324,-0.0111,1.0034,0.1431,0.0350,-0.1453,-0.0328,0.2204,0.0300,0.0438,0.2204,0.0300,0.0438,0.3000,0.0600,0.0002,0,-2.2635,-351.4000,-0.0060,-2.2635,-351.4000,-0.0060,19.4065,53.2370,0.0200,0.0000
-21.3541,40.4179,-7.5918,0.1657,0.2462,0.1200,0.0000,0.0000,0.0000,0.0551,-0.0890,-0.0015,996,1502,1500,1500,1000,1000,1505,1000,1000,1505,1502,1500,1505,-0.6857,-0.2442,0.0600,-0.0357,-0.0090,1.0028,0.1426,0.0353,-0.1456,-0.0324,0.2204,0.0300,0.0438,0.2204,0.0300,0.0438,0.3000,0.0600,0.0002,0,-2.2635,-351.4000,-0.0060,-2.2635,-351.4000,-0.0060,19.4492,53.2741,0.0200,0.0000
-21.3329,40.3842,-7.5723,0.1657,0.2462,0.1200,0.0000,0.0000,0.0000,0.0550,-0.0889,-0.0019,996,1502,1500,1500,1000,1000,1505,1000,1000,1505,1502,1500,1505,-0.4837,-0.1844,0.1805,-0.0323,-0.0119,1.0019,0.1420,0.0358,-0.1458,-0.0321,0.2204,0.0300,0.0438,0.2204,0.0300,0.0438,0.3000,0.0600,0.0002,0,-2.2635,-351.4000,-0.0060,-2.2635,-351.4000,-0.0060,19.4919,53.3111,0.0200,0.0000
-21.3090,40.3522,-7.5519,0.1657,0.2462,0.1200,0.0000,0.0000,0.0000,0.0548,-0.0889,-0.0024,996,1502,1500,1500,1000,1000,1505,1000,1000,1505,1502,1500,1505,-0.2617,-0.1532,0.3525,-0.0344,-0.0152,0.9988,0.1413,0.0364,-0.1461,-0.0316,0.2204,0.0300,0.0438,0.2204,0.0300,0.0438,0.3000,0.0600,0.0002,0,-2.2635,-351.4000,-0.0060,-2.2635,-351.4000,-0.0060,19.5346,53.3480,0.0200,0.0000
-21.2814,40.3210,-7.5306,0.1657,0.2462,0.1200,0.0000,0.0000,0.0000,0.0547,-0.0889,-0.0026,996,1502,1500,1500,1000,1000,1505,1000,1000,1505,1502,1500,1505,0.0300,-0.0222,0.4484,-0.0314,-0.0167,1.0050,0.1409,0.0368,-0.1461,-0.0316,0.2204,0.0300,0.0438,0.2204,0.0300,0.0438,0.3000,0.0600,0.0002,0,-2.2635,-351.4000,-0.0060,-2.2635,-351.4000,-0.0060,19.5773,53.3850,0.0200,0.0000
-21.2521,40.2907,-7.5103,0.1657,0.2462,0.2400,0.0600,0.3200,0.0000,0.0548,-0.0887,-0.0003,997,1503,1500,1500,1000,1000,1505,1000,1000,1505,1502,1500,1505,0.2179,0.1408,0.3107,-0.0320,-0.0195,1.0022,0.1432,0.0343,-0.1438,-0.0336,0.2204,0.0300,0.0438,0.2204,0.0300,0.0438,0.3000,0.0600,0.0002,0,-2.2635,-351.4000,-0.0060,-2.2635,-351.4000,-0.0060,19.6200,53.4219,0.0400,0.0100
-21.2226,40.2603,-7.4924,0.0829,0.2462,0.1200,0.0000,0.0000,0.0000,0.0544,-0.0888,-0.0013,996,1502,1500,1500,1000,1000,1505,1000,1000,1505,1502,1500,1505,0.3792,0.0615,0.0340,-0.0314,-0.0150,1.0030,0.1418,0.0357,-0.1445,-0.0331,0.2204,0.0300,0.0438,0.2204,0.0300,0.0438,0.3000,0.0600,0.0002,0,-2.2635,-351.4000,-0.0060,-2.2635,-351.4000,-0.0060,19.6628,53.4588,0.0200,0.0000
-21.1945,40.2287,-7.4770,0.0829,0.3283,0.1200,0.0000,0.0000,0.0000,0.0543,-0.0887,-0.0009,996,1502,1500,1500,1000,1000,1505,1000,1000,1505,1502,1500,1505,0.2953,0.0546,-0.1173,-0.0314,-0.0123,1.0061,0.1422,0.0352,-0.1439,-0.0335,0.2204,0.0300,0.0438,0.2204,0.0300,0.0438,0.3000,0.0600,0.0002,0,-2.2635,-351.4000,-0.0060,-2.2635,-351.4000,-0.0060,19.7056,53.4957,0.0200,0.0000
-21.1685,40.1961,-7.4627,0.1657,0.2462,0.1200,0.0000,0.0000,0.0000,0.0544,-0.0886,-0.0007,996,1502,1500,1500,1000,1000,1505,1000,1000,1505,1502,1500,1505,0.0910,-0.0714,-0.1770,-0.0335,-0.0119,1.0046,0.1422,0.0349,-0.1437,-0.0335,0.2204,0.0300,0.0438,0.2204,0.0300,0.0438,0.3000,0.0600,0.0002,0,-2.2635,-351.4000,-0.0060,-2.2635,-351.4000,-0.0060,19.7483,53.5326,0.0200,0.0000
-21.1451,40.1625,-7.4484,0.0829,0.0821,0.1200,0.0000,0.0000,0.0000,0.0545,-0.0885,-0.0006,996,1502,1500,1500,1000,1000,1505,1000,1000,1505,1502,1500,1505,-0.1990,-0.0740,-0.2232,-0.0364,-0.0087,0.9997,0.1423,0.0347,-0.1436,-0.0334,0.2204,0.0300,0.0438,0.2204,0.0300,0.0438,0.3000,0.0600,0.0002,0,-2.2635,-351.4000,-0.0060,-2.2635,-351.4000,-0.0060,19.7911,53.5695,0.0200,0.0000
-21.1235,40.1285,-7.4338,0.1657,0.1642,0.1200,0.0000,0.0000,0.0000,0.0545,-0.0883,-0.0010,996,1502,1500,1500,1000,1000,1505,1000,1000,1505,1502,1500,1505,-0.3980,-0.2473,-0.1296,-0.0348,-0.0099,1.0022,0.1419,0.0348,-0.1438,-0.0329,0.2204,0.0300,0.0438,0.2204,0.0300,0.0438,0.3000,0.0600,0.0002,0,-2.2635,-351.4000,-0.0060,-2.2635,-351.4000,-0.0060,19.8340,53.6064,0.0200,0.0000
-21.1013,40.0938,-7.4162,-0.0000,0.0821,0.2400,0.0600,0.3200,0.0000,0.0547,-0.0881,0.0003,997,1503,1500,1500,1000,1000,1505,1000,1000,1505,1502,1500,1505,-0.3869,-0.2613,0.0912,-0.0314,-0.0056,1.0019,0.1432,0.0331,-0.1425,-0.0338,0.2204,0.0300,0.0438,0.2204,0.0300,0.0438,0.3000,0.0600,0.0002,0,-2.2635,-351.4000,-0.0060,-2.2635,-351.4000,-0.0060,19.8768,53.6434,0.0400,0.0100
-21.0781,40.0600,-7.3960,0.1657,0.2462,0.1200,0.0000,0.0000,0.0000,0.0544,-0.0882,-0.0022,996,1502,1500,1500,1000,1000,1505,1000,1000,1505,1502,1500,1505,-0.4459,-0.2287,0.2842,-0.0317,-0.0115,1.0040,0.1404,0.0360,-0.1448,-0.0316,0.2204,0.0300,0.0438,0.2204,0.0300,0.0438,0.3000,0.0600,0.0002,0,-2.2635,-351.4000,-0.0060,-2.2635,-351.4000,-0.0060,19.9197,53.6803,0.0200,0.0000
-21.0531,40.0273,-7.3739,0.0829,0.2462,0.1200,0.0000,0.0000,0.0000,0.0543,-0.0881,-0.0026,996,1502,1500,1500,1000,1000,1505,1000,1000,1505,1502,1500,1505,-0.2747,-0.2266,0.4270,-0.0327,-0.0159,0.9992,0.1398,0.0364,-0.1450,-0.0312,0.2204,0.0300,0.0438,0.2204,0.0300,0.0438,0.3000,0.0600,0.0002,0,-2.2635,-351.4000,-0.0060,-2.2635,-351.4000,-0.0060,19.9626,53.7172,0.0200,0.0000
-21.0260,39.9956,-7.3513,0.0829,0.2462,0.1200,0.0000,0.0000,0.0000,0.0541,-0.0881,-0.0026,996,1502,1500,1500,1000,1000,1505,1000,1000,1505,1502,1500,1505,-0.0953,-0.1023,0.4614,-0.0330,-0.0183,1.0033,0.1396,0.0366,-0.1449,-0.0313,0.2204,0.0300,0.0438,0.2204,0.0300,0.0438,0.3000,0.0600,0.0002,0,-2.2635,-351.4000,-0.0060,-2.2635,-351.4000,-0.0060,20.0055,53.7541,0.0200,0.0000
-20.9982,39.9634,-7.3297,0.0829,0.2462,0.1200,0.0000,0.0000,0.0000,0.0540,-0.0880,-0.0021,996,1502,1500,1500,1000,1000,1505,1000,1000,1505,1502,1500,1505,-0.0022,-0.2008,0.2821,-0.0356,-0.0184,1.0025,0.1399,0.0360,-0.1441,-0.0319,0.2204,0.0300,0.0438,0.2204,0.0300,0.0438,0.3000,0.0600,0.0002,0,-2.2635,-351.4000,-0.0060,-2.2635,-351.4000,-0.0060,20.0484,53.7910,0.0200,0.0000
-20.9715,39.9297,-7.3113,0.0829,0.1642,0.1200,0.0000,0.0000,0.0000,0.0540,-0.0879,-0.0012,996,1502,1500,1500,1000,1000,1505,1000,1000,1505,1502,1500,1505,-0.0113,-0.2253,-0.0219,-0.0347,-0.0156,1.0048,0.1407,0.0351,-0.1431,-0.0327,0.2204,0.0300,0.0438,0.2204,0.0300,0.0438,0.3000,0.0600,0.0002,0,-2.2635,-351.4000,-0.0060,-2.2635,-351.4000,-0.0060,20.0914,53.8279,0.0200,0.0000
-20.9473,39.8955,-7.2957,0.1657,0.2462,0.2400,0.0600,0.3200,0.0000,0.0542,-0.0877,0.0011,997,1503,1500,1500,1000,1000,1505,1000,1000,1505,1502,1500,1505,-0.0778,-0.1393,-0.1791,-0.0364,-0.0134,1.0085,0.1431,0.0324,-0.1408,-0.0346,0.2204,0.0300,0.0438,0.2204,0.0300,0.0438,0.3000,0.0600,0.0002,0,-2.2635,-351.4000,-0.0060,-2.2635,-351.4000,-0.0060,20.1343,53.8648,0.0400,0.0100
-20.9253,39.8610,-7.2819,0.1657,0.2462,0.1200,0.0000,0.0000,0.0000,0.0540,-0.0878,-0.0007,996,1502,1500,1500,1000,1000,1505,1000,1000,1505,1502,1500,1505,-0.1924,-0.1486,-0.2006,-0.0314,-0.0120,1.0024,0.1410,0.0346,-0.1425,-0.0331,0.2204,0.0300,0.0438,0.2204,0.0300,0.0438,0.3000,0.0600,0.0002,0,-2.2635,-351.4000,-0.0060,-2.2635,-351.4000,-0.0060,20.1773,53.9017,0.0200,0.0000
-20.9036,39.8266,-7.2672,0.0829,0.1642,0.1200,0.0000,0.0000,0.0000,0.0540,-0.0877,-0.0008,996,1502,1500,1500,1000,1000,1505,1000,1000,1505,1502,1500,1505,-0.3192,-0.0793,-0.1527,-0.0310,-0.0065,1.0049,0.1409,0.0346,-0.1425,-0.0330,0.2204,0.0300,0.0438,0.2204,0.0300,0.0438,0.3000,0.0600,0.0002,0,-2.2635,-351.4000,-0.0060,-2.2635,-351.4000,-0.0060,20.2203,53.9386,0.0200,0.0000
-20.8829,39.7923,-7.2506,0.1657,0.2462,0.1200,0.0000,0.0000,0.0000,0.0540,-0.0876,-0.0013,996,1502,1500,1500,1000,1000,1505,1000,1000,1505,1502,1500,1505,-0.4995,-0.2993,0.0061,-0.0314,-0.0097,1.0024,0.1403,0.0349,-0.1429,-0.0322,0.2204,0.0300,0.0438,0.2204,0.0300,0.0438,0.3000,0.0600,0.0002,0,-2.2635,-351.4000,-0.0060,-2.2635,-351.4000,-0.0060,20.2633,53.9755,0.0200,0.0000
-20.8609,39.7580,-7.2315,0.0829,0.2462,0.1200,0.0000,0.0000,0.0000,0.0540,-0.0875,-0.0019,996,1502,1500,1500,1000,1000,1505,1000,1000,1505,1502,1500,1505,-0.5239,-0.2994,0.2072,-0.0334,-0.0092,1.0047,0.1396,0.0354,-0.1434,-0.0316,0.2204,0.0300,0.0438,0.2204,0.0300,0.0438,0.3000,0.0600,0.0002,0,-2.2635,-351.4000,-0.0060,-2.2635,-351.4000,-0.0060,20.3063,54.0123,0.0200,0.0000
-20.8381,39.7234,-7.2098,0.0829,0.2462,0.1200,0.0000,0.0000,0.0000,0.0539,-0.0874,-0.0024,996,1502,1500,1500,1000,1000,1505,1000,1000,1505,1502,1500,1505,-0.5618,-0.3579,0.3776,-0.0332,-0.0152,0.9999,0.1389,0.0359,-0.1438,-0.0310,0.2204,0.0300,0.0438,0.2204,0.0300,0.0438,0.3000,0.0600,0.0002,0,-2.2635,-351.4000,-0.0060,-2.2635,-351.4000,-0.0060,20.3493,54.0491,0.0200,0.0000
-20.8139,39.6891,-7.1861,0.0829,0.2462,0.2400,0.0600,0.0000,0.0000,0.0541,-0.0872,-0.0028,997,1503,1500,1500,1000,1000,1505,1000,1000,1505,1502,1500,1505,-0.4593,-0.4054,0.5143,-0.0344,-0.0194,1.0026,0.1385,0.0359,-0.1441,-0.0302,0.2204,0.0300,0.0438,0.2204,0.0300,0.0438,0.3000,0.0600,0.0002,0,-2.2635,-351.4000,-0.0060,-2.2635,-351.4000,-0.0060,20.3923,54.0859,0.0400,0.0100
-20.7881,39.6551,-7.1623,-0.0000,0.1642,0.1200,0.0000,0.0000,0.0000,0.0538,-0.0872,-0.0025,996,1502,1500,1500,1000,1000,1505,1000,1000,1505,1502,1500,1505,-0.3883,-0.3528,0.4024,-0.0334,-0.0185,0.9999,0.1385,0.0360,-0.1435,-0.0310,0.2204,0.0300,0.0438,0.2204,0.0300,0.0438,0.3000,0.0600,0.0002,0,-2.2635,-351.4000,-0.0060,-2.2635,-351.4000,-0.0060,20.4354,54.1227,0.0200,0.0000
-20.7632,39.6206,-7.1406,0.0829,0.2462,0.1200,0.0000,0.0000,0.0000,0.0537,-0.0872,-0.0018,996,1502,1500,1500,1000,1000,1505,1000,1000,1505,1502,1500,1505,-0.2848,-0.3106,0.2068,-0.0320,-0.0206,1.0007,0.1390,0.0354,-0.1427,-0.0317,0.2204,0.0300,0.0438,0.2204,0.0300,0.0438,0.3000,0.0600,0.0002,0,-2.2635,-351.4000,-0.0060,-2.2635,-351.4000,-0.0060,20.4785,54.1596,0.0200,0.0000
-20.7394,39.5856,-7.1226,-0.0000,0.2462,0.1200,0.0000,0.0000,0.0000,0.0535,-0.0871,-0.0010,996,1502,1500,1500,1000,1000,1505,1000,1000,1505,1502,1500,1505,-0.1203,-0.2797,-0.0768,-0.0304,-0.0195,1.0047,0.1396,0.0346,-0.1417,-0.0326,0.2204,0.0300,0.0438,0.2204,0.0300,0.0438,0.3000,0.0600,0.0002,0,-2.2635,-351.4000,-0.0060,-2.2635,-351.4000,-0.0060,20.5216,54.1964,0.0200,0.0000
-20.7147,39.5498,-7.1062,0.0829,0.0821,0.1200,0.0000,0.0000,0.0000,0.0534,-0.0870,-0.0011,996,1502,1500,1500,1000,1000,1505,1000,1000,1505,1502,1500,1505,-0.0104,-0.3393,-0.0853,-0.0327,-0.0162,1.0025,0.1394,0.0347,-0.1415,-0.0325,0.2204,0.0300,0.0438,0.2204,0.0300,0.0438,0.3000,0.0600,0.0002,0,-2.2635,-351.4000,-0.0060,-2.2635,-351.4000,-0.0060,20.5647,54.2332,0.0200,0.0000
-20.6900,39.5141,-7.0911,0.1657,0.0821,0.1200,0.0000,0.0000,0.0000,0.0533,-0.0870,-0.0006,996,1502,1500,1500,1000,1000,1505,1000,1000,1505,1502,1500,1505,0.0508,-0.3171,-0.2348,-0.0303,-0.0142,1.0026,0.1397,0.0342,-0.1409,-0.0330,0.2204,0.0300,0.0438,0.2204,0.0300,0.0438,0.3000,0.0600,0.0002,0,-2.2635,-351.4000,-0.0060,-2.2635,-351.4000,-0.0060,20.6078,54.2700,0.0200,0.0000
-20.6638,39.4788,-7.0761,0.0829,0.2462,0.2400,0.0600,0.3200,0.0000,0.0535,-0.0868,0.0009,997,1503,1500,1500,1000,1000,1505,1000,1000,1505,1502,1500,1505,0.2213,-0.2131,-0.0853,-0.0324,-0.0132,1.0069,0.1411,0.0324,-0.1394,-0.0342,0.2204,0.0300,0.0438,0.2204,0.0300,0.0438,0.3000,0.0600,0.0002,0,-2.2635,-351.4000,-0.0060,-2.2635,-351.4000,-0.0060,20.6510,54.3068,0.0400,0.0100
-20.6357,39.4438,-7.0600,-0.0829,0.0000,0.1200,0.0000,0.0000,0.0000,0.0531,-0.0868,-0.0013,996,1502,1500,1500,1000,1000,1505,1000,1000,1505,1502,1500,1505,0.3559,-0.2104,-0.0054,-0.0320,-0.0150,1.0024,0.1386,0.0351,-0.1412,-0.0324,0.2204,0.0300,0.0438,0.2204,0.0300,0.0438,0.3000,0.0600,0.0002,0,-2.2635,-351.4000,-0.0060,-2.2635,-351.4000,-0.0060,20.6941,54.3436,0.0200,0.0000
-20.6071,39.4096,-7.0426,0.1657,0.1642,0.1200,0.0000,0.0000,0.0000,0.0531,-0.0868,-0.0018,996,1502,1500,1500,1000,1000,1505,1000,1000,1505,1502,1500,1505,0.2852,-0.2268,0.1541,-0.0325,-0.0108,1.0042,0.1380,0.0355,-0.1416,-0.0319,0.2204,0.0300,0.0438,0.2204,0.0300,0.0438,0.3000,0.0600,0.0002,0,-2.2635,-351.4000,-0.0060,-2.2635,-351.4000,-0.0060,20.7373,54.3804,0.0200,0.0000
-20.5777,39.3757,-7.0244,-0.0000,0.0821,0.1200,0.0000,0.0000,0.0000,0.0530,-0.0867,-0.0016,996,1502,1500,1500,1000,1000,1505,1000,1000,1505,1502,1500,1505,0.1655,-0.2128,0.1090,-0.0312,-0.0112,1.0029,0.1381,0.0353,-0.1414,-0.0320,0.2204,0.0300,0.0438,0.2204,0.0300,0.0438,0.3000,0.0600,0.0002,0,-2.2635,-351.4000,-0.0060,-2.2635,-351.4000,-0.0060,20.7805,54.4172,0.0200,0.0000
-20.5497,39.3420,-7.0061,0.0829,0.0821,0.1200,0.0000,0.0000,0.0000,0.0530,-0.0866,-0.0018,996,1502,1500,1500,1000,1000,1505,1000,1000,1505,1502,1500,1505,0.1152,-0.2001,0.1752,-0.0308,-0.0137,1.0028,0.1378,0.0354,-0.1414,-0.0318,0.2204,0.0300,0.0438,0.2204,0.0300,0.0438,0.3000,0.0600,0.0002,0,-2.2635,-351.4000,-0.0060,-2.2635,-351.4000,-0.0060,20.8237,54.4539,0.0200,0.0000
-20.5230,39.3084,-6.9875,0.2486,0.1642,0.1200,0.0000,0.0000,0.0000,0.0530,-0.0865,-0.0018,996,1502,1500,1500,1000,1000,1505,1000,1000,1505,1502,1500,1505,-0.0345,-0.2385,0.1816,-0.0337,-0.0142,1.0004,0.1377,0.0354,-0.1414,-0.0317,0.2204,0.0300,0.0438,0.2204,0.0300,0.0438,0.3000,0.0600,0.0002,0,-2.2635,-351.4000,-0.0060,-2.2635,-351.4000,-0.0060,20.8668,54.4906,0.0200,0.0000
-20.4969,39.2740,-6.9687,0.0829,0.1642,0.2400,0.0600,0.0000,0.0000,0.0532,-0.0863,-0.0018,997,1503,1500,1500,1000,1000,1505,1000,1000,1505,1502,1500,1505,-0.0450,-0.2695,0.1354,-0.0366,-0.0153,0.9998,0.1378,0.0348,-0.1413,-0.0313,0.2204,0.0300,0.0438,0.2204,0.0300,0.0438,0.3000,0.0600,0.0002,0,-2.2635,-351.4000,-0.0060,-2.2635,-351.4000,-0.0060,20.9100,54.5273,0.0400,0.0100
-20.4716,39.2389,-6.9512,0.0829,0.1642,0.1200,0.0000,0.0000,0.0000,0.0529,-0.0864,-0.0014,996,1502,1500,1500,1000,1000,1505,1000,1000,1505,1502,1500,1505,-0.0369,-0.2278,0.0336,-0.0324,-0.0150,1.0048,0.1379,0.0349,-0.1407,-0.0321,0.2204,0.0300,0.0438,0.2204,0.0300,0.0438,0.3000,0.0600,0.0002,0,-2.2635,-351.4000,-0.0060,-2.2635,-351.4000,-0.0060,20.9533,54.5640,0.0200,0.0000
-20.4454,39.2041,-6.9340,0.0829,0.2462,0.1200,0.0000,0.0000,0.0000,0.0528,-0.0863,-0.0012,996,1502,1500,1500,1000,1000,1505,1000,1000,1505,1502,1500,1505,0.0883,-0.2689,-0.0159,-0.0324,-0.0150,1.0024,0.1378,0.0347,-0.1403,-0.0323,0.2204,0.0300,0.0438,0.2204,0.0300,0.0438,0.3000,0.0600,0.0002,0,-2.2635,-351.4000,-0.0060,-2.2635,-351.4000,-0.0060,20.9965,54.6006,0.0200,0.0000
-20.4180,39.1685,-6.9173,0.0829,0.1642,0.1200,0.0000,0.0000,0.0000,0.0527,-0.0862,-0.0011,996,1502,1500,1500,1000,1000,1505,1000,1000,1505,1502,1500,1505,0.2477,-0.2801,-0.0461,-0.0315,-0.0150,1.0014,0.1377,0.0347,-0.1400,-0.0324,0.2204,0.0300,0.0438,0.2204,0.0300,0.0438,0.3000,0.0600,0.0002,0,-2.2635,-351.4000,-0.0060,-2.2635,-351.4000,-0.0060,21.0398,54.6373,0.0200,0.0000
-20.3900,39.1338,-6.9008,-0.0000,0.1642,0.1200,0.0000,0.0000,0.0000,0.0526,-0.0862,-0.0013,996,1502,1500,1500,1000,1000,1505,1000,1000,1505,1502,1500,1505,0.2533,-0.2059,0.0262,-0.0296,-0.0132,1.0014,0.1374,0.0349,-0.1401,-0.0322,0.2204,0.0300,0.0438,0.2204,0.0300,0.0438,0.3000,0.0600,0.0002,0,-2.2635,-351.4000,-0.0060,-2.2635,-351.4000,-0.0060,21.0831,54.6740,0.0200,0.0000
-20.3608,39.1002,-6.8839,0.0829,0.0821,0.1200,0.0000,0.0000,0.0000,0.0525,-0.0862,-0.0016,996,1502,1500,1500,1000,1000,1505,1000,1000,1505,1502,1500,1505,0.4047,-0.0593,0.1008,-0.0313,-0.0134,0.9996,0.1370,0.0353,-0.1403,-0.0320,0.2204,0.0300,0.0438,0.2204,0.0300,0.0438,0.3000,0.0600,0.0002,0,-2.2635,-351.4000,-0.0060,-2.2635,-351.4000,-0.0060,21.1264,54.7107,0.0200,0.0000
-20.3320,39.0677,-6.8673,0.0829,0.0821,0.2400,0.0600,0.3200,0.0000,0.0527,-0.0859,0.0006,997,1503,1500,1500,1000,1000,1505,1000,1000,1505,1502,1500,1505,0.3504,-0.0824,0.0091,-0.0312,-0.0137,1.0022,0.1392,0.0327,-0.1381,-0.0338,0.2204,0.0300,0.0438,0.2204,0.0300,0.0438,0.3000,0.0600,0.0002,0,-2.2635,-351.4000,-0.0060,-2.2635,-351.4000,-0.0060,21.1698,54.7474,0.0400,0.0100
-20.3037,39.0347,-6.8510,0.0829,0.1642,0.1200,0.0000,0.0000,0.0000,0.0524,-0.0860,-0.0014,996,1502,1500,1500,1000,1000,1505,1000,1000,1505,1502,1500,1505,0.2631,-0.0503,0.0169,-0.0336,-0.0113,1.0015,0.1370,0.0350,-0.1398,-0.0323,0.2204,0.0300,0.0438,0.2204,0.0300,0.0438,0.3000,0.0600,0.0002,0,-2.2635,-351.4000,-0.0060,-2.2635,-351.4000,-0.0060,21.2131,54.7841,0.0200,0.0000
-20.2760,39.0016,-6.8347,0.0829,0.0821,0.1200,0.0000,0.0000,0.0000,0.0523,-0.0859,-0.0015,996,1502,1500,1500,1000,1000,1505,1000,1000,1505,1502,1500,1505,0.2546,-0.0882,0.0584,-0.0338,-0.0162,1.0015,0.1368,0.0351,-0.1398,-0.0321,0.2204,0.0300,0.0438,0.2204,0.0300,0.0438,0.3000,0.0600,0.0002,0,-2.2635,-351.4000,-0.0060,-2.2635,-351.4000,-0.0060,21.2565,54.8207,0.0200,0.0000
-20.2487,38.9680,-6.8180,0.0829,0.1642,0.1200,0.0000,0.0000,0.0000,0.0523,-0.0858,-0.0016,996,1502,1500,1500,1000,1000,1505,1000,1000,1505,1502,1500,1505,0.1268,-0.1364,0.1131,-0.0332,-0.0149,0.9984,0.1366,0.0351,-0.1398,-0.0319,0.2204,0.0300,0.0438,0.2204,0.0300,0.0438,0.3000,0.0600,0.0002,0,-2.2635,-351.4000,-0.0060,-2.2635,-351.4000,-0.0060,21.2999,54.8574,0.0200,0.0000
-20.2215,38.9340,-6.8005,0.0829,0.0821,0.1200,0.0000,0.0000,0.0000,0.0523,-0.0857,-0.0015,996,1502,1500,1500,1000,1000,1505,1000,1000,1505,1502,1500,1505,0.0799,-0.1928,0.0636,-0.0327,-0.0123,1.0015,0.1365,0.0349,-0.1395,-0.0319,0.2204,0.0300,0.0438,0.2204,0.0300,0.0438,0.3000,0.0600,0.0002,0,-2.2635,-351.4000,-0.0060,-2.2635,-351.4000,-0.0060,21.3433,54.8941,0.0200,0.0000
-20.1953,38.9001,-6.7828,0.0829,0.0000,0.1200,0.0000,0.0000,0.0000,0.0523,-0.0857,-0.0016,996,1502,1500,1500,1000,1000,1505,1000,1000,1505,1502,1500,1505,-0.0043,-0.0943,0.1073,-0.0360,-0.0148,0.9997,0.1364,0.0350,-0.1396,-0.0318,0.2204,0.0300,0.0438,0.2204,0.0300,0.0438,0.3000,0.0600,0.0002,0,-2.2635,-351.4000,-0.0060,-2.2635,-351.4000,-0.0060,21.3867,54.9307,0.0200,0.0000
-20.1700,38.8675,-6.7652,0.0829,0.0821,0.2400,0.0600,0.3200,0.0000,0.0525,-0.0855,0.0002,997,1503,1500,1500,1000,1000,1505,1000,1000,1505,1502,1500,1505,-0.1099,-0.0341,0.1407,-0.0326,-0.0156,1.0037,0.1382,0.0328,-0.1379,-0.0332,0.2204,0.0300,0.0438,0.2204,0.0300,0.0438,0.3000,0.0600,0.0002,0,-2.2635,-351.4000,-0.0060,-2.2635,-351.4000,-0.0060,21.4301,54.9673,0.0400,0.0100
-20.1461,38.8349,-6.7488,0.0829,0.1642,0.1200,0.0000,0.0000,0.0000,0.0522,-0.0856,-0.0013,996,1502,1500,1500,1000,1000,1505,1000,1000,1505,1502,1500,1505,-0.1226,-0.0286,0.0157,-0.0340,-0.0140,1.0068,0.1365,0.0347,-0.1391,-0.0320,0.2204,0.0300,0.0438,0.2204,0.0300,0.0438,0.3000,0.0600,0.0002,0,-2.2635,-351.4000,-0.0060,-2.2635,-351.4000,-0.0060,21.4735,55.0039,0.0200,0.0000
-20.1224,38.8023,-6.7326,-0.0829,0.0000,0.1200,0.0000,0.0000,0.0000,0.0522,-0.0855,-0.0014,996,1502,1500,1500,1000,1000,1505,1000,1000,1505,1502,1500,1505,-0.0881,-0.0487,0.0416,-0.0331,-0.0117,1.0023,0.1363,0.0347,-0.1390,-0.0320,0.2204,0.0300,0.0438,0.2204,0.0300,0.0438,0.3000,0.0600,0.0002,0,-2.2635,-351.4000,-0.0060,-2.2635,-351.4000,-0.0060,21.5169,55.0405,0.0200,0.0000
-20.0988,38.7689,-6.7163,0.0829,0.0821,0.1200,0.0000,0.0000,0.0000,0.0521,-0.0854,-0.0016,996,1502,1500,1500,1000,1000,1505,1000,1000,1505,1502,1500,1505,-0.1885,-0.0672,0.0785,-0.0328,-0.0130,1.0015,0.1360,0.0348,-0.1391,-0.0317,0.2204,0.0300,0.0438,0.2204,0.0300,0.0438,0.3000,0.0600,0.0002,0,-2.2635,-351.4000,-0.0060,-2.2635,-351.4000,-0.0060,21.5603,55.0770,0.0200,0.0000
-20.0749,38.7357,-6.6992,-0.1657,0.0821,0.1200,0.0000,0.0000,0.0000,0.0521,-0.0853,-0.0018,996,1502,1500,1500,1000,1000,1505,1000,1000,1505,1502,1500,1505,-0.1302,-0.1013,0.1559,-0.0332,-0.0138,1.0014,0.1356,0.0351,-0.1392,-0.0315,0.2204,0.0300,0.0438,0.2204,0.0300,0.0438,0.3000,0.0600,0.0002,0,-2.2635,-351.4000,-0.0060,-2.2635,-351.4000,-0.0060,21.6038,55.1136,0.0200,0.0000
-20.0502,38.7024,-6.6816,0.0829,0.1642,0.1200,0.0000,0.0000,0.0000,0.0520,-0.0852,-0.0018,996,1502,1500,1500,1000,1000,1505,1000,1000,1505,1502,1500,1505,-0.0868,-0.1317,0.1401,-0.0308,-0.0120,1.0009,0.1355,0.0350,-0.1390,-0.0315,0.2204,0.0300,0.0438,0.2204,0.0300,0.0438,0.3000,0.0600,0.0002,0,-2.2635,-351.4000,-0.0060,-2.2635,-351.4000,-0.0060,21.6473,55.1501,0.0200,0.0000
-20.0245,38.6706,-6.6643,0.0829,0.2462,0.2400,0.0600,0.3200,0.0000,0.0521,-0.0852,0.0000,997,1503,1500,1500,1000,1000,1505,1000,1000,1505,1502,1500,1505,0.0716,0.1270,0.1791,-0.0316,-0.0157,0.9984,0.1373,0.0330,-0.1373,-0.0331,0.2204,0.0300,0.0438,0.2204,0.0300,0.0438,0.3000,0.0600,0.0002,0,-2.2635,-351.4000,-0.0060,-2.2635,-351.4000,-0.0060,21.6909,55.1868,0.0400,0.0100
-19.9981,38.6392,-6.6483,0.0829,0.1642,0.1200,0.0000,0.0000,0.0000,0.0517,-0.0852,-0.0014,996,1502,1500,1500,1000,1000,1505,1000,1000,1505,1502,1500,1505,0.2903,0.0243,0.0347,-0.0322,-0.0166,1.0013,0.1355,0.0348,-0.1383,-0.0321,0.2204,0.0300,0.0438,0.2204,0.0300,0.0438,0.3000,0.0600,0.0002,0,-2.2635,-351.4000,-0.0060,-2.2635,-351.4000,-0.0060,21.7344,55.2234,0.0200,0.0000
-19.9692,38.6074,-6.6332,0.0829,0.1642,0.1200,0.0000,0.0000,0.0000,0.0516,-0.0852,-0.0014,996,1502,1500,1500,1000,1000,1505,1000,1000,1505,1502,1500,1505,0.4861,0.1356,0.0389,-0.0347,-0.0149,1.0004,0.1353,0.0350,-0.1381,-0.0322,0.2204,0.0300,0.0438,0.2204,0.0300,0.0438,0.3000,0.0600,0.0002,0,-2.2635,-351.4000,-0.0060,-2.2635,-351.4000,-0.0060,21.7780,55.2600,0.0200,0.0000
-19.9398,38.5761,-6.6191,0.0829,0.2462,0.1200,0.0000,0.0000,0.0000,0.0514,-0.0851,-0.0011,996,1502,1500,1500,1000,1000,1505,1000,1000,1505,1502,1500,1505,0.6557,0.1748,-0.0774,-0.0324,-0.0127,1.0048,0.1354,0.0348,-0.1376,-0.0326,0.2204,0.0300,0.0438,0.2204,0.0300,0.0438,0.3000,0.0600,0.0002,0,-2.2635,-351.4000,-0.0060,-2.2635,-351.4000,-0.0060,21.8215,55.2966,0.0200,0.0000
-19.9086,38.5443,-6.6052,0.0829,0.0821,0.1200,0.0000,0.0000,0.0000,0.0513,-0.0850,-0.0012,996,1502,1500,1500,1000,1000,1505,1000,1000,1505,1502,1500,1505,0.8032,0.0378,-0.0494,-0.0347,-0.0161,1.0062,0.1351,0.0348,-0.1374,-0.0325,0.2204,0.0300,0.0438,0.2204,0.0300,0.0438,0.3000,0.0600,0.0002,0,-2.2635,-351.4000,-0.0060,-2.2635,-351.4000,-0.0060,21.8651,55.3331,0.0200,0.0000
-19.8770,38.5111,-6.5904,0.0829,0.1642,0.1200,0.0000,0.0000,0.0000,0.0513,-0.0849,-0.0011,996,1502,1500,1500,1000,1000,1505,1000,1000,1505,1502,1500,1505,0.6019,-0.0455,-0.0786,-0.0348,-0.0116,1.0053,0.1351,0.0346,-0.1373,-0.0324,0.2204,0.0300,0.0438,0.2204,0.0300,0.0438,0.3000,0.0600,0.0002,0,-2.2635,-351.4000,-0.0060,-2.2635,-351.4000,-0.0060,21.9087,55.3697,0.0200,0.0000
-19.8476,38.4777,-6.5758,0.0829,0.0821,0.2400,0.0600,0.3200,0.0000,0.0516,-0.0847,0.0009,997,1503,1500,1500,1000,1000,1505,1000,1000,1505,1502,1500,1505,0.4022,-0.0191,-0.0923,-0.0301,-0.0067,1.0064,0.1372,0.0322,-0.1354,-0.0340,0.2204,0.0300,0.0438,0.2204,0.0300,0.0438,0.3000,0.0600,0.0002,0,-2.2635,-351.4000,-0.0060,-2.2635,-351.4000,-0.0060,21.9524,55.4062,0.0400,0.0100
-19.8200,38.4442,-6.5609,0.0829,0.0821,0.1200,0.0000,0.0000,0.0000,0.0514,-0.0847,-0.0011,996,1502,1500,1500,1000,1000,1505,1000,1000,1505,1502,1500,1505,0.1741,-0.0486,-0.0453,-0.0307,-0.0037,1.0011,0.1350,0.0345,-0.1372,-0.0322,0.2204,0.0300,0.0438,0.2204,0.0300,0.0438,0.3000,0.0600,0.0002,0,-2.2635,-351.4000,-0.0060,-2.2635,-351.4000,-0.0060,21.9960,55.4428,0.0200,0.0000
-19.7953,38.4113,-6.5460,0.0829,0.0821,0.1200,0.0000,0.0000,0.0000,0.0514,-0.0847,-0.0014,996,1502,1500,1500,1000,1000,1505,1000,1000,1505,1502,1500,1505,-0.0976,0.0454,0.0365,-0.0280,-0.0090,0.9994,0.1347,0.0347,-0.1375,-0.0318,0.2204,0.0300,0.0438,0.2204,0.0300,0.0438,0.3000,0.0600,0.0002,0,-2.2635,-351.4000,-0.0060,-2.2635,-351.4000,-0.0060,22.0397,55.4793,0.0200,0.0000
-19.7716,38.3791,-6.5298,0.0829,0.0821,0.1200,0.0000,0.0000,0.0000,0.0514,-0.0846,-0.0017,996,1502,1500,1500,1000,1000,1505,1000,1000,1505,1502,1500,1505,-0.1994,-0.0068,0.1066,-0.0294,-0.0118,1.0051,0.1344,0.0348,-0.1377,-0.0315,0.2204,0.0300,0.0438,0.2204,0.0300,0.0438,0.3000,0.0600,0.0002,0,-2.2635,-351.4000,-0.0060,-2.2635,-351.4000,-0.0060,22.0833,55.5158,0.0200,0.0000
-19.7481,38.3474,-6.5129,0.0829,0.1642,0.1200,0.0000,0.0000,0.0000,0.0514,-0.0846,-0.0021,996,1502,1500,1500,1000,1000,1505,1000,1000,1505,1502,1500,1505,-0.1983,0.1088,0.2577,-0.0313,-0.0122,1.0046,0.1338,0.0353,-0.1381,-0.0310,0.2204,0.0300,0.0438,0.2204,0.0300,0.0438,0.3000,0.0600,0.0002,0,-2.2635,-351.4000,-0.0060,-2.2635,-351.4000,-0.0060,22.1270,55.5523,0.0200,0.0000
-19.7228,38.3156,-6.4946,0.0829,0.1642,0.1200,0.0000,0.0000,0.0000,0.0512,-0.0844,-0.0019,996,1502,1500,1500,1000,1000,1505,1000,1000,1505,1502,1500,1505,-0.0228,-0.0301,0.2230,-0.0306,-0.0147,0.9997,0.1337,0.0351,-0.1376,-0.0313,0.2204,0.0300,0.0438,0.2204,0.0300,0.0438,0.3000,0.0600,0.0002,0,-2.2635,-351.4000,-0.0060,-2.2635,-351.4000,-0.0060,22.1707,55.5888,0.0200,0.0000
-19.6956,38.2827,-6.4768,0.0829,0.0821,0.2400,0.0600,0.3200,0.0000,0.0513,-0.0842,0.0001,997,1503,1500,1500,1000,1000,1505,1000,1000,1505,1502,1500,1505,0.2485,-0.1272,0.1880,-0.0307,-0.0150,1.0013,0.1356,0.0328,-0.1354,-0.0329,0.2204,0.0300,0.0438,0.2204,0.0300,0.0438,0.3000,0.0600,0.0002,0,-2.2635,-351.4000,-0.0060,-2.2635,-351.4000,-0.0060,22.2144,55.6252,0.0400,0.0100
-19.6663,38.2492,-6.4593,-0.0000,0.1642,0.1200,0.0000,0.0000,0.0000,0.0509,-0.0843,-0.0017,996,1502,1500,1500,1000,1000,1505,1000,1000,1505,1502,1500,1505,0.3922,-0.0301,0.1407,-0.0323,-0.0142,1.0015,0.1335,0.0350,-0.1369,-0.0317,0.2204,0.0300,0.0438,0.2204,0.0300,0.0438,0.3000,0.0600,0.0002,0,-2.2635,-351.4000,-0.0060,-2.2635,-351.4000,-0.0060,22.2581,55.6617,0.0200,0.0000
-19.6365,38.2163,-6.4423,0.0829,0.1642,0.1200,0.0000,0.0000,0.0000,0.0508,-0.0842,-0.0014,996,1502,1500,1500,1000,1000,1505,1000,1000,1505,1502,1500,1505,0.4597,0.0069,0.0666,-0.0306,-0.0142,1.0065,0.1337,0.0348,-0.1365,-0.0320,0.2204,0.0300,0.0438,0.2204,0.0300,0.0438,0.3000,0.0600,0.0002,0,-2.2635,-351.4000,-0.0060,-2.2635,-351.4000,-0.0060,22.3019,55.6982,0.0200,0.0000
-19.6075,38.1834,-6.4282,0.0829,0.0821,0.1200,0.0000,0.0000,0.0000,0.0508,-0.0842,-0.0010,996,1502,1500,1500,1000,1000,1505,1000,1000,1505,1502,1500,1505,0.4957,0.0051,-0.0878,-0.0335,-0.0145,1.0080,0.1339,0.0344,-0.1360,-0.0324,0.2204,0.0300,0.0438,0.2204,0.0300,0.0438,0.3000,0.0600,0.0002,0,-2.2635,-351.4000,-0.0060,-2.2635,-351.4000,-0.0060,22.3457,55.7347,0.0200,0.0000
-19.5803,38.1512,-6.4152,0.0829,0.1642,0.1200,0.0000,0.0000,0.0000,0.0508,-0.0841,-0.0007,996,1502,1500,1500,1000,1000,1505,1000,1000,1505,1502,1500,1505,0.2317,0.1476,-0.1837,-0.0342,-0.0107,1.0045,0.1342,0.0341,-0.1357,-0.0326,0.2204,0.0300,0.0438,0.2204,0.0300,0.0438,0.3000,0.0600,0.0002,0,-2.2635,-351.4000,-0.0060,-2.2635,-351.4000,-0.0060,22.3895,55.7711,0.0200,0.0000
-19.5567,38.1194,-6.4030,-0.0000,0.0000,0.1200,0.0000,0.0000,0.0000,0.0509,-0.0841,-0.0009,996,1502,1500,1500,1000,1000,1505,1000,1000,1505,1502,1500,1505,-0.0385,0.2401,-0.1333,-0.0323,-0.0096,1.0010,0.1341,0.0341,-0.1359,-0.0323,0.2204,0.0300,0.0438,0.2204,0.0300,0.0438,0.3000,0.0600,0.0002,0,-2.2635,-351.4000,-0.0060,-2.2635,-351.4000,-0.0060,22.4333,55.8076,0.0200,0.0000
-19.5356,38.0880,-6.3902,0.0829,0.0821,0.2400,0.0600,0.3200,0.0000,0.0512,-0.0839,0.0008,997,1503,1500,1500,1000,1000,1505,1000,1000,1505,1502,1500,1505,-0.3283,0.1265,-0.0654,-0.0345,-0.0074,1.0028,0.1359,0.0319,-0.1343,-0.0334,0.2204,0.0300,0.0438,0.2204,0.0300,0.0438,0.3000,0.0600,0.0002,0,-2.2635,-351.4000,-0.0060,-2.2635,-351.4000,-0.0060,22.4771,55.8440,0.0400,0.0100
-19.5154,38.0569,-6.3753,-0.0829,0.0821,0.1200,0.0000,0.0000,0.0000,0.0510,-0.0840,-0.0014,996,1502,1500,1500,1000,1000,1505,1000,1000,1505,1502,1500,1505,-0.4491,0.1799,0.0263,-0.0308,-0.0083,0.9999,0.1335,0.0344,-0.1363,-0.0316,0.2204,0.0300,0.0438,0.2204,0.0300,0.0438,0.3000,0.0600,0.0002,0,-2.2635,-351.4000,-0.0060,-2.2635,-351.4000,-0.0060,22.5210,55.8805,0.0200,0.0000
-19.4952,38.0262,-6.3585,0.0829,0.1642,0.1200,0.0000,0.0000,0.0000,0.0509,-0.0839,-0.0022,996,1502,1500,1500,1000,1000,1505,1000,1000,1505,1502,1500,1505,-0.4866,0.1253,0.3123,-0.0312,-0.0104,0.9986,0.1326,0.0351,-0.1370,-0.0307,0.2204,0.0300,0.0438,0.2204,0.0300,0.0438,0.3000,0.0600,0.0002,0,-2.2635,-351.4000,-0.0060,-2.2635,-351.4000,-0.0060,22.5648,55.9169,0.0200,0.0000
-19.4741,37.9964,-6.3406,0.0829,0.0821,0.1200,0.0000,0.0000,0.0000,0.0509,-0.0839,-0.0024,996,1502,1500,1500,1000,1000,1505,1000,1000,1505,1502,1500,1505,-0.4463,0.2967,0.3648,-0.0296,-0.0137,1.0034,0.1323,0.0354,-0.1372,-0.0306,0.2204,0.0300,0.0438,0.2204,0.0300,0.0438,0.3000,0.0600,0.0002,0,-2.2635,-351.4000,-0.0060,-2.2635,-351.4000,-0.0060,22.6086,55.9533,0.0200,0.0000
-19.4511,37.9675,-6.3221,-0.0000,0.0821,0.1200,0.0000,0.0000,0.0000,0.0507,-0.0838,-0.0026,996,1502,1500,1500,1000,1000,1505,1000,1000,1505,1502,1500,1505,-0.1730,0.2787,0.4151,-0.0311,-0.0193,1.0044,0.1320,0.0356,-0.1371,-0.0305,0.2204,0.0300,0.0438,0.2204,0.0300,0.0438,0.3000,0.0600,0.0002,0,-2.2635,-351.4000,-0.0060,-2.2635,-351.4000,-0.0060,22.6524,55.9897,0.0200,0.0000
-19.4262,37.9384,-6.3047,0.0829,0.1642,0.1200,0.0000,0.0000,0.0000,0.0506,-0.0837,-0.0020,996,1502,1500,1500,1000,1000,1505,1000,1000,1505,1502,1500,1505,0.0372,0.2640,0.2501,-0.0312,-0.0184,1.0035,0.1323,0.0352,-0.1363,-0.0311,0.2204,0.0300,0.0438,0.2204,0.0300,0.0438,0.3000,0.0600,0.0002,0,-2.2635,-351.4000,-0.0060,-2.2635,-351.4000,-0.0060,22.6963,56.0260,0.0200,0.0000
-19.4002,37.9090,-6.2889,0.0829,0.0821,0.2400,0.0600,0.0000,0.0000,0.0507,-0.0836,-0.0017,997,1503,1500,1500,1000,1000,1505,1000,1000,1505,1502,1500,1505,0.2593,0.3544,0.1339,-0.0327,-0.0171,1.0030,0.1325,0.0346,-0.1360,-0.0312,0.2204,0.0300,0.0438,0.2204,0.0300,0.0438,0.3000,0.0600,0.0002,0,-2.2635,-351.4000,-0.0060,-2.2635,-351.4000,-0.0060,22.7402,56.0624,0.0400,0.0100
-19.3747,37.8784,-6.2759,0.0829,0.1642,0.1200,0.0000,0.0000,0.0000,0.0504,-0.0836,-0.0009,996,1502,1500,1500,1000,1000,1505,1000,1000,1505,1502,1500,1505,0.2148,0.2420,-0.1434,-0.0318,-0.0154,1.0046,0.1331,0.0341,-0.1348,-0.0324,0.2204,0.0300,0.0438,0.2204,0.0300,0.0438,0.3000,0.0600,0.0002,0,-2.2635,-351.4000,-0.0060,-2.2635,-351.4000,-0.0060,22.7841,56.0988,0.0200,0.0000
-19.3509,37.8471,-6.2644,0.0829,0.1642,0.1200,0.0000,0.0000,0.0000,0.0504,-0.0835,-0.0008,996,1502,1500,1500,1000,1000,1505,1000,1000,1505,1502,1500,1505,0.0281,0.2455,-0.1792,-0.0350,-0.0085,1.0040,0.1331,0.0339,-0.1347,-0.0323,0.2204,0.0300,0.0438,0.2204,0.0300,0.0438,0.3000,0.0600,0.0002,0,-2.2635,-351.4000,-0.0060,-2.2635,-351.4000,-0.0060,22.8281,56.1351,0.0200,0.0000
-19.3298,37.8149,-6.2526,0.0829,0.2462,0.1200,0.0000,0.0000,0.0000,0.0505,-0.0834,-0.0008,996,1502,1500,1500,1000,1000,1505,1000,1000,1505,1502,1500,1505,-0.3549,0.0657,-0.2041,-0.0361,-0.0075,1.0043,0.1331,0.0336,-0.1346,-0.0321,0.2204,0.0300,0.0438,0.2204,0.0300,0.0438,0.3000,0.0600,0.0002,0,-2.2635,-351.4000,-0.0060,-2.2635,-351.4000,-0.0060,22.8720,56.1716,0.0200,0.0000
-19.3124,37.7818,-6.2393,0.0829,0.2462,0.1200,0.0000,0.0000,0.0000,0.0507,-0.0833,-0.0012,996,1502,1500,1500,1000,1000,1505,1000,1000,1505,1502,1500,1505,-0.8539,0.0047,-0.0504,-0.0367,-0.0054,0.9993,0.1328,0.0338,-0.1352,-0.0314,0.2204,0.0300,0.0438,0.2204,0.0300,0.0438,0.3000,0.0600,0.0002,0,-2.2635,-351.4000,-0.0060,-2.2635,-351.4000,-0.0060,22.9160,56.2080,0.0200,0.0000
-19.2982,37.7482,-6.2227,0.0829,0.2462,0.1200,0.0000,0.0000,0.0000,0.0509,-0.0832,-0.0020,996,1502,1500,1500,1000,1000,1505,1000,1000,1505,1502,1500,1505,-1.3377,-0.0848,0.2009,-0.0335,-0.0047,1.0021,0.1320,0.0343,-0.1360,-0.0303,0.2204,0.0300,0.0438,0.2204,0.0300,0.0438,0.3000,0.0600,0.0002,0,-2.2635,-351.4000,-0.0060,-2.2635,-351.4000,-0.0060,22.9601,56.2444,0.0200,0.0000
-19.2874,37.7150,-6.2025,0.0829,0.1642,0.2400,0.0600,0.3200,0.0000,0.0513,-0.0829,-0.0008,997,1503,1500,1500,1000,1000,1505,1000,1000,1505,1502,1500,1505,-1.8521,-0.1905,0.4483,-0.0329,-0.0026,0.9994,0.1335,0.0323,-0.1350,-0.0308,0.2204,0.0300,0.0438,0.2204,0.0300,0.0438,0.3000,0.0600,0.0002,0,-2.2635,-351.4000,-0.0060,-2.2635,-351.4000,-0.0060,23.0041,56.2808,0.0400,0.0100
-19.2792,37.6828,-6.1796,0.0829,0.0821,0.1200,0.0000,0.0000,0.0000,0.0512,-0.0830,-0.0032,996,1502,1500,1500,1000,1000,1505,1000,1000,1505,1502,1500,1505,-2.1296,-0.0192,0.6272,-0.0344,-0.0115,1.0017,0.1310,0.0351,-0.1374,-0.0287,0.2204,0.0300,0.0438,0.2204,0.0300,0.0438,0.3000,0.0600,0.0002,0,-2.2635,-351.4000,-0.0060,-2.2635,-351.4000,-0.0060,23.0482,56.3171,0.0200,0.0000
-19.2719,37.6509,-6.1565,0.0829,0.2462,0.1200,0.0000,0.0000,0.0000,0.0511,-0.0830,-0.0034,996,1502,1500,1500,1000,1000,1505,1000,1000,1505,1502,1500,1505,-2.0677,-0.0665,0.6885,-0.0326,-0.0176,1.0011,0.1307,0.0352,-0.1375,-0.0284,0.2204,0.0300,0.0438,0.2204,0.0300,0.0438,0.3000,0.0600,0.0002,0,-2.2635,-351.4000,-0.0060,-2.2635,-351.4000,-0.0060,23.0922,56.3535,0.0200,0.0000
-19.2629,37.6193,-6.1330,0.0829,0.2462,0.1200,0.0000,0.0000,0.0000,0.0510,-0.0829,-0.0033,996,1502,1500,1500,1000,1000,1505,1000,1000,1505,1502,1500,1505,-1.7540,-0.0390,0.6664,-0.0351,-0.0208,1.0021,0.1306,0.0352,-0.1372,-0.0286,0.2204,0.0300,0.0438,0.2204,0.0300,0.0438,0.3000,0.0600,0.0002,0,-2.2635,-351.4000,-0.0060,-2.2635,-351.4000,-0.0060,23.1363,56.3899,0.0200,0.0000
-19.2509,37.5870,-6.1115,0.0829,0.1642,0.1200,0.0000,0.0000,0.0000,0.0508,-0.0828,-0.0023,996,1502,1500,1500,1000,1000,1505,1000,1000,1505,1502,1500,1505,-1.2984,-0.0849,0.3603,-0.0319,-0.0234,1.0053,0.1312,0.0344,-0.1359,-0.0297,0.2204,0.0300,0.0438,0.2204,0.0300,0.0438,0.3000,0.0600,0.0002,0,-2.2635,-351.4000,-0.0060,-2.2635,-351.4000,-0.0060,23.1803,56.4262,0.0200,0.0000
-19.2359,37.5534,-6.0933,0.1657,0.2462,0.1200,0.0000,0.0000,0.0000,0.0505,-0.0827,-0.0021,996,1502,1500,1500,1000,1000,1505,1000,1000,1505,1502,1500,1505,-0.8196,-0.1221,0.2692,-0.0360,-0.0229,1.0014,0.1311,0.0343,-0.1354,-0.0301,0.2204,0.0300,0.0438,0.2204,0.0300,0.0438,0.3000,0.0600,0.0002,0,-2.2635,-351.4000,-0.0060,-2.2635,-351.4000,-0.0060,23.2244,56.4625,0.0200,0.0000
-19.2163,37.5196,-6.0768,-0.0829,0.0000,0.2400,0.0600,0.3200,0.0000,0.0505,-0.0825,0.0006,997,1503,1500,1500,1000,1000,1505,1000,1000,1505,1502,1500,1505,-0.2725,-0.0589,-0.0116,-0.0350,-0.0220,1.0046,0.1337,0.0314,-0.1324,-0.0327,0.2204,0.0300,0.0438,0.2204,0.0300,0.0438,0.3000,0.0600,0.0002,0,-2.2635,-351.4000,-0.0060,-2.2635,-351.4000,-0.0060,23.2685,56.4988,0.0400,0.0100
-19.1936,37.4850,-6.0634,-0.0000,0.1642,0.1200,0.0000,0.0000,0.0000,0.0500,-0.0826,-0.0008,996,1502,1500,1500,1000,1000,1505,1000,1000,1505,1502,1500,1505,0.0996,-0.0233,-0.1718,-0.0324,-0.0173,1.0069,0.1319,0.0333,-0.1334,-0.0318,0.2204,0.0300,0.0438,0.2204,0.0300,0.0438,0.3000,0.0600,0.0002,0,-2.2635,-351.4000,-0.0060,-2.2635,-351.4000,-0.0060,23.3127,56.5351,0.0200,0.0000
-19.1697,37.4514,-6.0527,-0.0000,0.0821,0.1200,0.0000,0.0000,0.0000,0.0499,-0.0826,-0.0004,996,1502,1500,1500,1000,1000,1505,1000,1000,1505,1502,1500,1505,0.3497,0.1248,-0.3239,-0.0298,-0.0148,1.0074,0.1321,0.0331,-0.1328,-0.0324,0.2204,0.0300,0.0438,0.2204,0.0300,0.0438,0.3000,0.0600,0.0002,0,-2.2635,-351.4000,-0.0060,-2.2635,-351.4000,-0.0060,23.3568,56.5714,0.0200,0.0000
-19.1450,37.4183,-6.0424,0.0829,0.1642,0.1200,0.0000,0.0000,0.0000,0.0498,-0.0825,-0.0006,996,1502,1500,1500,1000,1000,1505,1000,1000,1505,1502,1500,1505,0.3269,0.1046,-0.2542,-0.0330,-0.0117,1.0022,0.1317,0.0333,-0.1329,-0.0321,0.2204,0.0300,0.0438,0.2204,0.0300,0.0438,0.3000,0.0600,0.0002,0,-2.2635,-351.4000,-0.0060,-2.2635,-351.4000,-0.0060,23.4009,56.6076,0.0200,0.0000
-19.1181,37.3851,-6.0298,0.1657,0.0821,0.1200,0.0000,0.0000,0.0000,0.0497,-0.0824,-0.0012,996,1502,1500,1500,1000,1000,1505,1000,1000,1505,1502,1500,1505,0.3730,0.0643,-0.0514,-0.0345,-0.0118,1.0021,0.1310,0.0339,-0.1333,-0.0315,0.2204,0.0300,0.0438,0.2204,0.0300,0.0438,0.3000,0.0600,0.0002,0,-2.2635,-351.4000,-0.0060,-2.2635,-351.4000,-0.0060,23.4451,56.6439,0.0200,0.0000
-19.0896,37.3529,-6.0150,0.0829,0.1642,0.1200,0.0000,0.0000,0.0000,0.0496,-0.0824,-0.0019,996,1502,1500,1500,1000,1000,1505,1000,1000,1505,1502,1500,1505,0.4463,0.0744,0.1772,-0.0340,-0.0138,1.0021,0.1301,0.0346,-0.1339,-0.0309,0.2204,0.0300,0.0438,0.2204,0.0300,0.0438,0.3000,0.0600,0.0002,0,-2.2635,-351.4000,-0.0060,-2.2635,-351.4000,-0.0060,23.4893,56.6801,0.0200,0.0000
-19.0594,37.3203,-5.9985,-0.0000,0.2462,0.2400,0.0600,0.3200,0.0000,0.0498,-0.0821,0.0001,997,1503,1500,1500,1000,1000,1505,1000,1000,1505,1502,1500,1505,0.5058,-0.0033,0.1784,-0.0371,-0.0131,1.0039,0.1320,0.0322,-0.1319,-0.0324,0.2204,0.0300,0.0438,0.2204,0.0300,0.0438,0.3000,0.0600,0.0002,0,-2.2635,-351.4000,-0.0060,-2.2635,-351.4000,-0.0060,23.5335,56.7163,0.0400,0.0100
-19.0274,37.2877,-5.9809,0.0829,0.1642,0.1200,0.0000,0.0000,0.0000,0.0494,-0.0822,-0.0023,996,1502,1500,1500,1000,1000,1505,1000,1000,1505,1502,1500,1505,0.7062,0.0052,0.3069,-0.0325,-0.0201,1.0023,0.1293,0.0351,-0.1339,-0.0305,0.2204,0.0300,0.0438,0.2204,0.0300,0.0438,0.3000,0.0600,0.0002,0,-2.2635,-351.4000,-0.0060,-2.2635,-351.4000,-0.0060,23.5777,56.7526,0.0200,0.0000
-18.9937,37.2548,-5.9635,0.0829,0.2462,0.1200,0.0000,0.0000,0.0000,0.0492,-0.0821,-0.0018,996,1502,1500,1500,1000,1000,1505,1000,1000,1505,1502,1500,1505,0.9325,-0.0439,0.1741,-0.0330,-0.0186,1.0034,0.1295,0.0347,-0.1331,-0.0311,0.2204,0.0300,0.0438,0.2204,0.0300,0.0438,0.3000,0.0600,0.0002,0,-2.2635,-351.4000,-0.0060,-2.2635,-351.4000,-0.0060,23.6219,56.7888,0.0200,0.0000
-18.9594,37.2212,-5.9478,0.0829,0.2462,0.1200,0.0000,0.0000,0.0000,0.0491,-0.0820,-0.0017,996,1502,1500,1500,1000,1000,1505,1000,1000,1505,1502,1500,1505,0.9924,-0.0833,0.0893,-0.0299,-0.0171,1.0047,0.1295,0.0345,-0.1328,-0.0312,0.2204,0.0300,0.0438,0.2204,0.0300,0.0438,0.3000,0.0600,0.0002,0,-2.2635,-351.4000,-0.0060,-2.2635,-351.4000,-0.0060,23.6662,56.8250,0.0200,0.0000
-18.9257,37.1868,-5.9336,0.0829,0.2462,0.1200,0.0000,0.0000,0.0000,0.0490,-0.0819,-0.0008,996,1502,1500,1500,1000,1000,1505,1000,1000,1505,1502,1500,1505,0.9962,-0.0899,-0.1511,-0.0335,-0.0134,1.0023,0.1302,0.0337,-0.1318,-0.0321,0.2204,0.0300,0.0438,0.2204,0.0300,0.0438,0.3000,0.0600,0.0002,0,-2.2635,-351.4000,-0.0060,-2.2635,-351.4000,-0.0060,23.7104,56.8613,0.0200,0.0000
-18.8934,37.1512,-5.9217,0.0829,0.0821,0.1200,0.0000,0.0000,0.0000,0.0490,-0.0818,-0.0005,996,1502,1500,1500,1000,1000,1505,1000,1000,1505,1502,1500,1505,0.8904,-0.1540,-0.2667,-0.0318,-0.0102,1.0039,0.1303,0.0333,-0.1314,-0.0323,0.2204,0.0300,0.0438,0.2204,0.0300,0.0438,0.3000,0.0600,0.0002,0,-2.2635,-351.4000,-0.0060,-2.2635,-351.4000,-0.0060,23.7547,56.8975,0.0200,0.0000
-18.8626,37.1142,-5.9101,0.0829,0.1642,0.2400,0.0600,0.0000,0.0000,0.0493,-0.0815,-0.0004,997,1503,1500,1500,1000,1000,1505,1000,1000,1505,1502,1500,1505,0.6987,-0.3004,-0.3227,-0.0360,-0.0110,1.0028,0.1304,0.0326,-0.1312,-0.0318,0.2204,0.0300,0.0438,0.2204,0.0300,0.0438,0.3000,0.0600,0.0002,0,-2.2635,-351.4000,-0.0060,-2.2635,-351.4000,-0.0060,23.7990,56.9337,0.0400,0.0100
-18.8327,37.0761,-5.8974,0.0829,0.1642,0.1200,0.0000,0.0000,0.0000,0.0490,-0.0816,-0.0006,996,1502,1500,1500,1000,1000,1505,1000,1000,1505,1502,1500,1505,0.6542,-0.3720,-0.2329,-0.0313,-0.0107,1.0050,0.1299,0.0332,-0.1311,-0.0320,0.2204,0.0300,0.0438,0.2204,0.0300,0.0438,0.3000,0.0600,0.0002,0,-2.2635,-351.4000,-0.0060,-2.2635,-351.4000,-0.0060,23.8433,56.9699,0.0200,0.0000
-18.8025,37.0387,-5.8827,0.0829,0.0821,0.1200,0.0000,0.0000,0.0000,0.0490,-0.0815,-0.0013,996,1502,1500,1500,1000,1000,1505,1000,1000,1505,1502,1500,1505,0.5592,-0.3517,-0.0197,-0.0307,-0.0131,1.0043,0.1292,0.0338,-0.1317,-0.0313,0.2204,0.0300,0.0438,0.2204,0.0300,0.0438,0.3000,0.0600,0.0002,0,-2.2635,-351.4000,-0.0060,-2.2635,-351.4000,-0.0060,23.8876,57.0061,0.0200,0.0000
-18.7710,37.0020,-5.8662,0.0829,0.1642,0.1200,0.0000,0.0000,0.0000,0.0489,-0.0814,-0.0017,996,1502,1500,1500,1000,1000,1505,1000,1000,1505,1502,1500,1505,0.5854,-0.2581,0.1235,-0.0315,-0.0088,1.0038,0.1286,0.0343,-0.1320,-0.0309,0.2204,0.0300,0.0438,0.2204,0.0300,0.0438,0.3000,0.0600,0.0002,0,-2.2635,-351.4000,-0.0060,-2.2635,-351.4000,-0.0060,23.9319,57.0423,0.0200,0.0000
-18.7386,36.9677,-5.8490,0.0829,0.2462,0.1200,0.0000,0.0000,0.0000,0.0488,-0.0814,-0.0019,996,1502,1500,1500,1000,1000,1505,1000,1000,1505,1502,1500,1505,0.6898,-0.0737,0.1916,-0.0311,-0.0122,1.0011,0.1283,0.0346,-0.1321,-0.0308,0.2204,0.0300,0.0438,0.2204,0.0300,0.0438,0.3000,0.0600,0.0002,0,-2.2635,-351.4000,-0.0060,-2.2635,-351.4000,-0.0060,23.9763,57.0784,0.0200,0.0000
-18.7050,36.9342,-5.8317,0.0829,0.1642,0.1200,0.0000,0.0000,0.0000,0.0486,-0.0814,-0.0019,996,1502,1500,1500,1000,1000,1505,1000,1000,1505,1502,1500,1505,0.8269,0.0081,0.1983,-0.0342,-0.0174,1.0077,0.1281,0.0347,-0.1319,-0.0309,0.2204,0.0300,0.0438,0.2204,0.0300,0.0438,0.3000,0.0600,0.0002,0,-2.2635,-351.4000,-0.0060,-2.2635,-351.4000,-0.0060,24.0207,57.1147,0.0200,0.0000
-18.6704,36.9002,-5.8149,-0.0000,0.2462,0.2400,0.0600,0.0000,0.0000,0.0488,-0.0811,-0.0018,997,1503,1500,1500,1000,1000,1505,1000,1000,1505,1502,1500,1505,0.9223,-0.1606,0.1805,-0.0361,-0.0195,1.0021,0.1281,0.0342,-0.1317,-0.0305,0.2204,0.0300,0.0438,0.2204,0.0300,0.0438,0.3000,0.0600,0.0002,0,-2.2635,-351.4000,-0.0060,-2.2635,-351.4000,-0.0060,24.0652,57.1509,0.0400,0.0100
-18.6362,36.8642,-5.7997,0.1657,0.1642,0.1200,0.0000,0.0000,0.0000,0.0484,-0.0811,-0.0009,996,1502,1500,1500,1000,1000,1505,1000,1000,1505,1502,1500,1505,0.9928,-0.2606,-0.1271,-0.0352,-0.0152,1.0073,0.1286,0.0337,-0.1305,-0.0318,0.2204,0.0300,0.0438,0.2204,0.0300,0.0438,0.3000,0.0600,0.0002,0,-2.2635,-351.4000,-0.0060,-2.2635,-351.4000,-0.0060,24.1097,57.1872,0.0200,0.0000
-18.6031,36.8275,-5.7865,0.0829,0.0821,0.1200,0.0000,0.0000,0.0000,0.0484,-0.0811,-0.0007,996,1502,1500,1500,1000,1000,1505,1000,1000,1505,1502,1500,1505,0.9361,-0.2573,-0.2158,-0.0314,-0.0119,1.0059,0.1287,0.0334,-0.1301,-0.0320,0.2204,0.0300,0.0438,0.2204,0.0300,0.0438,0.3000,0.0600,0.0002,0,-2.2635,-351.4000,-0.0060,-2.2635,-351.4000,-0.0060,24.1542,57.2234,0.0200,0.0000
-18.5707,36.7898,-5.7741,-0.0000,0.0821,0.1200,0.0000,0.0000,0.0000,0.0483,-0.0809,-0.0004,996,1502,1500,1500,1000,1000,1505,1000,1000,1505,1502,1500,1505,1.0005,-0.3681,-0.2796,-0.0324,-0.0122,1.0023,0.1287,0.0331,-0.1296,-0.0322,0.2204,0.0300,0.0438,0.2204,0.0300,0.0438,0.3000,0.0600,0.0002,0,-2.2635,-351.4000,-0.0060,-2.2635,-351.4000,-0.0060,24.1986,57.2596,0.0200,0.0000
-18.5381,36.7520,-5.7626,0.0829,0.0821,0.1200,0.0000,0.0000,0.0000,0.0482,-0.0809,-0.0004,996,1502,1500,1500,1000,1000,1505,1000,1000,1505,1502,1500,1505,1.0144,-0.2380,-0.3116,-0.0317,-0.0091,1.0022,0.1287,0.0331,-0.1295,-0.0323,0.2204,0.0300,0.0438,0.2204,0.0300,0.0438,0.3000,0.0600,0.0002,0,-2.2635,-351.4000,-0.0060,-2.2635,-351.4000,-0.0060,24.2431,57.2957,0.0200,0.0000
-18.5046,36.7154,-5.7510,-0.0000,0.0821,0.1200,0.0000,0.0000,0.0000,0.0481,-0.0809,-0.0007,996,1502,1500,1500,1000,1000,1505,1000,1000,1505,1502,1500,1505,1.0887,-0.1589,-0.2147,-0.0332,-0.0118,1.0011,0.1282,0.0335,-0.1296,-0.0321,0.2204,0.0300,0.0438,0.2204,0.0300,0.0438,0.3000,0.0600,0.0002,0,-2.2635,-351.4000,-0.0060,-2.2635,-351.4000,-0.0060,24.2875,57.3319,0.0200,0.0000
-18.4697,36.6806,-5.7378,0.0829,0.1642,0.2400,0.0600,0.3200,0.0000,0.0482,-0.0807,0.0006,997,1503,1500,1500,1000,1000,1505,1000,1000,1505,1502,1500,1505,1.1584,-0.0370,0.0033,-0.0343,-0.0111,1.0036,0.1295,0.0319,-0.1283,-0.0331,0.2204,0.0300,0.0438,0.2204,0.0300,0.0438,0.3000,0.0600,0.0002,0,-2.2635,-351.4000,-0.0060,-2.2635,-351.4000,-0.0060,24.3320,57.3679,0.0400,0.0100
-18.4329,36.6467,-5.7232,-0.0829,0.1642,0.1200,0.0000,0.0000,0.0000,0.0479,-0.0807,-0.0016,996,1502,1500,1500,1000,1000,1505,1000,1000,1505,1502,1500,1505,1.2328,-0.0640,0.0909,-0.0324,-0.0103,0.9999,0.1270,0.0345,-0.1302,-0.0313,0.2204,0.0300,0.0438,0.2204,0.0300,0.0438,0.3000,0.0600,0.0002,0,-2.2635,-351.4000,-0.0060,-2.2635,-351.4000,-0.0060,24.3765,57.4040,0.0200,0.0000
-18.3953,36.6126,-5.7078,0.0829,0.2462,0.1200,0.0000,0.0000,0.0000,0.0478,-0.0807,-0.0014,996,1502,1500,1500,1000,1000,1505,1000,1000,1505,1502,1500,1505,1.2094,-0.0243,0.0333,-0.0350,-0.0104,1.0023,0.1271,0.0343,-0.1299,-0.0315,0.2204,0.0300,0.0438,0.2204,0.0300,0.0438,0.3000,0.0600,0.0002,0,-2.2635,-351.4000,-0.0060,-2.2635,-351.4000,-0.0060,24.4211,57.4401,0.0200,0.0000
-18.3593,36.5784,-5.6923,0.0829,0.1642,0.1200,0.0000,0.0000,0.0000,0.0478,-0.0806,-0.0014,996,1502,1500,1500,1000,1000,1505,1000,1000,1505,1502,1500,1505,1.0181,-0.1185,0.0499,-0.0309,-0.0116,1.0080,0.1269,0.0342,-0.1298,-0.0314,0.2204,0.0300,0.0438,0.2204,0.0300,0.0438,0.3000,0.0600,0.0002,0,-2.2635,-351.4000,-0.0060,-2.2635,-351.4000,-0.0060,24.4656,57.4762,0.0200,0.0000
-18.3266,36.5432,-5.6776,0.0829,0.3283,0.1200,0.0000,0.0000,0.0000,0.0479,-0.0805,-0.0011,996,1502,1500,1500,1000,1000,1505,1000,1000,1505,1502,1500,1505,0.6981,-0.0841,-0.0433,-0.0337,-0.0125,1.0005,0.1272,0.0338,-0.1295,-0.0315,0.2204,0.0300,0.0438,0.2204,0.0300,0.0438,0.3000,0.0600,0.0002,0,-2.2635,-351.4000,-0.0060,-2.2635,-351.4000,-0.0060,24.5101,57.5123,0.0200,0.0000
-18.2971,36.5078,-5.6638,0.0829,0.2462,0.1200,0.0000,0.0000,0.0000,0.0479,-0.0804,-0.0011,996,1502,1500,1500,1000,1000,1505,1000,1000,1505,1502,1500,1505,0.4252,-0.0888,-0.0706,-0.0300,-0.0081,1.0055,0.1272,0.0336,-0.1294,-0.0314,0.2204,0.0300,0.0438,0.2204,0.0300,0.0438,0.3000,0.0600,0.0002,0,-2.2635,-351.4000,-0.0060,-2.2635,-351.4000,-0.0060,24.5547,57.5484,0.0200,0.0000
-18.2702,36.4721,-5.6507,0.0829,0.1642,0.2400,0.0600,0.3200,0.0000,0.0482,-0.0802,0.0010,997,1503,1500,1500,1000,1000,1505,1000,1000,1505,1502,1500,1505,0.3306,-0.1154,-0.1135,-0.0291,-0.0076,1.0013,0.1293,0.0311,-0.1274,-0.0330,0.2204,0.0300,0.0438,0.2204,0.0300,0.0438,0.3000,0.0600,0.0002,0,-2.2635,-351.4000,-0.0060,-2.2635,-351.4000,-0.0060,24.5992,57.5844,0.0400,0.0100
-18.2443,36.4373,-5.6376,0.0829,0.1642,0.1200,0.0000,0.0000,0.0000,0.0479,-0.0803,-0.0011,996,1502,1500,1500,1000,1000,1505,1000,1000,1505,1502,1500,1505,0.2717,-0.0430,-0.0773,-0.0328,-0.0083,0.9980,0.1270,0.0336,-0.1293,-0.0313,0.2204,0.0300,0.0438,0.2204,0.0300,0.0438,0.3000,0.0600,0.0002,0,-2.2635,-351.4000,-0.0060,-2.2635,-351.4000,-0.0060,24.6439,57.6205,0.0200,0.0000
-18.2175,36.4032,-5.6240,0.0829,0.0821,0.1200,0.0000,0.0000,0.0000,0.0478,-0.0802,-0.0013,996,1502,1500,1500,1000,1000,1505,1000,1000,1505,1502,1500,1505,0.3039,-0.0081,-0.0230,-0.0329,-0.0073,0.9993,0.1267,0.0337,-0.1293,-0.0312,0.2204,0.0300,0.0438,0.2204,0.0300,0.0438,0.3000,0.0600,0.0002,0,-2.2635,-351.4000,-0.0060,-2.2635,-351.4000,-0.0060,24.6885,57.6566,0.0200,0.0000
-18.1899,36.3704,-5.6087,0.0829,0.2462,0.1200,0.0000,0.0000,0.0000,0.0477,-0.0802,-0.0020,996,1502,1500,1500,1000,1000,1505,1000,1000,1505,1502,1500,1505,0.3447,0.0051,0.2243,-0.0333,-0.0090,1.0037,0.1259,0.0344,-0.1298,-0.0305,0.2204,0.0300,0.0438,0.2204,0.0300,0.0438,0.3000,0.0600,0.0002,0,-2.2635,-351.4000,-0.0060,-2.2635,-351.4000,-0.0060,24.7332,57.6926,0.0200,0.0000
-18.1604,36.3371,-5.5921,0.0829,0.2462,0.1200,0.0000,0.0000,0.0000,0.0476,-0.0801,-0.0021,996,1502,1500,1500,1000,1000,1505,1000,1000,1505,1502,1500,1505,0.3946,-0.0119,0.2622,-0.0320,-0.0104,1.0065,0.1256,0.0346,-0.1298,-0.0303,0.2204,0.0300,0.0438,0.2204,0.0300,0.0438,0.3000,0.0600,0.0002,0,-2.2635,-351.4000,-0.0060,-2.2635,-351.4000,-0.0060,24.7778,57.7287,0.0200,0.0000
-18.1317,36.3037,-5.5755,0.0829,0.1642,0.1200,0.0000,0.0000,0.0000,0.0476,-0.0800,-0.0020,996,1502,1500,1500,1000,1000,1505,1000,1000,1505,1502,1500,1505,0.2596,0.0502,0.2129,-0.0335,-0.0086,1.0048,0.1257,0.0344,-0.1296,-0.0304,0.2204,0.0300,0.0438,0.2204,0.0300,0.0438,0.3000,0.0600,0.0002,0,-2.2635,-351.4000,-0.0060,-2.2635,-351.4000,-0.0060,24.8225,57.7648,0.0200,0.0000
-18.1053,36.2707,-5.5599,-0.0000,0.1642,0.2400,0.0600,0.3200,0.0000,0.0479,-0.0798,0.0005,997,1503,1500,1500,1000,1000,1505,1000,1000,1505,1502,1500,1505,0.1323,0.0918,0.0324,-0.0314,-0.0086,1.0035,0.1282,0.0315,-0.1272,-0.0325,0.2204,0.0300,0.0438,0.2204,0.0300,0.0438,0.3000,0.0600,0.0002,0,-2.2635,-351.4000,-0.0060,-2.2635,-351.4000,-0.0060,24.8672,57.8008,0.0400,0.0100
-18.0818,36.2370,-5.5463,0.0829,0.1642,0.1200,0.0000,0.0000,0.0000,0.0477,-0.0799,-0.0012,996,1502,1500,1500,1000,1000,1505,1000,1000,1505,1502,1500,1505,-0.1059,0.0121,-0.0556,-0.0320,-0.0105,1.0023,0.1264,0.0334,-0.1287,-0.0311,0.2204,0.0300,0.0438,0.2204,0.0300,0.0438,0.3000,0.0600,0.0002,0,-2.2635,-351.4000,-0.0060,-2.2635,-351.4000,-0.0060,24.9119,57.8369,0.0200,0.0000
-18.0605,36.2027,-5.5331,0.0829,0.0821,0.1200,0.0000,0.0000,0.0000,0.0477,-0.0798,-0.0011,996,1502,1500,1500,1000,1000,1505,1000,1000,1505,1502,1500,1505,-0.1934,0.0571,-0.0646,-0.0308,-0.0086,1.0027,0.1264,0.0333,-0.1286,-0.0310,0.2204,0.0300,0.0438,0.2204,0.0300,0.0438,0.3000,0.0600,0.0002,0,-2.2635,-351.4000,-0.0060,-2.2635,-351.4000,-0.0060,24.9567,57.8730,0.0200,0.0000
-18.0393,36.1694,-5.5194,0.1657,0.2462,0.1200,0.0000,0.0000,0.0000,0.0477,-0.0797,-0.0014,996,1502,1500,1500,1000,1000,1505,1000,1000,1505,1502,1500,1505,-0.3098,0.0151,0.0344,-0.0314,-0.0059,1.0023,0.1260,0.0335,-0.1288,-0.0307,0.2204,0.0300,0.0438,0.2204,0.0300,0.0438,0.3000,0.0600,0.0002,0,-2.2635,-351.4000,-0.0060,-2.2635,-351.4000,-0.0060,25.0015,57.9090,0.0200,0.0000
-18.0174,36.1361,-5.5050,-0.0000,0.0000,0.1200,0.0000,0.0000,0.0000,0.0475,-0.0797,-0.0015,996,1502,1500,1500,1000,1000,1505,1000,1000,1505,1502,1500,1505,-0.1603,0.0569,0.0489,-0.0353,-0.0102,1.0063,0.1257,0.0336,-0.1287,-0.0307,0.2204,0.0300,0.0438,0.2204,0.0300,0.0438,0.3000,0.0600,0.0002,0,-2.2635,-351.4000,-0.0060,-2.2635,-351.4000,-0.0060,25.0462,57.9450,0.0200,0.0000
-17.9939,36.1025,-5.4898,0.0829,0.1642,0.1200,0.0000,0.0000,0.0000,0.0474,-0.0796,-0.0020,996,1502,1500,1500,1000,1000,1505,1000,1000,1505,1502,1500,1505,-0.0230,0.0012,0.2058,-0.0298,-0.0101,0.9967,0.1250,0.0341,-0.1290,-0.0302,0.2204,0.0300,0.0438,0.2204,0.0300,0.0438,0.3000,0.0600,0.0002,0,-2.2635,-351.4000,-0.0060,-2.2635,-351.4000,-0.0060,25.0910,57.9810,0.0200,0.0000
-17.9680,36.0690,-5.4729,-0.0000,0.0821,0.2400,0.0600,0.0000,0.0000,0.0476,-0.0793,-0.0021,997,1503,1500,1500,1000,1000,1505,1000,1000,1505,1502,1500,1505,0.0897,-0.0778,0.2598,-0.0348,-0.0132,1.0061,0.1248,0.0338,-0.1290,-0.0296,0.2204,0.0300,0.0438,0.2204,0.0300,0.0438,0.3000,0.0600,0.0002,0,-2.2635,-351.4000,-0.0060,-2.2635,-351.4000,-0.0060,25.1358,58.0171,0.0400,0.0100
-17.9409,36.0354,-5.4560,0.0829,0.2462,0.1200,0.0000,0.0000,0.0000,0.0472,-0.0794,-0.0020,996,1502,1500,1500,1000,1000,1505,1000,1000,1505,1502,1500,1505,0.1583,-0.0237,0.2134,-0.0318,-0.0122,1.0053,0.1247,0.0341,-0.1286,-0.0302,0.2204,0.0300,0.0438,0.2204,0.0300,0.0438,0.3000,0.0600,0.0002,0,-2.2635,-351.4000,-0.0060,-2.2635,-351.4000,-0.0060,25.1807,58.0532,0.0200,0.0000
-17.9139,36.0016,-5.4400,0.0829,0.2462,0.1200,0.0000,0.0000,0.0000,0.0472,-0.0794,-0.0017,996,1502,1500,1500,1000,1000,1505,1000,1000,1505,1502,1500,1505,0.2010,0.0359,0.1275,-0.0315,-0.0098,1.0050,0.1248,0.0339,-0.1282,-0.0305,0.2204,0.0300,0.0438,0.2204,0.0300,0.0438,0.3000,0.0600,0.0002,0,-2.2635,-351.4000,-0.0060,-2.2635,-351.4000,-0.0060,25.2255,58.0892,0.0200,0.0000
-17.8888,35.9674,-5.4247,0.0829,0.2462,0.1200,0.0000,0.0000,0.0000,0.0472,-0.0792,-0.0017,996,1502,1500,1500,1000,1000,1505,1000,1000,1505,1502,1500,1505,-0.0111,-0.0756,0.1127,-0.0341,-0.0093,1.0060,0.1248,0.0337,-0.1281,-0.0304,0.2204,0.0300,0.0438,0.2204,0.0300,0.0438,0.3000,0.0600,0.0002,0,-2.2635,-351.4000,-0.0060,-2.2635,-351.4000,-0.0060,25.2705,58.1253,0.0200,0.0000
-17.8655,35.9329,-5.4099,0.0829,0.1642,0.1200,0.0000,0.0000,0.0000,0.0472,-0.0792,-0.0014,996,1502,1500,1500,1000,1000,1505,1000,1000,1505,1502,1500,1505,-0.1910,-0.0625,0.0124,-0.0344,-0.0084,1.0030,0.1250,0.0333,-0.1278,-0.0306,0.2204,0.0300,0.0438,0.2204,0.0300,0.0438,0.3000,0.0600,0.0002,0,-2.2635,-351.4000,-0.0060,-2.2635,-351.4000,-0.0060,25.3154,58.1613,0.0200,0.0000
-17.8454,35.8978,-5.3959,0.0829,0.0821,0.1200,0.0000,0.0000,0.0000,0.0473,-0.0791,-0.0010,996,1502,1500,1500,1000,1000,1505,1000,1000,1505,1502,1500,1505,-0.5069,-0.1132,-0.0946,-0.0327,-0.0071,0.9952,0.1254,0.0328,-0.1274,-0.0307,0.2204,0.0300,0.0438,0.2204,0.0300,0.0438,0.3000,0.0600,0.0002,0,-2.2635,-351.4000,-0.0060,-2.2635,-351.4000,-0.0060,25.3603,58.1973,0.0200,0.0000
-17.8286,35.8628,-5.3826,0.0829,0.0821,0.2400,0.0600,0.0000,0.0000,0.0476,-0.0789,-0.0013,997,1503,1500,1500,1000,1000,1505,1000,1000,1505,1502,1500,1505,-0.6409,-0.0213,-0.0201,-0.0338,-0.0079,1.0008,0.1252,0.0326,-0.1278,-0.0300,0.2204,0.0300,0.0438,0.2204,0.0300,0.0438,0.3000,0.0600,0.0002,0,-2.2635,-351.4000,-0.0060,-2.2635,-351.4000,-0.0060,25.4051,58.2332,0.0400,0.0100
-17.8115,35.8284,-5.3677,0.1657,0.1642,0.1200,0.0000,0.0000,0.0000,0.0473,-0.0789,-0.0018,996,1502,1500,1500,1000,1000,1505,1000,1000,1505,1502,1500,1505,-0.6813,-0.0390,0.1642,-0.0333,-0.0086,1.0056,0.1244,0.0335,-0.1281,-0.0298,0.2204,0.0300,0.0438,0.2204,0.0300,0.0438,0.3000,0.0600,0.0002,0,-2.2635,-351.4000,-0.0060,-2.2635,-351.4000,-0.0060,25.4500,58.2691,0.0200,0.0000
-17.7930,35.7939,-5.3510,-0.0000,0.2462,0.1200,0.0000,0.0000,0.0000,0.0472,-0.0789,-0.0019,996,1502,1500,1500,1000,1000,1505,1000,1000,1505,1502,1500,1505,-0.5807,-0.0809,0.2080,-0.0288,-0.0127,1.0047,0.1242,0.0335,-0.1280,-0.0297,0.2204,0.0300,0.0438,0.2204,0.0300,0.0438,0.3000,0.0600,0.0002,0,-2.2635,-351.4000,-0.0060,-2.2635,-351.4000,-0.0060,25.4949,58.3050,0.0200,0.0000
-17.7727,35.7601,-5.3338,0.0829,0.1642,0.1200,0.0000,0.0000,0.0000,0.0471,-0.0788,-0.0024,996,1502,1500,1500,1000,1000,1505,1000,1000,1505,1502,1500,1505,-0.4448,-0.0700,0.3366,-0.0329,-0.0115,0.9999,0.1236,0.0340,-0.1283,-0.0293,0.2204,0.0300,0.0438,0.2204,0.0300,0.0438,0.3000,0.0600,0.0002,0,-2.2635,-351.4000,-0.0060,-2.2635,-351.4000,-0.0060,25.5398,58.3409,0.0200,0.0000
-17.7505,35.7264,-5.3162,0.0829,0.0821,0.1200,0.0000,0.0000,0.0000,0.0470,-0.0787,-0.0021,996,1502,1500,1500,1000,1000,1505,1000,1000,1505,1502,1500,1505,-0.2418,-0.0003,0.2573,-0.0325,-0.0157,1.0048,0.1236,0.0339,-0.1279,-0.0296,0.2204,0.0300,0.0438,0.2204,0.0300,0.0438,0.3000,0.0600,0.0002,0,-2.2635,-351.4000,-0.0060,-2.2635,-351.4000,-0.0060,25.5848,58.3768,0.0200,0.0000
-17.7270,35.6918,-5.2989,0.0829,0.0821,0.1200,0.0000,0.0000,0.0000,0.0469,-0.0786,-0.0020,996,1502,1500,1500,1000,1000,1505,1000,1000,1505,1502,1500,1505,-0.1706,-0.1351,0.2276,-0.0333,-0.0144,1.0035,0.1235,0.0337,-0.1275,-0.0297,0.2204,0.0300,0.0438,0.2204,0.0300,0.0438,0.3000,0.0600,0.0002,0,-2.2635,-351.4000,-0.0060,-2.2635,-351.4000,-0.0060,25.6297,58.4127,0.0200,0.0000
-17.7040,35.6564,-5.2821,0.1657,0.1642,0.2400,0.0600,0.0000,0.0000,0.0472,-0.0784,-0.0015,997,1503,1500,1500,1000,1000,1505,1000,1000,1505,1502,1500,1505,-0.2566,-0.2127,0.0803,-0.0319,-0.0096,1.0036,0.1240,0.0327,-0.1270,-0.0297,0.2204,0.0300,0.0438,0.2204,0.0300,0.0438,0.3000,0.0600,0.0002,0,-2.2635,-351.4000,-0.0060,-2.2635,-351.4000,-0.0060,25.6746,58.4487,0.0400,0.0100
-17.6830,35.6207,-5.2673,0.0829,0.2462,0.1200,0.0000,0.0000,0.0000,0.0469,-0.0785,-0.0012,996,1502,1500,1500,1000,1000,1505,1000,1000,1505,1502,1500,1505,-0.4124,-0.1272,-0.0321,-0.0318,-0.0097,1.0030,0.1242,0.0327,-0.1266,-0.0303,0.2204,0.0300,0.0438,0.2204,0.0300,0.0438,0.3000,0.0600,0.0002,0,-2.2635,-351.4000,-0.0060,-2.2635,-351.4000,-0.0060,25.7197,58.4846,0.0200,0.0000
-17.6659,35.5850,-5.2544,0.0829,0.0821,0.1200,0.0000,0.0000,0.0000,0.0470,-0.0784,-0.0011,996,1502,1500,1500,1000,1000,1505,1000,1000,1505,1502,1500,1505,-0.6834,-0.0789,-0.0540,-0.0329,-0.0060,0.9990,0.1243,0.0325,-0.1265,-0.0303,0.2204,0.0300,0.0438,0.2204,0.0300,0.0438,0.3000,0.0600,0.0002,0,-2.2635,-351.4000,-0.0060,-2.2635,-351.4000,-0.0060,25.7647,58.5206,0.0200,0.0000
-17.6515,35.5497,-5.2411,0.0829,0.2462,0.1200,0.0000,0.0000,0.0000,0.0471,-0.0783,-0.0012,996,1502,1500,1500,1000,1000,1505,1000,1000,1505,1502,1500,1505,-1.0500,-0.0974,-0.0493,-0.0323,-0.0058,1.0042,0.1243,0.0323,-0.1266,-0.0300,0.2204,0.0300,0.0438,0.2204,0.0300,0.0438,0.3000,0.0600,0.0002,0,-2.2635,-351.4000,-0.0060,-2.2635,-351.4000,-0.0060,25.8098,58.5565,0.0200,0.0000
-17.6392,35.5148,-5.2265,0.0829,0.2462,0.1200,0.0000,0.0000,0.0000,0.0472,-0.0782,-0.0019,996,1502,1500,1500,1000,1000,1505,1000,1000,1505,1502,1500,1505,-1.2151,-0.1876,0.1590,-0.0343,-0.0029,1.0075,0.1235,0.0329,-0.1272,-0.0292,0.2204,0.0300,0.0438,0.2204,0.0300,0.0438,0.3000,0.0600,0.0002,0,-2.2635,-351.4000,-0.0060,-2.2635,-351.4000,-0.0060,25.8549,58.5924,0.0200,0.0000
-17.6273,35.4801,-5.2093,-0.0000,0.0821,0.1200,0.0000,0.0000,0.0000,0.0472,-0.0781,-0.0023,996,1502,1500,1500,1000,1000,1505,1000,1000,1505,1502,1500,1505,-1.3874,-0.1188,0.3098,-0.0341,-0.0076,1.0037,0.1231,0.0332,-0.1276,-0.0286,0.2204,0.0300,0.0438,0.2204,0.0300,0.0438,0.3000,0.0600,0.0002,0,-2.2635,-351.4000,-0.0060,-2.2635,-351.4000,-0.0060,25.9000,58.6283,0.0200,0.0000
-17.6149,35.4452,-5.1893,0.0829,0.1642,0.2400,0.0600,0.3200,0.0000,0.0475,-0.0779,-0.0010,997,1503,1500,1500,1000,1000,1505,1000,1000,1505,1502,1500,1505,-1.4409,-0.2953,0.5195,-0.0331,-0.0117,1.0028,0.1244,0.0314,-0.1263,-0.0294,0.2204,0.0300,0.0438,0.2204,0.0300,0.0438,0.3000,0.0600,0.0002,0,-2.2635,-351.4000,-0.0060,-2.2635,-351.4000,-0.0060,25.9451,58.6643,0.0400,0.0100
-17.6016,35.4100,-5.1680,-0.0000,0.0821,0.1200,0.0000,0.0000,0.0000,0.0471,-0.0780,-0.0034,996,1502,1500,1500,1000,1000,1505,1000,1000,1505,1502,1500,1505,-1.3491,-0.2032,0.6496,-0.0322,-0.0161,1.0033,0.1217,0.0342,-0.1285,-0.0274,0.2204,0.0300,0.0438,0.2204,0.0300,0.0438,0.3000,0.0600,0.0002,0,-2.2635,-351.4000,-0.0060,-2.2635,-351.4000,-0.0060,25.9902,58.7002,0.0200,0.0000
-17.5867,35.3755,-5.1465,-0.0000,0.0821,0.1200,0.0000,0.0000,0.0000,0.0470,-0.0779,-0.0029,996,1502,1500,1500,1000,1000,1505,1000,1000,1505,1502,1500,1505,-1.1169,-0.1756,0.5215,-0.0330,-0.0149,1.0043,0.1220,0.0338,-0.1278,-0.0280,0.2204,0.0300,0.0438,0.2204,0.0300,0.0438,0.3000,0.0600,0.0002,0,-2.2635,-351.4000,-0.0060,-2.2635,-351.4000,-0.0060,26.0354,58.7361,0.0200,0.0000
-17.5707,35.3411,-5.1276,-0.0000,0.0821,0.1200,0.0000,0.0000,0.0000,0.0469,-0.0779,-0.0024,996,1502,1500,1500,1000,1000,1505,1000,1000,1505,1502,1500,1505,-0.8230,-0.0578,0.3311,-0.0330,-0.0208,1.0003,0.1223,0.0334,-0.1271,-0.0286,0.2204,0.0300,0.0438,0.2204,0.0300,0.0438,0.3000,0.0600,0.0002,0,-2.2635,-351.4000,-0.0060,-2.2635,-351.4000,-0.0060,26.0806,58.7720,0.0200,0.0000
-17.5530,35.3073,-5.1115,0.0829,0.2462,0.1200,0.0000,0.0000,0.0000,0.0467,-0.0778,-0.0017,996,1502,1500,1500,1000,1000,1505,1000,1000,1505,1502,1500,1505,-0.4984,0.0405,0.1254,-0.0319,-0.0199,1.0028,0.1228,0.0328,-0.1262,-0.0295,0.2204,0.0300,0.0438,0.2204,0.0300,0.0438,0.3000,0.0600,0.0002,0,-2.2635,-351.4000,-0.0060,-2.2635,-351.4000,-0.0060,26.1258,58.8079,0.0200,0.0000
-17.5342,35.2739,-5.0991,0.0829,0.1642,0.1200,0.0000,0.0000,0.0000,0.0465,-0.0778,-0.0009,996,1502,1500,1500,1000,1000,1505,1000,1000,1505,1502,1500,1505,-0.2077,0.1513,-0.1324,-0.0318,-0.0156,1.0041,0.1234,0.0322,-0.1252,-0.0304,0.2204,0.0300,0.0438,0.2204,0.0300,0.0438,0.3000,0.0600,0.0002,0,-2.2635,-351.4000,-0.0060,-2.2635,-351.4000,-0.0060,26.1710,58.8438,0.0200,0.0000
-17.5143,35.2395,-5.0889,-0.0000,0.1642,0.2400,0.0600,0.3200,0.0000,0.0467,-0.0776,0.0013,997,1503,1500,1500,1000,1000,1505,1000,1000,1505,1502,1500,1505,-0.1132,0.0579,-0.2690,-0.0329,-0.0137,1.0044,0.1256,0.0296,-0.1229,-0.0322,0.2204,0.0300,0.0438,0.2204,0.0300,0.0438,0.3000,0.0600,0.0002,0,-2.2635,-351.4000,-0.0060,-2.2635,-351.4000,-0.0060,26.2161,58.8796,0.0400,0.0100
-17.4943,35.2050,-5.0775,0.0829,0.1642,0.1200,0.0000,0.0000,0.0000,0.0464,-0.0776,-0.0010,996,1502,1500,1500,1000,1000,1505,1000,1000,1505,1502,1500,1505,-0.2665,0.0439,-0.1145,-0.0334,-0.0071,1.0016,0.1231,0.0321,-0.1250,-0.0302,0.2204,0.0300,0.0438,0.2204,0.0300,0.0438,0.3000,0.0600,0.0002,0,-2.2635,-351.4000,-0.0060,-2.2635,-351.4000,-0.0060,26.2613,58.9155,0.0200,0.0000
-17.4755,35.1707,-5.0653,0.0829,0.1642,0.1200,0.0000,0.0000,0.0000,0.0465,-0.0775,-0.0014,996,1502,1500,1500,1000,1000,1505,1000,1000,1505,1502,1500,1505,-0.4823,0.0093,-0.0184,-0.0350,-0.0052,0.9997,0.1227,0.0324,-0.1254,-0.0297,0.2204,0.0300,0.0438,0.2204,0.0300,0.0438,0.3000,0.0600,0.0002,0,-2.2635,-351.4000,-0.0060,-2.2635,-351.4000,-0.0060,26.3066,58.9513,0.0200,0.0000
-17.4584,35.1362,-5.0503,0.0829,0.0821,0.1200,0.0000,1.6000,0.0000,0.0466,-0.0774,0.0031,996,1502,1500,1505,1000,1000,1505,1000,1000,1505,1502,1500,1505,-0.8868,-0.0997,0.1040,-0.0322,-0.0034,1.0038,0.1272,0.0276,-0.1209,-0.0339,0.2204,0.0300,0.0438,0.2204,0.0300,0.0438,0.3000,0.0600,0.0002,0,-2.2635,-351.4000,-0.0060,-2.2635,-351.4000,-0.0060,26.3518,58.9872,0.0200,0.0000
-17.4441,35.1009,-5.0336,0.1657,0.1642,0.1200,0.0000,2.2400,0.0000,0.0468,-0.0773,0.0044,996,1502,1500,1507,1000,1000,1505,1000,1000,1505,1502,1500,1505,-1.2528,-0.1772,0.3181,-0.0316,-0.0051,1.0016,0.1285,0.0261,-0.1196,-0.0349,0.2204,0.0300,0.0438,0.2204,0.0300,0.0438,0.3000,0.0600,0.0002,0,-2.2635,-351.4000,-0.0060,-2.2635,-351.4000,-0.0060,26.3971,59.0231,0.0200,0.0000
-17.4327,35.0662,-5.0150,0.0829,0.1642,0.1200,0.0000,2.2400,0.0000,0.0469,-0.0773,0.0043,996,1502,1500,1507,1000,1000,1505,1000,1000,1505,1502,1500,1505,-1.5206,-0.0643,0.3850,-0.0303,-0.0117,1.0052,0.1284,0.0261,-0.1198,-0.0347,0.2204,0.0300,0.0438,0.2204,0.0300,0.0438,0.3000,0.0600,0.0002,0,-2.2635,-351.4000,-0.0060,-2.2635,-351.4000,-0.0060,26.4425,59.0589,0.0200,0.0000
-17.4225,35.0328,-4.9963,-0.0000,0.1642,0.2400,0.0600,2.5600,0.0000,0.0471,-0.0771,0.0059,997,1503,1500,1507,1000,1000,1505,1000,1000,1505,1502,1500,1505,-1.4865,0.0122,0.4940,-0.0347,-0.0152,1.0063,0.1301,0.0241,-0.1183,-0.0359,0.2204,0.0300,0.0438,0.2204,0.0300,0.0438,0.3000,0.0600,0.0002,0,-2.2635,-351.4000,-0.0060,-2.2635,-351.4000,-0.0060,26.4878,59.0948,0.0400,0.0100
-17.4103,35.0005,-4.9772,0.0829,0.2462,0.1200,0.0000,2.2400,0.0000,0.0467,-0.0772,0.0039,996,1502,1500,1507,1000,1000,1505,1000,1000,1505,1502,1500,1505,-1.2942,0.0810,0.4943,-0.0323,-0.0200,1.0050,0.1278,0.0266,-0.1200,-0.0344,0.2204,0.0300,0.0438,0.2204,0.0300,0.0438,0.3000,0.0600,0.0002,0,-2.2635,-351.4000,-0.0060,-2.2635,-351.4000,-0.0060,26.5331,59.1306,0.0200,0.0000
-17.3961,34.9677,-4.9598,0.0829,0.0821,0.1200,0.0000,2.2400,0.0000,0.0465,-0.0771,0.0045,996,1502,1500,1507,1000,1000,1505,1000,1000,1505,1502,1500,1505,-0.8584,0.0504,0.3377,-0.0313,-0.0203,1.0046,0.1280,0.0262,-0.1191,-0.0351,0.2204,0.0300,0.0438,0.2204,0.0300,0.0438,0.3000,0.0600,0.0002,0,-2.2635,-351.4000,-0.0060,-2.2635,-351.4000,-0.0060,26.5784,59.1664,0.0200,0.0000
-17.3782,34.9342,-4.9441,0.0829,0.1642,0.1200,0.0000,2.2400,0.0000,0.0462,-0.0770,0.0049,996,1502,1500,1507,1000,1000,1505,1000,1000,1505,1502,1500,1505,-0.3674,0.0205,0.1963,-0.0313,-0.0225,1.0034,0.1281,0.0259,-0.1184,-0.0356,0.2204,0.0300,0.0438,0.2204,0.0300,0.0438,0.3000,0.0600,0.0002,0,-2.2635,-351.4000,-0.0060,-2.2635,-351.4000,-0.0060,26.6237,59.2022,0.0200,0.0000
-17.3569,34.9002,-4.9312,0.1657,0.0821,0.1200,0.0000,1.6000,0.0000,0.0460,-0.0770,0.0040,996,1502,1500,1505,1000,1000,1505,1000,1000,1505,1502,1500,1505,0.0284,0.1042,-0.1312,-0.0311,-0.0189,1.0005,0.1269,0.0270,-0.1190,-0.0349,0.2204,0.0300,0.0438,0.2204,0.0300,0.0438,0.3000,0.0600,0.0002,0,-2.2635,-351.4000,-0.0060,-2.2635,-351.4000,-0.0060,26.6691,59.2379,0.0200,0.0000
-17.3331,34.8655,-4.9209,0.0829,0.1642,0.1200,0.0000,1.6000,0.0000,0.0458,-0.0769,0.0044,996,1502,1500,1505,1000,1000,1505,1000,1000,1505,1502,1500,1505,0.3873,0.0552,-0.2766,-0.0335,-0.0186,1.0040,0.1271,0.0266,-0.1182,-0.0355,0.2204,0.0300,0.0438,0.2204,0.0300,0.0438,0.3000,0.0600,0.0002,0,-2.2635,-351.4000,-0.0060,-2.2635,-351.4000,-0.0060,26.7144,59.2737,0.0200,0.0000
-17.3063,34.8309,-4.9107,0.0829,0.2462,0.2400,0.0600,1.6000,0.0000,0.0459,-0.0767,0.0042,997,1503,1500,1505,1000,1000,1505,1000,1000,1505,1502,1500,1505,0.6244,0.0894,-0.2318,-0.0328,-0.0129,1.0030,0.1268,0.0265,-0.1183,-0.0350,0.2204,0.0300,0.0438,0.2204,0.0300,0.0438,0.3000,0.0600,0.0002,0,-2.2635,-351.4000,-0.0060,-2.2635,-351.4000,-0.0060,26.7598,59.3095,0.0400,0.0100
-17.2789,34.7970,-4.9007,0.0829,0.1642,0.1200,0.0000,1.6000,0.0000,0.0456,-0.0767,0.0040,996,1502,1500,1505,1000,1000,1505,1000,1000,1505,1502,1500,1505,0.5322,0.1114,-0.1574,-0.0310,-0.0122,1.0040,0.1264,0.0271,-0.1183,-0.0352,0.2204,0.0300,0.0438,0.2204,0.0300,0.0438,0.3000,0.0600,0.0002,0,-2.2635,-351.4000,-0.0060,-2.2635,-351.4000,-0.0060,26.8052,59.3452,0.0200,0.0000
-17.2518,34.7628,-4.8891,-0.0829,0.0821,0.1200,0.0000,1.6000,0.0000,0.0456,-0.0766,0.0037,996,1502,1500,1505,1000,1000,1505,1000,1000,1505,1502,1500,1505,0.3738,0.0388,-0.0471,-0.0345,-0.0115,1.0006,0.1259,0.0273,-0.1186,-0.0347,0.2204,0.0300,0.0438,0.2204,0.0300,0.0438,0.3000,0.0600,0.0002,0,-2.2635,-351.4000,-0.0060,-2.2635,-351.4000,-0.0060,26.8506,59.3810,0.0200,0.0000
-17.2258,34.7288,-4.8753,-0.0000,0.0821,0.1200,0.0000,1.6000,0.0000,0.0457,-0.0766,0.0031,996,1502,1500,1505,1000,1000,1505,1000,1000,1505,1502,1500,1505,0.0627,0.0552,0.1333,-0.0353,-0.0113,1.0025,0.1254,0.0277,-0.1191,-0.0340,0.2204,0.0300,0.0438,0.2204,0.0300,0.0438,0.3000,0.0600,0.0002,0,-2.2635,-351.4000,-0.0060,-2.2635,-351.4000,-0.0060,26.8961,59.4168,0.0200,0.0000
-17.2014,34.6949,-4.8600,-0.0829,0.0000,0.1200,0.0000,1.6000,0.0000,0.0457,-0.0765,0.0030,996,1502,1500,1505,1000,1000,1505,1000,1000,1505,1502,1500,1505,-0.0598,0.0365,0.1946,-0.0344,-0.0125,1.0038,0.1252,0.0278,-0.1192,-0.0338,0.2204,0.0300,0.0438,0.2204,0.0300,0.0438,0.3000,0.0600,0.0002,0,-2.2635,-351.4000,-0.0060,-2.2635,-351.4000,-0.0060,26.9415,59.4525,0.0200,0.0000
-17.1781,34.6616,-4.8440,-0.0000,0.2462,0.1200,0.0000,1.6000,0.0060,0.0457,-0.0764,0.0028,1006,1502,1500,1505,1000,1000,1505,1000,1000,1505,1502,1500,1505,-0.1553,0.1014,0.2785,-0.0339,-0.0134,1.0083,0.1309,0.0340,-0.1134,-0.0275,0.2204,0.0300,0.0438,0.2204,0.0300,0.0438,0.3000,0.0600,0.0002,0,-2.2635,-351.4000,-0.0060,-2.2635,-351.4000,-0.0060,26.9870,59.4883,0.0200,0.0000
-17.1552,34.6274,-4.8281,0.0829,0.2462,0.2400,0.0600,1.6000,0.0290,0.0459,-0.0762,0.0031,1029,1503,1500,1505,1000,1000,1505,1000,1000,1505,1502,1500,1505,-0.1679,0.0038,0.1996,-0.0330,-0.0164,0.9993,0.1542,0.0562,-0.0900,-0.0043,0.2204,0.0300,0.0438,0.2204,0.0300,0.0438,0.3000,0.0600,0.0002,0,-2.2635,-351.4000,-0.0060,-2.2635,-351.4000,-0.0060,27.0326,59.5241,0.0400,0.0100
-17.1317,34.5933,-4.8127,0.0829,0.1642,0.1200,0.0000,1.6000,0.0350,0.0455,-0.0762,0.0031,1035,1502,1500,1505,1000,1000,1505,1000,1000,1505,1502,1500,1505,0.0448,-0.0077,0.1900,-0.0337,-0.0164,1.0036,0.1598,0.0627,-0.0837,0.0012,0.2204,0.0300,0.0438,0.2204,0.0300,0.0438,0.3000,0.0600,0.0002,0,-2.2635,-351.4000,-0.0060,-2.2635,-351.4000,-0.0060,27.0781,59.5599,0.0200,0.0000
-17.1063,34.5589,-4.7984,0.0829,0.1642,0.1200,0.0000,1.6000,0.0360,0.0454,-0.0762,0.0035,1036,1502,1500,1505,1000,1000,1505,1000,1000,1505,1502,1500,1505,0.2223,-0.0386,0.0568,-0.0339,-0.0158,1.0081,0.1610,0.0633,-0.0821,0.0018,0.2204,0.0300,0.0438,0.2204,0.0300,0.0438,0.3000,0.0600,0.0002,0,-2.2635,-351.4000,-0.0060,-2.2635,-351.4000,-0.0060,27.1237,59.5957,0.0200,0.0000
-17.0798,34.5241,-4.7856,0.0829,0.1642,0.1200,0.0000,1.6000,0.0360,0.0452,-0.0761,0.0037,1036,1502,1500,1505,1000,1000,1505,1000,1000,1505,1502,1500,1505,0.4422,0.0533,-0.0391,-0.0305,-0.0170,1.0025,0.1611,0.0632,-0.0816,0.0014,0.2204,0.0300,0.0438,0.2204,0.0300,0.0438,0.3000,0.0600,0.0002,0,-2.2635,-351.4000,-0.0060,-2.2635,-351.4000,-0.0060,27.1692,59.6315,0.0200,0.0000
-17.0527,34.4887,-4.7741,0.1657,0.2462,0.1200,0.0000,1.6000,0.0460,0.0451,-0.0760,0.0043,1046,1502,1500,1505,1000,1000,1505,1000,1000,1505,1502,1500,1505,0.5183,0.0116,-0.1831,-0.0319,-0.0140,1.0018,0.1714,0.0726,-0.0709,0.0108,0.2204,0.0300,0.0438,0.2204,0.0300,0.0438,0.3000,0.0600,0.0002,0,-2.2635,-351.4000,-0.0060,-2.2635,-351.4000,-0.0060,27.2148,59.6672,0.0200,0.0000
-17.0248,34.4524,-4.7630,-0.0000,0.1642,0.1200,0.0000,1.6000,0.0490,0.0451,-0.0759,0.0041,1049,1502,1500,1505,1000,1000,1505,1000,1000,1505,1502,1500,1505,0.5353,-0.1214,-0.1343,-0.0342,-0.0124,1.0080,0.1740,0.0758,-0.0679,0.0141,0.2204,0.0300,0.0438,0.2204,0.0300,0.0438,0.3000,0.0600,0.0002,0,-2.2635,-351.4000,-0.0060,-2.2635,-351.4000,-0.0060,27.2603,59.7028,0.0200,0.0000
-16.9967,34.4158,-4.7505,0.0829,0.2462,0.2400,0.0600,1.6000,0.0500,0.0453,-0.0757,0.0041,1050,1503,1500,1505,1000,1000,1505,1000,1000,1505,1502,1500,1505,0.4606,-0.0791,-0.1322,-0.0334,-0.0076,1.0035,0.1751,0.0763,-0.0669,0.0155,0.2204,0.0300,0.0438,0.2204,0.0300,0.0438,0.3000,0.0600,0.0002,0,-2.2635,-351.4000,-0.0060,-2.2635,-351.4000,-0.0060,27.3059,59.7385,0.0400,0.0100
-16.9702,34.3788,-4.7383,0.0829,0.0821,0.1200,0.0000,1.6000,0.0500,0.0451,-0.0757,0.0040,1050,1502,1500,1505,1000,1000,1505,1000,1000,1505,1502,1500,1505,0.2332,-0.1931,-0.1070,-0.0345,-0.0071,1.0045,0.1747,0.0767,-0.0668,0.0154,0.2204,0.0300,0.0438,0.2204,0.0300,0.0438,0.3000,0.0600,0.0002,0,-2.2635,-351.4000,-0.0060,-2.2635,-351.4000,-0.0060,27.3515,59.7741,0.0200,0.0000
-16.9450,34.3423,-4.7247,0.0829,0.1642,0.1200,0.0000,1.6000,0.0500,0.0451,-0.0756,0.0036,1050,1502,1500,1505,1000,1000,1505,1000,1000,1505,1502,1500,1505,0.0614,-0.1575,0.0347,-0.0287,-0.0082,1.0059,0.1743,0.0769,-0.0671,0.0159,0.2204,0.0300,0.0438,0.2204,0.0300,0.0438,0.3000,0.0600,0.0002,0,-2.2635,-351.4000,-0.0060,-2.2635,-351.4000,-0.0060,27.3971,59.8098,0.0200,0.0000
-16.9208,34.3054,-4.7096,0.0829,0.0821,0.1200,0.0000,1.6000,0.0500,0.0451,-0.0755,0.0030,1050,1502,1500,1505,1000,1000,1505,1000,1000,1505,1502,1500,1505,-0.0505,-0.2642,0.1975,-0.0312,-0.0108,1.0037,0.1736,0.0774,-0.0675,0.0165,0.2204,0.0300,0.0438,0.2204,0.0300,0.0438,0.3000,0.0600,0.0002,0,-2.2635,-351.4000,-0.0060,-2.2635,-351.4000,-0.0060,27.4427,59.8456,0.0200,0.0000
-16.8969,34.2693,-4.6931,0.0829,0.0821,0.1200,0.0000,1.6000,0.0500,0.0450,-0.0754,0.0030,1050,1502,1500,1505,1000,1000,1505,1000,1000,1505,1502,1500,1505,-0.1014,-0.1865,0.2416,-0.0299,-0.0146,1.0004,0.1735,0.0774,-0.0675,0.0166,0.2204,0.0300,0.0438,0.2204,0.0300,0.0438,0.3000,0.0600,0.0002,0,-2.2635,-351.4000,-0.0060,-2.2635,-351.4000,-0.0060,27.4884,59.8813,0.0200,0.0000
-16.8722,34.2334,-4.6761,0.0829,0.0821,0.1200,0.0000,1.6000,0.0500,0.0449,-0.0754,0.0028,1050,1502,1500,1505,1000,1000,1505,1000,1000,1505,1502,1500,1505,0.0094,-0.1846,0.3026,-0.0334,-0.0160,1.0048,0.1731,0.0776,-0.0675,0.0167,0.2204,0.0300,0.0438,0.2204,0.0300,0.0438,0.3000,0.0600,0.0002,0,-2.2635,-351.4000,-0.0060,-2.2635,-351.4000,-0.0060,27.5341,59.9170,0.0200,0.0000
-16.8466,34.1967,-4.6597,0.0829,0.2462,0.2400,0.0600,1.6000,0.0500,0.0451,-0.0752,0.0033,1050,1503,1500,1505,1000,1000,1505,1000,1000,1505,1502,1500,1505,0.1998,-0.1875,0.1490,-0.0338,-0.0171,1.0016,0.1736,0.0768,-0.0669,0.0166,0.2204,0.0300,0.0438,0.2204,0.0300,0.0438,0.3000,0.0600,0.0002,0,-2.2635,-351.4000,-0.0060,-2.2635,-351.4000,-0.0060,27.5798,59.9526,0.0400,0.0100
-16.8197,34.1607,-4.6456,0.0829,0.1642,0.1200,0.0000,1.6000,0.0500,0.0446,-0.0752,0.0037,1050,1502,1500,1505,1000,1000,1505,1000,1000,1505,1502,1500,1505,0.4589,-0.0953,0.0182,-0.0346,-0.0175,1.0022,0.1736,0.0769,-0.0661,0.0157,0.2204,0.0300,0.0438,0.2204,0.0300,0.0438,0.3000,0.0600,0.0002,0,-2.2635,-351.4000,-0.0060,-2.2635,-351.4000,-0.0060,27.6255,59.9883,0.0200,0.0000
-16.7904,34.1243,-4.6330,0.1657,0.0821,0.1200,0.0000,1.6000,0.0500,0.0444,-0.0751,0.0041,1050,1502,1500,1505,1000,1000,1505,1000,1000,1505,1502,1500,1505,0.7781,-0.1719,-0.0866,-0.0309,-0.0200,0.9992,0.1736,0.0766,-0.0655,0.0152,0.2204,0.0300,0.0438,0.2204,0.0300,0.0438,0.3000,0.0600,0.0002,0,-2.2635,-351.4000,-0.0060,-2.2635,-351.4000,-0.0060,27.6712,60.0241,0.0200,0.0000
-16.7602,34.0877,-4.6218,-0.0000,0.2462,0.1200,0.0000,1.6000,0.0500,0.0444,-0.0751,0.0045,1050,1502,1500,1505,1000,1000,1505,1000,1000,1505,1502,1500,1505,0.7876,-0.0239,-0.2333,-0.0305,-0.0164,1.0028,0.1740,0.0762,-0.0650,0.0147,0.2204,0.0300,0.0438,0.2204,0.0300,0.0438,0.3000,0.0600,0.0002,0,-2.2635,-351.4000,-0.0060,-2.2635,-351.4000,-0.0060,27.7170,60.0597,0.0200,0.0000
-16.7297,34.0509,-4.6113,0.0829,0.2462,0.1200,0.0000,0.6400,0.0510,0.0443,-0.0750,0.0015,1051,1502,1500,1502,1000,1000,1505,1000,1000,1505,1502,1500,1505,0.8372,-0.0938,-0.2013,-0.0329,-0.0110,0.9988,0.1718,0.0803,-0.0668,0.0188,0.2204,0.0300,0.0438,0.2204,0.0300,0.0438,0.3000,0.0600,0.0002,0,-2.2635,-351.4000,-0.0060,-2.2635,-351.4000,-0.0060,27.7627,60.0955,0.0200,0.0000
-16.6991,34.0139,-4.6000,-0.1657,0.0821,0.1200,0.0000,0.6400,0.0510,0.0442,-0.0749,0.0014,1051,1502,1500,1502,1000,1000,1505,1000,1000,1505,1502,1500,1505,0.7841,-0.1695,-0.1712,-0.0324,-0.0067,1.0062,0.1716,0.0802,-0.0667,0.0189,0.2204,0.0300,0.0438,0.2204,0.0300,0.0438,0.3000,0.0600,0.0002,0,-2.2635,-351.4000,-0.0060,-2.2635,-351.4000,-0.0060,27.8085,60.1312,0.0200,0.0000
-16.6691,33.9770,-4.5882,-0.0000,0.1642,0.2400,0.0600,0.6400,0.0630,0.0445,-0.0748,0.0010,1062,1503,1500,1502,1000,1000,1505,1000,1000,1505,1502,1500,1505,0.5883,-0.1840,-0.0561,-0.0324,-0.0093,1.0083,0.1833,0.0922,-0.0553,0.0317,0.2204,0.0300,0.0438,0.2204,0.0300,0.0438,0.3000,0.0600,0.0002,0,-2.2635,-351.4000,-0.0060,-2.2635,-351.4000,-0.0060,27.8543,60.1669,0.0400,0.0100
-16.6403,33.9403,-4.5734,-0.0829,0.0000,0.1200,0.0000,0.6400,0.0610,0.0443,-0.0749,-0.0002,1061,1502,1500,1502,1000,1000,1505,1000,1000,1505,1502,1500,1505,0.2739,-0.2345,0.3616,-0.0339,-0.0088,1.0036,0.1800,0.0918,-0.0585,0.0306,0.2204,0.0300,0.0438,0.2204,0.0300,0.0438,0.3000,0.0600,0.0002,0,-2.2635,-351.4000,-0.0060,-2.2635,-351.4000,-0.0060,27.9002,60.2026,0.0200,0.0000
-16.6105,33.9036,-4.5531,0.0829,0.1642,0.1200,0.0000,0.6400,0.0610,0.0443,-0.0749,-0.0007,1061,1502,1500,1502,1000,1000,1505,1000,1000,1505,1502,1500,1505,0.0975,-0.2257,0.5379,-0.0331,-0.0027,1.0054,0.1796,0.0923,-0.0590,0.0311,0.2204,0.0300,0.0438,0.2204,0.0300,0.0438,0.3000,0.0600,0.0002,0,-2.2635,-351.4000,-0.0060,-2.2635,-351.4000,-0.0060,27.9461,60.2384,0.0200,0.0000
-16.5841,33.8672,-4.5345,0.0829,0.2462,0.1200,0.0000,0.6400,0.0650,0.0443,-0.0749,0.0004,1065,1502,1500,1502,1000,1000,1505,1000,1000,1505,1502,1500,1505,0.0951,-0.2802,0.1999,-0.0293,-0.0116,1.0048,0.1846,0.0953,-0.0538,0.0339,0.2204,0.0300,0.0438,0.2204,0.0300,0.0438,0.3000,0.0600,0.0002,0,-2.2635,-351.4000,-0.0060,-2.2635,-351.4000,-0.0060,27.9920,60.2741,0.0200,0.0000
-16.5622,33.8296,-4.5240,-0.0829,0.1642,0.1200,0.0000,0.6400,0.0660,0.0443,-0.0751,0.0026,1066,1502,1500,1502,1000,1000,1505,1000,1000,1505,1502,1500,1505,-0.0434,0.0113,-0.5524,-0.0303,-0.0162,1.0083,0.1880,0.0942,-0.0508,0.0326,0.2204,0.0300,0.0438,0.2204,0.0300,0.0438,0.3000,0.0600,0.0002,0,-2.2635,-351.4000,-0.0060,-2.2635,-351.4000,-0.0060,28.0379,60.3098,0.0200,0.0000
-16.5445,33.7918,-4.5186,-0.0000,0.1642,0.1200,0.0000,0.6400,0.0660,0.0442,-0.0751,0.0024,1066,1502,1500,1502,1000,1000,1505,1000,1000,1505,1502,1500,1505,0.0332,-0.1222,-0.4943,-0.0273,-0.0239,1.0045,0.1877,0.0944,-0.0509,0.0328,0.2204,0.0300,0.0438,0.2204,0.0300,0.0438,0.3000,0.0600,0.0002,0,-2.2635,-351.4000,-0.0060,-2.2635,-351.4000,-0.0060,28.0838,60.3455,0.0200,0.0000
-16.5257,33.7544,-4.5120,0.0829,0.0821,0.2400,0.0600,0.6400,0.0660,0.0444,-0.0750,0.0021,1066,1503,1500,1502,1000,1000,1505,1000,1000,1505,1502,1500,1505,0.0162,-0.0456,-0.4150,-0.0329,-0.0184,1.0038,0.1875,0.0945,-0.0513,0.0334,0.2204,0.0300,0.0438,0.2204,0.0300,0.0438,0.3000,0.0600,0.0002,0,-2.2635,-351.4000,-0.0060,-2.2635,-351.4000,-0.0060,28.1297,60.3811,0.0400,0.0100
-16.5026,33.7171,-4.5009,0.0829,0.1642,0.1200,0.0000,0.6400,0.0660,0.0440,-0.0751,0.0011,1066,1502,1500,1502,1000,1000,1505,1000,1000,1505,1502,1500,1505,0.3244,-0.0564,-0.0288,-0.0307,-0.0105,1.0062,0.1862,0.0961,-0.0521,0.0338,0.2204,0.0300,0.0438,0.2204,0.0300,0.0438,0.3000,0.0600,0.0002,0,-2.2635,-351.4000,-0.0060,-2.2635,-351.4000,-0.0060,28.1756,60.4168,0.0200,0.0000
