roll_imu,pitch_imu,yaw_imu,alpha,beta,roll_des,pitch_des,yaw_des,throttle_des,roll_pid,pitch_pid,yaw_pid,radio_ch1,radio_ch2,radio_ch3,radio_ch4,radio_ch5,radio_ch6,radio_ch7,radio_ch8,radio_ch9,radio_ch10,radio_ch11,radio_ch12,radio_ch13,GyroX,GyroY,GyroZ,AccX,AccY,AccZ,s1_command,s2_command,s3_command,s4_command,kp_roll,ki_roll,kd_roll,kp_pitch,ki_pitch,kd_pitch,kp_yaw,ki_yaw,kd_yaw,failsafeTriggered,kp_alphaRoll,ki_alphaRoll,kd_alphaRoll,kp_betaPitch,ki_betaPitch,kd_betaPitch,ripIMU_roll,ripIMU_pitch,ripRoll_des,ripPitch_des
0.0000,0.0000,0.0000,44.8343,34.3502,0.0000,0.0000,0.0000,0.0000,0.0000,0.0000,0.0000,1000,1500,1500,1500,2000,1000,1000,1000,1500,1500,1500,1500,1500,0.0000,0.0000,0.0000,0.0000,0.0000,0.0000,0.0000,0.0000,0.0000,0.0000,0.2204,0.0300,0.0438,0.2204,0.0300,0.0438,0.3000,0.0600,0.0002,0,-0.3000,-100.0000,-0.0010,-0.3000,-100.0000,-0.0010,0.0000,0.0000,0.0000,0.0000
-24.1462,36.6823,-8.2279,0.5801,-0.0821,-7.8600,-8.0400,-42.8800,0.0000,0.1552,-0.1981,-0.1289,910,1369,1366,1366,2008,1000,1505,1000,1000,1505,2008,1054,1014,0.2030,0.0174,0.0448,-0.0067,0.0009,0.9255,0.2244,0.1719,-0.4822,0.0859,0.4430,0.3324,0.0485,0.4430,0.3324,0.0485,0.3000,0.0600,0.0002,0,-0.3000,-100.0000,-0.0010,-0.3000,-100.0000,-0.0010,11.4729,42.3381,-1.3100,-1.3400
-24.1155,36.6524,-8.2112,0.5801,-0.0821,-2.3400,-2.3400,-12.4800,0.0000,0.1794,-0.1727,-0.0377,971,1461,1461,1461,2008,1000,1505,1000,1000,1505,2008,1054,1014,0.2449,0.0146,-0.0213,-0.0062,0.0001,0.9922,0.3145,0.0310,-0.3899,0.0444,0.4430,0.3324,0.0485,0.4430,0.3324,0.0485,0.3000,0.0600,0.0002,0,-0.3000,-100.0000,-0.0010,-0.3000,-100.0000,-0.0010,11.5093,42.3780,-0.3900,-0.3900
-24.0843,36.6226,-8.1938,0.5801,-0.0821,-0.6000,-0.7800,-4.1600,0.0000,0.1870,-0.1657,-0.0129,991,1490,1487,1487,2008,1000,1505,1000,1000,1505,2008,1054,1014,0.1864,-0.0394,0.0358,-0.0077,0.0013,0.9927,0.3398,-0.0084,-0.3656,0.0343,0.4430,0.3324,0.0485,0.4430,0.3324,0.0485,0.3000,0.0600,0.0002,0,-0.3000,-100.0000,-0.0010,-0.3000,-100.0000,-0.0010,11.5471,42.4178,-0.1000,-0.1300
-24.0539,36.5924,-8.1773,0.5801,-0.0821,0.1200,0.0000,0.0000,0.0000,0.1901,-0.1621,-0.0001,996,1502,1500,1500,2008,1000,1505,1000,1000,1505,2008,1054,1014,0.2212,0.0114,-0.0623,-0.0069,0.0010,0.9906,0.3521,-0.0279,-0.3523,0.0281,0.4430,0.3324,0.0485,0.4430,0.3324,0.0485,0.3000,0.0600,0.0002,0,-0.3000,-100.0000,-0.0010,-0.3000,-100.0000,-0.0010,11.5851,42.4576,0.0200,0.0000
-24.0228,36.5616,-8.1606,0.5801,-0.0821,0.1200,0.0000,0.0000,0.0000,0.1899,-0.1619,-0.0003,996,1502,1500,1500,2008,1000,1505,1000,1000,1505,2008,1054,1014,0.2885,-0.1236,0.0013,-0.0077,-0.0015,0.9936,0.3515,-0.0277,-0.3521,0.0283,0.4430,0.3324,0.0485,0.4430,0.3324,0.0485,0.3000,0.0600,0.0002,0,-0.3000,-100.0000,-0.0010,-0.3000,-100.0000,-0.0010,11.6231,42.4975,0.0200,0.0000
-23.9914,36.5310,-8.1433,0.5801,-0.0821,0.1200,0.0000,0.0000,0.0000,0.1898,-0.1618,-0.0004,996,1502,1500,1500,2008,1000,1505,1000,1000,1505,2008,1054,1014,0.2599,-0.0144,0.0379,-0.0084,-0.0014,0.9912,0.3512,-0.0275,-0.3520,0.0284,0.4430,0.3324,0.0485,0.4430,0.3324,0.0485,0.3000,0.0600,0.0002,0,-0.3000,-100.0000,-0.0010,-0.3000,-100.0000,-0.0010,11.6611,42.5374,0.0200,0.0000
-23.9609,36.5008,-8.1267,0.5801,-0.0821,0.1200,0.0000,0.0000,0.0000,0.1897,-0.1617,-0.0003,996,1502,1500,1500,2008,1000,1505,1000,1000,1505,2008,1054,1014,0.2426,0.0588,-0.0017,-0.0073,0.0003,0.9895,0.3511,-0.0276,-0.3517,0.0283,0.4430,0.3324,0.0485,0.4430,0.3324,0.0485,0.3000,0.0600,0.0002,0,-0.3000,-100.0000,-0.0010,-0.3000,-100.0000,-0.0010,11.6991,42.5772,0.0200,0.0000
-23.9304,36.4716,-8.1100,0.5801,-0.0821,0.1200,0.0000,0.0000,0.0000,0.1895,-0.1616,-0.0003,996,1502,1500,1500,2008,1000,1505,1000,1000,1505,2008,1054,1014,0.1980,0.0462,0.0081,-0.0052,-0.0003,0.9870,0.3508,-0.0276,-0.3515,0.0283,0.4430,0.3324,0.0485,0.4430,0.3324,0.0485,0.3000,0.0600,0.0002,0,-0.3000,-100.0000,-0.0010,-0.3000,-100.0000,-0.0010,11.7371,42.6170,0.0200,0.0000
-23.9002,36.4418,-8.0933,0.5801,-0.0821,0.1200,0.0000,0.0000,0.0000,0.1894,-0.1615,-0.0001,996,1502,1500,1500,2008,1000,1505,1000,1000,1505,2008,1054,1014,0.2415,0.0415,-0.0574,-0.0091,0.0016,0.9925,0.3507,-0.0278,-0.3510,0.0281,0.4430,0.3324,0.0485,0.4430,0.3324,0.0485,0.3000,0.0600,0.0002,0,-0.3000,-100.0000,-0.0010,-0.3000,-100.0000,-0.0010,11.7751,42.6568,0.0200,0.0000
-23.8695,36.4112,-8.0765,0.5801,-0.0821,0.1800,0.0000,0.0000,0.0000,0.1895,-0.1613,-0.0014,996,1502,1500,1500,2008,1000,1505,1000,1000,1505,2008,1054,1014,0.2080,0.0323,0.0424,-0.0078,-0.0013,0.9925,0.3494,-0.0268,-0.3523,0.0297,0.4430,0.3324,0.0485,0.4430,0.3324,0.0485,0.3000,0.0600,0.0002,0,-0.3000,-100.0000,-0.0010,-0.3000,-100.0000,-0.0010,11.8131,42.6966,0.0300,0.0000
-23.8390,36.3806,-8.0598,0.5801,-0.0821,0.1200,0.0000,0.0000,0.0000,0.1892,-0.1612,-0.0001,996,1502,1500,1500,2008,1000,1505,1000,1000,1505,2008,1054,1014,0.1793,-0.0177,-0.0558,-0.0036,0.0024,0.9955,0.3502,-0.0279,-0.3504,0.0281,0.4430,0.3324,0.0485,0.4430,0.3324,0.0485,0.3000,0.0600,0.0002,0,-0.3000,-100.0000,-0.0010,-0.3000,-100.0000,-0.0010,11.8512,42.7364,0.0200,0.0000
-23.8081,36.3504,-8.0434,0.5801,-0.0821,0.1200,0.0000,0.0000,0.0000,0.1890,-0.1611,-0.0001,996,1502,1500,1500,2008,1000,1505,1000,1000,1505,2008,1054,1014,0.3139,0.0431,-0.0617,-0.0075,-0.0007,0.9917,0.3499,-0.0278,-0.3501,0.0280,0.4430,0.3324,0.0485,0.4430,0.3324,0.0485,0.3000,0.0600,0.0002,0,-0.3000,-100.0000,-0.0010,-0.3000,-100.0000,-0.0010,11.8892,42.7761,0.0200,0.0000
-23.7776,36.3202,-8.0276,0.5801,-0.0821,0.1200,0.0000,0.0000,0.0000,0.1888,-0.1609,-0.0001,996,1502,1500,1500,2008,1000,1505,1000,1000,1505,2008,1054,1014,0.2447,0.0259,-0.0647,-0.0086,0.0014,0.9942,0.3496,-0.0278,-0.3499,0.0281,0.4430,0.3324,0.0485,0.4430,0.3324,0.0485,0.3000,0.0600,0.0002,0,-0.3000,-100.0000,-0.0010,-0.3000,-100.0000,-0.0010,11.9273,42.8158,0.0200,0.0000
-23.7469,36.2899,-8.0112,0.5801,-0.0821,0.1200,0.0000,0.0000,0.0000,0.1887,-0.1608,-0.0000,996,1502,1500,1500,2008,1000,1505,1000,1000,1505,2008,1054,1014,0.2313,0.0319,-0.0874,-0.0066,-0.0004,0.9886,0.3495,-0.0279,-0.3495,0.0280,0.4430,0.3324,0.0485,0.4430,0.3324,0.0485,0.3000,0.0600,0.0002,0,-0.3000,-100.0000,-0.0010,-0.3000,-100.0000,-0.0010,11.9653,42.8555,0.0200,0.0000
-23.7172,36.2598,-7.9957,0.5801,-0.0821,0.1200,0.0000,0.0000,0.0000,0.1886,-0.1607,-0.0002,996,1502,1500,1500,2008,1000,1505,1000,1000,1505,2008,1054,1014,0.1864,0.0375,-0.0088,-0.0075,0.0023,0.9922,0.3490,-0.0277,-0.3495,0.0282,0.4430,0.3324,0.0485,0.4430,0.3324,0.0485,0.3000,0.0600,0.0002,0,-0.3000,-100.0000,-0.0010,-0.3000,-100.0000,-0.0010,12.0034,42.8952,0.0200,0.0000
-23.6874,36.2290,-7.9799,0.5801,-0.0000,0.1800,0.0000,0.0000,0.0000,0.1888,-0.1605,-0.0012,996,1502,1500,1500,2008,1000,1505,1000,1000,1505,2008,1054,1014,0.1595,0.0172,-0.0692,-0.0097,0.0008,0.9914,0.3481,-0.0271,-0.3504,0.0294,0.4430,0.3324,0.0485,0.4430,0.3324,0.0485,0.3000,0.0600,0.0002,0,-0.3000,-100.0000,-0.0010,-0.3000,-100.0000,-0.0010,12.0415,42.9350,0.0300,0.0000
-23.6577,36.1988,-7.9636,0.5801,-0.0821,0.1200,0.0000,0.0000,0.0000,0.1883,-0.1604,-0.0001,996,1502,1500,1500,2008,1000,1505,1000,1000,1505,2008,1054,1014,0.1944,0.1018,-0.0581,-0.0063,0.0012,0.9902,0.3486,-0.0278,-0.3489,0.0281,0.4430,0.3324,0.0485,0.4430,0.3324,0.0485,0.3000,0.0600,0.0002,0,-0.3000,-100.0000,-0.0010,-0.3000,-100.0000,-0.0010,12.0796,42.9746,0.0200,0.0000
-23.6278,36.1688,-7.9474,0.5801,-0.0821,0.1200,0.0000,0.0000,0.0000,0.1882,-0.1603,-0.0004,996,1502,1500,1500,2008,1000,1505,1000,1000,1505,2008,1054,1014,0.1331,0.0740,0.0231,-0.0051,0.0034,0.9865,0.3481,-0.0276,-0.3489,0.0283,0.4430,0.3324,0.0485,0.4430,0.3324,0.0485,0.3000,0.0600,0.0002,0,-0.3000,-100.0000,-0.0010,-0.3000,-100.0000,-0.0010,12.1177,43.0143,0.0200,0.0000
-23.5983,36.1382,-7.9313,0.5801,-0.0821,0.1200,0.0000,0.0000,0.0000,0.1881,-0.1601,-0.0001,996,1502,1500,1500,2008,1000,1505,1000,1000,1505,2008,1054,1014,0.1801,-0.0345,-0.0593,-0.0083,0.0033,0.9916,0.3480,-0.0279,-0.3483,0.0281,0.4430,0.3324,0.0485,0.4430,0.3324,0.0485,0.3000,0.0600,0.0002,0,-0.3000,-100.0000,-0.0010,-0.3000,-100.0000,-0.0010,12.1558,43.0540,0.0200,0.0000
-23.5677,36.1075,-7.9146,0.5801,-0.0821,0.1200,0.0000,0.0000,0.0000,0.1879,-0.1599,-0.0003,996,1502,1500,1500,2008,1000,1505,1000,1000,1505,2008,1054,1014,0.2158,-0.0399,0.0178,-0.0049,-0.0001,0.9889,0.3475,-0.0277,-0.3482,0.0283,0.4430,0.3324,0.0485,0.4430,0.3324,0.0485,0.3000,0.0600,0.0002,0,-0.3000,-100.0000,-0.0010,-0.3000,-100.0000,-0.0010,12.1939,43.0936,0.0200,0.0000
-23.5368,36.0760,-7.8980,0.5801,-0.0821,0.1200,0.0000,0.0000,0.0000,0.1878,-0.1598,-0.0005,996,1502,1500,1500,2008,1000,1505,1000,1000,1505,2008,1054,1014,0.2434,-0.0193,0.0318,-0.0056,0.0011,0.9933,0.3471,-0.0275,-0.3480,0.0284,0.4430,0.3324,0.0485,0.4430,0.3324,0.0485,0.3000,0.0600,0.0002,0,-0.3000,-100.0000,-0.0010,-0.3000,-100.0000,-0.0010,12.2320,43.1332,0.0200,0.0000
-23.5063,36.0453,-7.8815,0.5801,-0.0821,0.1800,0.0000,0.0000,0.0000,0.1879,-0.1597,-0.0011,996,1502,1500,1500,2008,1000,1505,1000,1000,1505,2008,1054,1014,0.1671,0.0437,-0.0588,-0.0080,0.0014,0.9919,0.3466,-0.0272,-0.3487,0.0293,0.4430,0.3324,0.0485,0.4430,0.3324,0.0485,0.3000,0.0600,0.0002,0,-0.3000,-100.0000,-0.0010,-0.3000,-100.0000,-0.0010,12.2701,43.1727,0.0300,0.0000
-23.4753,36.0150,-7.8646,0.5801,-0.0821,0.1200,0.0000,0.0000,0.0000,0.1875,-0.1596,-0.0003,996,1502,1500,1500,2008,1000,1505,1000,1000,1505,2008,1054,1014,0.3208,0.0073,0.0117,-0.0087,0.0003,0.9907,0.3467,-0.0276,-0.3473,0.0282,0.4430,0.3324,0.0485,0.4430,0.3324,0.0485,0.3000,0.0600,0.0002,0,-0.3000,-100.0000,-0.0010,-0.3000,-100.0000,-0.0010,12.3082,43.2123,0.0200,0.0000
-23.4443,35.9838,-7.8479,0.5801,-0.0821,0.1200,0.0000,0.0000,0.0000,0.1874,-0.1594,-0.0001,996,1502,1500,1500,2008,1000,1505,1000,1000,1505,2008,1054,1014,0.2691,-0.0438,-0.0372,-0.0061,-0.0028,0.9905,0.3466,-0.0279,-0.3469,0.0281,0.4430,0.3324,0.0485,0.4430,0.3324,0.0485,0.3000,0.0600,0.0002,0,-0.3000,-100.0000,-0.0010,-0.3000,-100.0000,-0.0010,12.3464,43.2518,0.0200,0.0000
-23.4144,35.9529,-7.8322,0.5801,-0.0821,0.1200,0.0000,0.0000,0.0000,0.1873,-0.1593,-0.0001,996,1502,1500,1500,2008,1000,1505,1000,1000,1505,2008,1054,1014,0.0742,0.0076,-0.0705,-0.0065,0.0008,0.9888,0.3465,-0.0279,-0.3467,0.0282,0.4430,0.3324,0.0485,0.4430,0.3324,0.0485,0.3000,0.0600,0.0002,0,-0.3000,-100.0000,-0.0010,-0.3000,-100.0000,-0.0010,12.3846,43.2914,0.0200,0.0000
-23.3851,35.9223,-7.8159,0.5801,-0.0821,0.1200,0.0000,0.0000,0.0000,0.1871,-0.1591,-0.0003,996,1502,1500,1500,2008,1000,1505,1000,1000,1505,2008,1054,1014,0.1923,0.0112,0.0229,-0.0061,0.0012,0.9918,0.3459,-0.0276,-0.3466,0.0283,0.4430,0.3324,0.0485,0.4430,0.3324,0.0485,0.3000,0.0600,0.0002,0,-0.3000,-100.0000,-0.0010,-0.3000,-100.0000,-0.0010,12.4228,43.3310,0.0200,0.0000
-23.3550,35.8917,-7.7994,0.5801,-0.0821,0.1200,0.0000,0.0000,0.0000,0.1870,-0.1590,-0.0004,996,1502,1500,1500,2008,1000,1505,1000,1000,1505,2008,1054,1014,0.1352,0.0152,0.0174,-0.0054,0.0029,0.9915,0.3457,-0.0276,-0.3464,0.0284,0.4430,0.3324,0.0485,0.4430,0.3324,0.0485,0.3000,0.0600,0.0002,0,-0.3000,-100.0000,-0.0010,-0.3000,-100.0000,-0.0010,12.4610,43.3705,0.0200,0.0000
-23.3247,35.8612,-7.7823,0.5801,-0.0821,0.1800,0.0000,0.0000,0.0000,0.1871,-0.1588,-0.0013,996,1502,1500,1500,2008,1000,1505,1000,1000,1505,2008,1054,1014,0.2298,-0.0352,0.0090,-0.0043,0.0023,0.9938,0.3446,-0.0269,-0.3473,0.0296,0.4430,0.3324,0.0485,0.4430,0.3324,0.0485,0.3000,0.0600,0.0002,0,-0.3000,-100.0000,-0.0010,-0.3000,-100.0000,-0.0010,12.4992,43.4101,0.0300,0.0000
-23.2935,35.8300,-7.7652,0.5801,-0.0821,0.1200,0.0000,0.0000,0.0000,0.1867,-0.1587,-0.0003,996,1502,1500,1500,2008,1000,1505,1000,1000,1505,2008,1054,1014,0.2356,-0.0136,0.0089,-0.0081,0.0028,0.9936,0.3451,-0.0276,-0.3458,0.0283,0.4430,0.3324,0.0485,0.4430,0.3324,0.0485,0.3000,0.0600,0.0002,0,-0.3000,-100.0000,-0.0010,-0.3000,-100.0000,-0.0010,12.5374,43.4497,0.0200,0.0000
-23.2625,35.7996,-7.7485,0.5801,-0.0821,0.1200,0.0000,0.0000,0.0000,0.1866,-0.1586,-0.0004,996,1502,1500,1500,2008,1000,1505,1000,1000,1505,2008,1054,1014,0.2749,-0.0236,0.0465,-0.0078,0.0013,0.9936,0.3447,-0.0275,-0.3456,0.0284,0.4430,0.3324,0.0485,0.4430,0.3324,0.0485,0.3000,0.0600,0.0002,0,-0.3000,-100.0000,-0.0010,-0.3000,-100.0000,-0.0010,12.5756,43.4892,0.0200,0.0000
-23.2322,35.7685,-7.7325,0.5801,-0.0821,0.1200,0.0000,0.0000,0.0000,0.1865,-0.1585,0.0000,996,1502,1500,1500,2008,1000,1505,1000,1000,1505,2008,1054,1014,0.1793,-0.0076,-0.0902,-0.0080,0.0009,0.9917,0.3449,-0.0280,-0.3449,0.0280,0.4430,0.3324,0.0485,0.4430,0.3324,0.0485,0.3000,0.0600,0.0002,0,-0.3000,-100.0000,-0.0010,-0.3000,-100.0000,-0.0010,12.6138,43.5287,0.0200,0.0000
-23.2026,35.7380,-7.7171,0.5801,-0.0821,0.1200,0.0000,0.0000,0.0000,0.1863,-0.1584,-0.0002,996,1502,1500,1500,2008,1000,1505,1000,1000,1505,2008,1054,1014,0.1980,0.0805,-0.0584,-0.0054,0.0010,0.9900,0.3445,-0.0278,-0.3449,0.0282,0.4430,0.3324,0.0485,0.4430,0.3324,0.0485,0.3000,0.0600,0.0002,0,-0.3000,-100.0000,-0.0010,-0.3000,-100.0000,-0.0010,12.6521,43.5683,0.0200,0.0000
-23.1732,35.7076,-7.7016,0.5801,-0.0821,0.1200,0.0000,0.0000,0.0000,0.1862,-0.1582,-0.0002,996,1502,1500,1500,2008,1000,1505,1000,1000,1505,2008,1054,1014,0.1991,0.0887,-0.0292,-0.0049,0.0021,0.9916,0.3443,-0.0278,-0.3446,0.0281,0.4430,0.3324,0.0485,0.4430,0.3324,0.0485,0.3000,0.0600,0.0002,0,-0.3000,-100.0000,-0.0010,-0.3000,-100.0000,-0.0010,12.6903,43.6078,0.0200,0.0000
-23.1429,35.6773,-7.6854,0.5801,-0.0821,0.1800,0.0000,0.0000,0.0000,0.1863,-0.1581,-0.0011,996,1502,1500,1500,2008,1000,1505,1000,1000,1505,2008,1054,1014,0.1917,0.0721,-0.0273,-0.0062,0.0004,0.9889,0.3433,-0.0271,-0.3456,0.0294,0.4430,0.3324,0.0485,0.4430,0.3324,0.0485,0.3000,0.0600,0.0002,0,-0.3000,-100.0000,-0.0010,-0.3000,-100.0000,-0.0010,12.7286,43.6473,0.0300,0.0000
-23.1136,35.6470,-7.6698,0.5801,-0.0821,0.1200,0.0000,0.0000,0.0000,0.1860,-0.1579,-0.0001,996,1502,1500,1500,2008,1000,1505,1000,1000,1505,2008,1054,1014,0.1497,0.0451,-0.0521,-0.0067,-0.0026,0.9911,0.3438,-0.0279,-0.3440,0.0281,0.4430,0.3324,0.0485,0.4430,0.3324,0.0485,0.3000,0.0600,0.0002,0,-0.3000,-100.0000,-0.0010,-0.3000,-100.0000,-0.0010,12.7669,43.6868,0.0200,0.0000
-23.0837,35.6159,-7.6542,0.5801,-0.0821,0.1200,0.0000,0.0000,0.0000,0.1858,-0.1578,-0.0004,996,1502,1500,1500,2008,1000,1505,1000,1000,1505,2008,1054,1014,0.2312,0.0260,0.0074,-0.0068,0.0006,0.9934,0.3432,-0.0276,-0.3439,0.0283,0.4430,0.3324,0.0485,0.4430,0.3324,0.0485,0.3000,0.0600,0.0002,0,-0.3000,-100.0000,-0.0010,-0.3000,-100.0000,-0.0010,12.8051,43.7262,0.0200,0.0000
-23.0534,35.5853,-7.6385,0.6630,-0.0821,0.1200,0.0000,0.0000,0.0000,0.1856,-0.1577,-0.0002,996,1502,1500,1500,2008,1000,1505,1000,1000,1505,2008,1054,1014,0.2480,0.0287,-0.0168,-0.0073,-0.0006,0.9916,0.3431,-0.0277,-0.3435,0.0282,0.4430,0.3324,0.0485,0.4430,0.3324,0.0485,0.3000,0.0600,0.0002,0,-0.3000,-100.0000,-0.0010,-0.3000,-100.0000,-0.0010,12.8434,43.7657,0.0200,0.0000
-23.0235,35.5543,-7.6226,0.5801,-0.0821,0.1200,0.0000,0.0000,0.0000,0.1855,-0.1575,-0.0001,996,1502,1500,1500,2008,1000,1505,1000,1000,1505,2008,1054,1014,0.1649,-0.0176,-0.0656,-0.0074,-0.0026,0.9944,0.3429,-0.0279,-0.3432,0.0282,0.4430,0.3324,0.0485,0.4430,0.3324,0.0485,0.3000,0.0600,0.0002,0,-0.3000,-100.0000,-0.0010,-0.3000,-100.0000,-0.0010,12.8817,43.8051,0.0200,0.0000
-22.9941,35.5232,-7.6074,0.5801,-0.0821,0.1200,0.0000,0.0000,0.0000,0.1854,-0.1574,-0.0001,996,1502,1500,1500,2008,1000,1505,1000,1000,1505,2008,1054,1014,0.2144,0.0318,-0.0828,-0.0048,0.0003,0.9956,0.3427,-0.0279,-0.3429,0.0281,0.4430,0.3324,0.0485,0.4430,0.3324,0.0485,0.3000,0.0600,0.0002,0,-0.3000,-100.0000,-0.0010,-0.3000,-100.0000,-0.0010,12.9200,43.8445,0.0200,0.0000
-22.9645,35.4926,-7.5921,0.5801,-0.0821,0.1800,0.0000,0.0000,0.0000,0.1855,-0.1572,-0.0012,996,1502,1500,1500,2008,1000,1505,1000,1000,1505,2008,1054,1014,0.2372,0.0337,-0.0063,-0.0042,-0.0010,0.9886,0.3415,-0.0270,-0.3440,0.0295,0.4430,0.3324,0.0485,0.4430,0.3324,0.0485,0.3000,0.0600,0.0002,0,-0.3000,-100.0000,-0.0010,-0.3000,-100.0000,-0.0010,12.9583,43.8839,0.0300,0.0000
-22.9340,35.4613,-7.5759,0.5801,-0.0821,0.1200,0.0000,0.0000,0.0000,0.1851,-0.1571,-0.0003,996,1502,1500,1500,2008,1000,1505,1000,1000,1505,2008,1054,1014,0.2782,-0.0456,-0.0259,-0.0065,0.0007,0.9927,0.3419,-0.0278,-0.3424,0.0283,0.4430,0.3324,0.0485,0.4430,0.3324,0.0485,0.3000,0.0600,0.0002,0,-0.3000,-100.0000,-0.0010,-0.3000,-100.0000,-0.0010,12.9966,43.9234,0.0200,0.0000
-22.9036,35.4304,-7.5599,0.5801,-0.0821,0.1200,0.0000,0.0000,0.0000,0.1850,-0.1570,-0.0005,996,1502,1500,1500,2008,1000,1505,1000,1000,1505,2008,1054,1014,0.2138,0.0225,0.0351,-0.0084,0.0047,0.9915,0.3415,-0.0276,-0.3424,0.0285,0.4430,0.3324,0.0485,0.4430,0.3324,0.0485,0.3000,0.0600,0.0002,0,-0.3000,-100.0000,-0.0010,-0.3000,-100.0000,-0.0010,13.0349,43.9627,0.0200,0.0000
-22.8729,35.3998,-7.5431,0.5801,-0.0821,0.1200,0.0000,0.0000,0.0000,0.1848,-0.1568,-0.0004,996,1502,1500,1500,2008,1000,1505,1000,1000,1505,2008,1054,1014,0.2471,0.0264,0.0280,-0.0037,0.0020,0.9897,0.3413,-0.0276,-0.3421,0.0284,0.4430,0.3324,0.0485,0.4430,0.3324,0.0485,0.3000,0.0600,0.0002,0,-0.3000,-100.0000,-0.0010,-0.3000,-100.0000,-0.0010,13.0733,44.0021,0.0200,0.0000
-22.8424,35.3689,-7.5264,0.5801,-0.0821,0.1200,0.0000,0.0000,0.0000,0.1847,-0.1567,-0.0005,996,1502,1500,1500,2008,1000,1505,1000,1000,1505,2008,1054,1014,0.1971,-0.0245,0.0498,-0.0088,0.0023,0.9887,0.3410,-0.0276,-0.3419,0.0285,0.4430,0.3324,0.0485,0.4430,0.3324,0.0485,0.3000,0.0600,0.0002,0,-0.3000,-100.0000,-0.0010,-0.3000,-100.0000,-0.0010,13.1116,44.0415,0.0200,0.0000
-22.8120,35.3378,-7.5101,0.6630,-0.0821,0.1200,0.0000,0.0000,0.0000,0.1846,-0.1565,-0.0003,996,1502,1500,1500,2008,1000,1505,1000,1000,1505,2008,1054,1014,0.1728,-0.0569,0.0010,-0.0057,0.0012,0.9891,0.3408,-0.0278,-0.3414,0.0284,0.4430,0.3324,0.0485,0.4430,0.3324,0.0485,0.3000,0.0600,0.0002,0,-0.3000,-100.0000,-0.0010,-0.3000,-100.0000,-0.0010,13.1500,44.0808,0.0200,0.0000
-22.7813,35.3067,-7.4933,0.5801,-0.0821,0.1800,0.0000,0.0000,0.0000,0.1847,-0.1564,-0.0016,996,1502,1500,1500,2008,1000,1505,1000,1000,1505,2008,1054,1014,0.2572,0.0372,0.0921,-0.0080,0.0013,0.9896,0.3395,-0.0266,-0.3427,0.0299,0.4430,0.3324,0.0485,0.4430,0.3324,0.0485,0.3000,0.0600,0.0002,0,-0.3000,-100.0000,-0.0010,-0.3000,-100.0000,-0.0010,13.1884,44.1202,0.0300,0.0000
-22.7508,35.2757,-7.4770,0.5801,-0.0821,0.1200,0.0000,0.0000,0.0000,0.1843,-0.1563,-0.0001,996,1502,1500,1500,2008,1000,1505,1000,1000,1505,2008,1054,1014,0.2396,0.0127,-0.0635,-0.0076,-0.0005,0.9902,0.3405,-0.0279,-0.3407,0.0281,0.4430,0.3324,0.0485,0.4430,0.3324,0.0485,0.3000,0.0600,0.0002,0,-0.3000,-100.0000,-0.0010,-0.3000,-100.0000,-0.0010,13.2267,44.1596,0.0200,0.0000
-22.7209,35.2448,-7.4616,0.5801,-0.0821,0.1200,0.0000,0.0000,0.0000,0.1842,-0.1561,-0.0001,996,1502,1500,1500,2008,1000,1505,1000,1000,1505,2008,1054,1014,0.2240,0.0215,-0.0627,-0.0066,-0.0014,0.9895,0.3402,-0.0279,-0.3404,0.0281,0.4430,0.3324,0.0485,0.4430,0.3324,0.0485,0.3000,0.0600,0.0002,0,-0.3000,-100.0000,-0.0010,-0.3000,-100.0000,-0.0010,13.2651,44.1990,0.0200,0.0000
-22.6912,35.2137,-7.4463,0.5801,-0.0821,0.1200,0.0000,0.0000,0.0000,0.1841,-0.1560,-0.0001,996,1502,1500,1500,2008,1000,1505,1000,1000,1505,2008,1054,1014,0.1852,0.0298,-0.0650,-0.0097,0.0031,0.9878,0.3400,-0.0279,-0.3402,0.0282,0.4430,0.3324,0.0485,0.4430,0.3324,0.0485,0.3000,0.0600,0.0002,0,-0.3000,-100.0000,-0.0010,-0.3000,-100.0000,-0.0010,13.3036,44.2383,0.0200,0.0000
-22.6614,35.1829,-7.4309,0.5801,-0.0821,0.1200,0.0000,0.0000,0.0000,0.1839,-0.1559,-0.0002,996,1502,1500,1500,2008,1000,1505,1000,1000,1505,2008,1054,1014,0.3176,-0.0209,-0.0163,-0.0038,-0.0016,0.9969,0.3395,-0.0278,-0.3399,0.0282,0.4430,0.3324,0.0485,0.4430,0.3324,0.0485,0.3000,0.0600,0.0002,0,-0.3000,-100.0000,-0.0010,-0.3000,-100.0000,-0.0010,13.3420,44.2777,0.0200,0.0000
-22.6313,35.1509,-7.4151,0.5801,-0.0821,0.1200,0.0000,0.0000,0.0000,0.1838,-0.1557,-0.0002,996,1502,1500,1500,2008,1000,1505,1000,1000,1505,2008,1054,1014,0.2101,-0.0584,-0.0319,-0.0081,-0.0016,0.9949,0.3392,-0.0279,-0.3397,0.0283,0.4430,0.3324,0.0485,0.4430,0.3324,0.0485,0.3000,0.0600,0.0002,0,-0.3000,-100.0000,-0.0010,-0.3000,-100.0000,-0.0010,13.3804,44.3170,0.0200,0.0000
-22.6013,35.1193,-7.3993,0.5801,-0.0821,0.1800,0.0000,0.0000,0.0000,0.1839,-0.1556,-0.0009,996,1502,1500,1500,2008,1000,1505,1000,1000,1505,2008,1054,1014,0.2772,-0.0406,-0.1200,-0.0073,0.0006,0.9958,0.3386,-0.0274,-0.3403,0.0292,0.4430,0.3324,0.0485,0.4430,0.3324,0.0485,0.3000,0.0600,0.0002,0,-0.3000,-100.0000,-0.0010,-0.3000,-100.0000,-0.0010,13.4188,44.3563,0.0300,0.0000
-22.5714,35.0878,-7.3846,0.5801,-0.0821,0.1200,0.0000,0.0000,0.0000,0.1835,-0.1554,0.0001,996,1502,1500,1500,2008,1000,1505,1000,1000,1505,2008,1054,1014,0.2747,0.0134,-0.1223,-0.0049,-0.0029,0.9899,0.3390,-0.0281,-0.3388,0.0280,0.4430,0.3324,0.0485,0.4430,0.3324,0.0485,0.3000,0.0600,0.0002,0,-0.3000,-100.0000,-0.0010,-0.3000,-100.0000,-0.0010,13.4573,44.3956,0.0200,0.0000
-22.5417,35.0566,-7.3698,0.5801,-0.0821,0.1200,0.0000,0.0000,0.0000,0.1834,-0.1553,-0.0001,996,1502,1500,1500,2008,1000,1505,1000,1000,1505,2008,1054,1014,0.2400,0.0088,-0.0619,-0.0044,0.0032,0.9937,0.3386,-0.0280,-0.3388,0.0282,0.4430,0.3324,0.0485,0.4430,0.3324,0.0485,0.3000,0.0600,0.0002,0,-0.3000,-100.0000,-0.0010,-0.3000,-100.0000,-0.0010,13.4957,44.4349,0.0200,0.0000
-22.5121,35.0254,-7.3549,0.5801,-0.0821,0.1200,0.0000,0.0000,0.0000,0.1833,-0.1552,0.0001,996,1502,1500,1500,2008,1000,1505,1000,1000,1505,2008,1054,1014,0.2259,0.0312,-0.1288,-0.0091,0.0000,0.9887,0.3385,-0.0281,-0.3384,0.0280,0.4430,0.3324,0.0485,0.4430,0.3324,0.0485,0.3000,0.0600,0.0002,0,-0.3000,-100.0000,-0.0010,-0.3000,-100.0000,-0.0010,13.5342,44.4742,0.0200,0.0000
-22.4832,34.9943,-7.3409,0.5801,-0.0821,0.1200,0.0000,0.0000,0.0000,0.1831,-0.1550,0.0000,996,1502,1500,1500,2008,1000,1505,1000,1000,1505,2008,1054,1014,0.2370,0.0313,-0.1187,-0.0036,0.0007,0.9932,0.3382,-0.0281,-0.3381,0.0280,0.4430,0.3324,0.0485,0.4430,0.3324,0.0485,0.3000,0.0600,0.0002,0,-0.3000,-100.0000,-0.0010,-0.3000,-100.0000,-0.0010,13.5727,44.5135,0.0200,0.0000
-22.4538,34.9629,-7.3261,0.5801,-0.0821,0.1200,0.0000,0.0000,0.0000,0.1830,-0.1549,-0.0000,996,1502,1500,1500,2008,1000,1505,1000,1000,1505,2008,1054,1014,0.2081,0.1006,-0.0846,-0.0065,0.0018,0.9912,0.3379,-0.0280,-0.3380,0.0281,0.4430,0.3324,0.0485,0.4430,0.3324,0.0485,0.3000,0.0600,0.0002,0,-0.3000,-100.0000,-0.0010,-0.3000,-100.0000,-0.0010,13.6112,44.5528,0.0200,0.0000
-22.4243,34.9316,-7.3111,0.5801,-0.0821,0.1800,0.0000,0.0000,0.0000,0.1831,-0.1548,-0.0011,996,1502,1500,1500,2008,1000,1505,1000,1000,1505,2008,1054,1014,0.2338,0.0162,-0.0542,-0.0061,0.0001,0.9888,0.3368,-0.0273,-0.3390,0.0295,0.4430,0.3324,0.0485,0.4430,0.3324,0.0485,0.3000,0.0600,0.0002,0,-0.3000,-100.0000,-0.0010,-0.3000,-100.0000,-0.0010,13.6497,44.5921,0.0300,0.0000
-22.3955,34.8997,-7.2964,0.5801,-0.0821,0.1200,0.0000,0.0000,0.0000,0.1827,-0.1546,0.0001,996,1502,1500,1500,2008,1000,1505,1000,1000,1505,2008,1054,1014,0.2050,-0.0521,-0.1272,-0.0065,0.0018,0.9938,0.3374,-0.0282,-0.3373,0.0281,0.4430,0.3324,0.0485,0.4430,0.3324,0.0485,0.3000,0.0600,0.0002,0,-0.3000,-100.0000,-0.0010,-0.3000,-100.0000,-0.0010,13.6882,44.6313,0.0200,0.0000
-22.3666,34.8681,-7.2816,0.5801,-0.0821,0.1200,0.0000,0.0000,0.0000,0.1826,-0.1545,-0.0002,996,1502,1500,1500,2008,1000,1505,1000,1000,1505,2008,1054,1014,0.1965,0.0501,-0.0444,-0.0058,0.0010,0.9913,0.3369,-0.0279,-0.3373,0.0283,0.4430,0.3324,0.0485,0.4430,0.3324,0.0485,0.3000,0.0600,0.0002,0,-0.3000,-100.0000,-0.0010,-0.3000,-100.0000,-0.0010,13.7267,44.6706,0.0200,0.0000
-22.3371,34.8373,-7.2662,0.5801,-0.0000,0.1200,0.0000,0.0000,0.0000,0.1825,-0.1543,-0.0003,996,1502,1500,1500,2008,1000,1505,1000,1000,1505,2008,1054,1014,0.1768,0.0048,0.0047,-0.0066,0.0017,0.9881,0.3365,-0.0278,-0.3372,0.0285,0.4430,0.3324,0.0485,0.4430,0.3324,0.0485,0.3000,0.0600,0.0002,0,-0.3000,-100.0000,-0.0010,-0.3000,-100.0000,-0.0010,13.7652,44.7098,0.0200,0.0000
-22.3072,34.8063,-7.2503,0.5801,-0.0821,0.1200,0.0000,0.0000,0.0000,0.1823,-0.1542,-0.0005,996,1502,1500,1500,2008,1000,1505,1000,1000,1505,2008,1054,1014,0.2240,0.0475,0.0714,-0.0075,-0.0004,0.9891,0.3360,-0.0276,-0.3371,0.0287,0.4430,0.3324,0.0485,0.4430,0.3324,0.0485,0.3000,0.0600,0.0002,0,-0.3000,-100.0000,-0.0010,-0.3000,-100.0000,-0.0010,13.8038,44.7490,0.0200,0.0000
-22.2775,34.7757,-7.2344,0.5801,-0.0821,0.1200,0.0000,0.0000,0.0000,0.1823,-0.1541,-0.0002,996,1502,1500,1500,2008,1000,1505,1000,1000,1505,2008,1054,1014,0.1480,0.0729,-0.0175,-0.0054,0.0024,0.9939,0.3361,-0.0279,-0.3366,0.0284,0.4430,0.3324,0.0485,0.4430,0.3324,0.0485,0.3000,0.0600,0.0002,0,-0.3000,-100.0000,-0.0010,-0.3000,-100.0000,-0.0010,13.8423,44.7883,0.0200,0.0000
-22.2479,34.7447,-7.2193,0.5801,-0.0821,0.1800,0.0000,0.0000,0.0000,0.1823,-0.1539,-0.0010,996,1502,1500,1500,2008,1000,1505,1000,1000,1505,2008,1054,1014,0.2353,0.0279,-0.0521,-0.0052,0.0013,0.9955,0.3352,-0.0274,-0.3373,0.0295,0.4430,0.3324,0.0485,0.4430,0.3324,0.0485,0.3000,0.0600,0.0002,0,-0.3000,-100.0000,-0.0010,-0.3000,-100.0000,-0.0010,13.8809,44.8275,0.0300,0.0000
-22.2184,34.7139,-7.2040,0.4972,-0.0821,0.1200,0.0000,0.0000,0.0000,0.1820,-0.1537,-0.0005,996,1502,1500,1500,2008,1000,1505,1000,1000,1505,2008,1054,1014,0.2191,-0.0775,0.0448,-0.0021,0.0007,0.9893,0.3352,-0.0278,-0.3362,0.0287,0.4430,0.3324,0.0485,0.4430,0.3324,0.0485,0.3000,0.0600,0.0002,0,-0.3000,-100.0000,-0.0010,-0.3000,-100.0000,-0.0010,13.9195,44.8667,0.0200,0.0000
-22.1883,34.6827,-7.1880,0.5801,-0.0821,0.1200,0.0000,0.0000,0.0000,0.1818,-0.1537,-0.0004,996,1502,1500,1500,2008,1000,1505,1000,1000,1505,2008,1054,1014,0.1899,0.0661,0.0385,-0.0065,0.0008,0.9889,0.3351,-0.0277,-0.3359,0.0286,0.4430,0.3324,0.0485,0.4430,0.3324,0.0485,0.3000,0.0600,0.0002,0,-0.3000,-100.0000,-0.0010,-0.3000,-100.0000,-0.0010,13.9581,44.9059,0.0200,0.0000
-22.1585,34.6512,-7.1723,0.5801,-0.0821,0.1200,0.0000,0.0000,0.0000,0.1817,-0.1535,-0.0003,996,1502,1500,1500,2008,1000,1505,1000,1000,1505,2008,1054,1014,0.1720,-0.0574,0.0011,-0.0087,-0.0001,0.9864,0.3349,-0.0279,-0.3355,0.0285,0.4430,0.3324,0.0485,0.4430,0.3324,0.0485,0.3000,0.0600,0.0002,0,-0.3000,-100.0000,-0.0010,-0.3000,-100.0000,-0.0010,13.9967,44.9450,0.0200,0.0000
-22.1289,34.6198,-7.1569,0.5801,-0.0821,0.1200,0.0000,0.0000,0.0000,0.1816,-0.1534,-0.0003,996,1502,1500,1500,2008,1000,1505,1000,1000,1505,2008,1054,1014,0.1601,-0.0102,-0.0366,-0.0065,-0.0004,0.9912,0.3347,-0.0280,-0.3352,0.0285,0.4430,0.3324,0.0485,0.4430,0.3324,0.0485,0.3000,0.0600,0.0002,0,-0.3000,-100.0000,-0.0010,-0.3000,-100.0000,-0.0010,14.0353,44.9841,0.0200,0.0000
-22.0999,34.5882,-7.1417,0.5801,-0.0821,0.1200,0.0000,0.0000,0.0000,0.1814,-0.1532,-0.0001,996,1502,1500,1500,2008,1000,1505,1000,1000,1505,2008,1054,1014,0.1987,-0.0138,-0.0587,-0.0064,0.0001,0.9899,0.3346,-0.0281,-0.3348,0.0283,0.4430,0.3324,0.0485,0.4430,0.3324,0.0485,0.3000,0.0600,0.0002,0,-0.3000,-100.0000,-0.0010,-0.3000,-100.0000,-0.0010,14.0739,45.0232,0.0200,0.0000
-22.0702,34.5571,-7.1265,0.5801,-0.0821,0.1800,0.0000,0.0000,0.0000,0.1816,-0.1531,-0.0011,996,1502,1500,1500,2008,1000,1505,1000,1000,1505,2008,1054,1014,0.2030,0.0093,-0.0593,-0.0085,0.0004,0.9918,0.3336,-0.0274,-0.3358,0.0296,0.4430,0.3324,0.0485,0.4430,0.3324,0.0485,0.3000,0.0600,0.0002,0,-0.3000,-100.0000,-0.0010,-0.3000,-100.0000,-0.0010,14.1125,45.0623,0.0300,0.0000
-22.0401,34.5254,-7.1111,0.5801,-0.0821,0.1200,0.0000,0.0000,0.0000,0.1812,-0.1529,-0.0001,996,1502,1500,1500,2008,1000,1505,1000,1000,1505,2008,1054,1014,0.2349,-0.0078,-0.0507,-0.0050,0.0033,0.9902,0.3340,-0.0281,-0.3342,0.0283,0.4430,0.3324,0.0485,0.4430,0.3324,0.0485,0.3000,0.0600,0.0002,0,-0.3000,-100.0000,-0.0010,-0.3000,-100.0000,-0.0010,14.1511,45.1014,0.0200,0.0000
-22.0105,34.4936,-7.0959,0.5801,-0.0821,0.1200,0.0000,0.0000,0.0000,0.1810,-0.1528,-0.0003,996,1502,1500,1500,2008,1000,1505,1000,1000,1505,2008,1054,1014,0.1903,0.0147,-0.0003,-0.0072,0.0030,0.9892,0.3336,-0.0279,-0.3342,0.0285,0.4430,0.3324,0.0485,0.4430,0.3324,0.0485,0.3000,0.0600,0.0002,0,-0.3000,-100.0000,-0.0010,-0.3000,-100.0000,-0.0010,14.1897,45.1405,0.0200,0.0000
-21.9815,34.4620,-7.0812,0.5801,-0.0821,0.1200,0.0000,0.0000,0.0000,0.1809,-0.1527,0.0001,996,1502,1500,1500,2008,1000,1505,1000,1000,1505,2008,1054,1014,0.2209,0.0368,-0.1564,-0.0046,0.0015,0.9912,0.3337,-0.0283,-0.3335,0.0281,0.4430,0.3324,0.0485,0.4430,0.3324,0.0485,0.3000,0.0600,0.0002,0,-0.3000,-100.0000,-0.0010,-0.3000,-100.0000,-0.0010,14.2284,45.1795,0.0200,0.0000
-21.9523,34.4302,-7.0664,0.5801,-0.0821,0.1200,0.0000,0.0000,0.0000,0.1808,-0.1526,-0.0001,996,1502,1500,1500,2008,1000,1505,1000,1000,1505,2008,1054,1014,0.2627,0.0543,-0.0782,-0.0071,-0.0001,0.9923,0.3332,-0.0281,-0.3334,0.0283,0.4430,0.3324,0.0485,0.4430,0.3324,0.0485,0.3000,0.0600,0.0002,0,-0.3000,-100.0000,-0.0010,-0.3000,-100.0000,-0.0010,14.2670,45.2185,0.0200,0.0000
-21.9226,34.3992,-7.0516,0.5801,-0.0821,0.1200,0.0000,0.0000,0.0000,0.1806,-0.1524,-0.0002,996,1502,1500,1500,2008,1000,1505,1000,1000,1505,2008,1054,1014,0.2627,0.1089,-0.0418,-0.0066,0.0001,0.9925,0.3329,-0.0280,-0.3332,0.0283,0.4430,0.3324,0.0485,0.4430,0.3324,0.0485,0.3000,0.0600,0.0002,0,-0.3000,-100.0000,-0.0010,-0.3000,-100.0000,-0.0010,14.3057,45.2576,0.0200,0.0000
-21.8930,34.3679,-7.0372,0.5801,-0.0821,0.1800,0.0000,0.0000,0.0000,0.1808,-0.1523,-0.0010,996,1502,1500,1500,2008,1000,1505,1000,1000,1505,2008,1054,1014,0.2676,0.0523,-0.0893,-0.0076,0.0019,0.9922,0.3320,-0.0275,-0.3340,0.0295,0.4430,0.3324,0.0485,0.4430,0.3324,0.0485,0.3000,0.0600,0.0002,0,-0.3000,-100.0000,-0.0010,-0.3000,-100.0000,-0.0010,14.3443,45.2966,0.0300,0.0000
-21.8632,34.3362,-7.0230,0.5801,-0.0821,0.1200,0.0000,0.0000,0.0000,0.1804,-0.1521,-0.0002,996,1502,1500,1500,2008,1000,1505,1000,1000,1505,2008,1054,1014,0.2708,0.0271,-0.0516,-0.0048,-0.0000,0.9923,0.3323,-0.0281,-0.3327,0.0284,0.4430,0.3324,0.0485,0.4430,0.3324,0.0485,0.3000,0.0600,0.0002,0,-0.3000,-100.0000,-0.0010,-0.3000,-100.0000,-0.0010,14.3830,45.3356,0.0200,0.0000
-21.8332,34.3040,-7.0074,0.5801,-0.0821,0.1200,0.0000,0.0000,0.0000,0.1802,-0.1519,-0.0002,996,1502,1500,1500,2008,1000,1505,1000,1000,1505,2008,1054,1014,0.2292,-0.0515,-0.0177,-0.0056,-0.0005,0.9977,0.3319,-0.0281,-0.3324,0.0285,0.4430,0.3324,0.0485,0.4430,0.3324,0.0485,0.3000,0.0600,0.0002,0,-0.3000,-100.0000,-0.0010,-0.3000,-100.0000,-0.0010,14.4217,45.3746,0.0200,0.0000
-21.8035,34.2718,-6.9922,0.5801,-0.0821,0.1200,0.0000,0.0000,0.0000,0.1801,-0.1519,-0.0000,996,1502,1500,1500,2008,1000,1505,1000,1000,1505,2008,1054,1014,0.2837,0.0865,-0.0811,-0.0091,0.0004,0.9910,0.3319,-0.0282,-0.3320,0.0283,0.4430,0.3324,0.0485,0.4430,0.3324,0.0485,0.3000,0.0600,0.0002,0,-0.3000,-100.0000,-0.0010,-0.3000,-100.0000,-0.0010,14.4604,45.4136,0.0200,0.0000
-21.7737,34.2401,-6.9775,0.5801,-0.0821,0.1200,0.0000,0.0000,0.0000,0.1800,-0.1517,-0.0003,996,1502,1500,1500,2008,1000,1505,1000,1000,1505,2008,1054,1014,0.2397,0.0203,0.0029,-0.0089,0.0017,0.9880,0.3313,-0.0279,-0.3320,0.0286,0.4430,0.3324,0.0485,0.4430,0.3324,0.0485,0.3000,0.0600,0.0002,0,-0.3000,-100.0000,-0.0010,-0.3000,-100.0000,-0.0010,14.4991,45.4526,0.0200,0.0000
-21.7433,34.2084,-6.9615,0.5801,-0.0821,0.1200,0.0000,0.0000,0.0000,0.1798,-0.1515,-0.0005,996,1502,1500,1500,2008,1000,1505,1000,1000,1505,2008,1054,1014,0.2286,-0.0025,0.0414,-0.0056,0.0023,0.9922,0.3309,-0.0278,-0.3319,0.0288,0.4430,0.3324,0.0485,0.4430,0.3324,0.0485,0.3000,0.0600,0.0002,0,-0.3000,-100.0000,-0.0010,-0.3000,-100.0000,-0.0010,14.5378,45.4917,0.0200,0.0000
-21.7133,34.1771,-6.9459,0.5801,-0.0821,0.1800,0.0000,0.0000,0.0000,0.1800,-0.1514,-0.0013,996,1502,1500,1500,2008,1000,1505,1000,1000,1505,2008,1054,1014,0.1867,0.0447,0.0239,-0.0091,0.0016,0.9875,0.3301,-0.0273,-0.3327,0.0299,0.4430,0.3324,0.0485,0.4430,0.3324,0.0485,0.3000,0.0600,0.0002,0,-0.3000,-100.0000,-0.0010,-0.3000,-100.0000,-0.0010,14.5766,45.5307,0.0300,0.0000
-21.6834,34.1460,-6.9305,0.5801,-0.0821,0.1200,0.0000,0.0000,0.0000,0.1796,-0.1513,-0.0004,996,1502,1500,1500,2008,1000,1505,1000,1000,1505,2008,1054,1014,0.2854,0.0562,0.0341,-0.0080,0.0018,0.9901,0.3304,-0.0279,-0.3312,0.0287,0.4430,0.3324,0.0485,0.4430,0.3324,0.0485,0.3000,0.0600,0.0002,0,-0.3000,-100.0000,-0.0010,-0.3000,-100.0000,-0.0010,14.6154,45.5697,0.0200,0.0000
-21.6530,34.1144,-6.9149,0.5801,-0.0821,0.1200,0.0000,0.0000,0.0000,0.1794,-0.1511,-0.0002,996,1502,1500,1500,2008,1000,1505,1000,1000,1505,2008,1054,1014,0.2344,-0.0185,-0.0264,-0.0072,0.0021,0.9932,0.3304,-0.0281,-0.3307,0.0285,0.4430,0.3324,0.0485,0.4430,0.3324,0.0485,0.3000,0.0600,0.0002,0,-0.3000,-100.0000,-0.0010,-0.3000,-100.0000,-0.0010,14.6541,45.6087,0.0200,0.0000
-21.6229,34.0833,-6.8989,0.5801,-0.0000,0.1200,0.0000,0.0000,0.0000,0.1793,-0.1510,-0.0005,996,1502,1500,1500,2008,1000,1505,1000,1000,1505,2008,1054,1014,0.1566,0.0393,0.0825,-0.0082,-0.0001,0.9902,0.3298,-0.0278,-0.3309,0.0288,0.4430,0.3324,0.0485,0.4430,0.3324,0.0485,0.3000,0.0600,0.0002,0,-0.3000,-100.0000,-0.0010,-0.3000,-100.0000,-0.0010,14.6929,45.6477,0.0200,0.0000
-21.5935,34.0509,-6.8832,0.5801,-0.0821,0.1200,0.0000,0.0000,0.0000,0.1792,-0.1508,-0.0001,996,1502,1500,1500,2008,1000,1505,1000,1000,1505,2008,1054,1014,0.1487,-0.0550,-0.0557,-0.0071,0.0007,0.9916,0.3299,-0.0283,-0.3301,0.0285,0.4430,0.3324,0.0485,0.4430,0.3324,0.0485,0.3000,0.0600,0.0002,0,-0.3000,-100.0000,-0.0010,-0.3000,-100.0000,-0.0010,14.7317,45.6866,0.0200,0.0000
-21.5652,34.0186,-6.8682,0.5801,-0.0821,0.1200,0.0000,0.0000,0.0000,0.1791,-0.1507,-0.0001,996,1502,1500,1500,2008,1000,1505,1000,1000,1505,2008,1054,1014,0.1706,-0.0377,-0.0426,-0.0066,-0.0007,0.9905,0.3296,-0.0283,-0.3299,0.0285,0.4430,0.3324,0.0485,0.4430,0.3324,0.0485,0.3000,0.0600,0.0002,0,-0.3000,-100.0000,-0.0010,-0.3000,-100.0000,-0.0010,14.7705,45.7256,0.0200,0.0000
-21.5359,33.9871,-6.8529,0.5801,-0.0821,0.1800,0.0000,0.0000,0.0000,0.1792,-0.1506,-0.0012,996,1502,1500,1500,2008,1000,1505,1000,1000,1505,2008,1054,1014,0.2422,-0.0027,-0.0178,-0.0049,-0.0042,0.9921,0.3286,-0.0275,-0.3309,0.0298,0.4430,0.3324,0.0485,0.4430,0.3324,0.0485,0.3000,0.0600,0.0002,0,-0.3000,-100.0000,-0.0010,-0.3000,-100.0000,-0.0010,14.8093,45.7646,0.0300,0.0000
-21.5062,33.9551,-6.8381,0.5801,-0.0821,0.1200,0.0000,0.0000,0.0000,0.1788,-0.1505,-0.0002,996,1502,1500,1500,2008,1000,1505,1000,1000,1505,2008,1054,1014,0.2976,0.0677,-0.0310,-0.0053,0.0010,0.9893,0.3290,-0.0281,-0.3294,0.0285,0.4430,0.3324,0.0485,0.4430,0.3324,0.0485,0.3000,0.0600,0.0002,0,-0.3000,-100.0000,-0.0010,-0.3000,-100.0000,-0.0010,14.8481,45.8035,0.0200,0.0000
-21.4762,33.9238,-6.8234,0.5801,-0.0821,0.1200,0.0000,0.0000,0.0000,0.1786,-0.1503,0.0000,996,1502,1500,1500,2008,1000,1505,1000,1000,1505,2008,1054,1014,0.2777,0.0416,-0.1017,-0.0075,0.0008,0.9911,0.3290,-0.0284,-0.3289,0.0283,0.4430,0.3324,0.0485,0.4430,0.3324,0.0485,0.3000,0.0600,0.0002,0,-0.3000,-100.0000,-0.0010,-0.3000,-100.0000,-0.0010,14.8870,45.8425,0.0200,0.0000
-21.4469,33.8918,-6.8092,0.5801,-0.0821,0.1200,0.0000,0.0000,0.0000,0.1785,-0.1502,-0.0000,996,1502,1500,1500,2008,1000,1505,1000,1000,1505,2008,1054,1014,0.2436,0.0405,-0.0868,-0.0058,0.0013,0.9929,0.3286,-0.0283,-0.3287,0.0284,0.4430,0.3324,0.0485,0.4430,0.3324,0.0485,0.3000,0.0600,0.0002,0,-0.3000,-100.0000,-0.0010,-0.3000,-100.0000,-0.0010,14.9258,45.8814,0.0200,0.0000
-21.4176,33.8602,-6.7949,0.5801,-0.0821,0.1200,0.0000,0.0000,0.0000,0.1784,-0.1500,-0.0004,996,1502,1500,1500,2008,1000,1505,1000,1000,1505,2008,1054,1014,0.2644,0.0341,0.0452,-0.0044,-0.0006,0.9903,0.3280,-0.0279,-0.3288,0.0288,0.4430,0.3324,0.0485,0.4430,0.3324,0.0485,0.3000,0.0600,0.0002,0,-0.3000,-100.0000,-0.0010,-0.3000,-100.0000,-0.0010,14.9647,45.9203,0.0200,0.0000
-21.3878,33.8289,-6.7794,0.5801,-0.0821,0.1200,0.0000,0.0000,0.0000,0.1783,-0.1499,-0.0004,996,1502,1500,1500,2008,1000,1505,1000,1000,1505,2008,1054,1014,0.1953,0.0778,0.0383,-0.0066,-0.0011,0.9908,0.3278,-0.0280,-0.3286,0.0288,0.4430,0.3324,0.0485,0.4430,0.3324,0.0485,0.3000,0.0600,0.0002,0,-0.3000,-100.0000,-0.0010,-0.3000,-100.0000,-0.0010,15.0035,45.9592,0.0200,0.0000
-21.3580,33.7968,-6.7643,0.5801,-0.0821,0.1800,0.0000,0.0000,0.0000,0.1784,-0.1497,-0.0011,996,1502,1500,1500,2008,1000,1505,1000,1000,1505,2008,1054,1014,0.2712,-0.0431,-0.0690,-0.0046,-0.0001,0.9940,0.3270,-0.0276,-0.3291,0.0297,0.4430,0.3324,0.0485,0.4430,0.3324,0.0485,0.3000,0.0600,0.0002,0,-0.3000,-100.0000,-0.0010,-0.3000,-100.0000,-0.0010,15.0424,45.9982,0.0300,0.0000
-21.3291,33.7652,-6.7504,0.5801,-0.0821,0.1200,0.0000,0.0000,0.0000,0.1780,-0.1496,-0.0001,996,1502,1500,1500,2008,1000,1505,1000,1000,1505,2008,1054,1014,0.2437,0.0817,-0.0723,-0.0071,-0.0001,0.9875,0.3275,-0.0283,-0.3277,0.0285,0.4430,0.3324,0.0485,0.4430,0.3324,0.0485,0.3000,0.0600,0.0002,0,-0.3000,-100.0000,-0.0010,-0.3000,-100.0000,-0.0010,15.0813,46.0370,0.0200,0.0000
-21.3001,33.7333,-6.7363,0.5801,-0.0821,0.1200,0.0000,0.0000,0.0000,0.1779,-0.1495,-0.0004,996,1502,1500,1500,2008,1000,1505,1000,1000,1505,2008,1054,1014,0.2164,0.0660,0.0104,-0.0041,-0.0009,0.9908,0.3270,-0.0280,-0.3277,0.0288,0.4430,0.3324,0.0485,0.4430,0.3324,0.0485,0.3000,0.0600,0.0002,0,-0.3000,-100.0000,-0.0010,-0.3000,-100.0000,-0.0010,15.1202,46.0759,0.0200,0.0000
-21.2702,33.7018,-6.7213,0.5801,-0.0821,0.1200,0.0000,0.0000,0.0000,0.1777,-0.1493,-0.0003,996,1502,1500,1500,2008,1000,1505,1000,1000,1505,2008,1054,1014,0.2800,0.0870,-0.0156,-0.0083,-0.0001,0.9936,0.3268,-0.0281,-0.3273,0.0286,0.4430,0.3324,0.0485,0.4430,0.3324,0.0485,0.3000,0.0600,0.0002,0,-0.3000,-100.0000,-0.0010,-0.3000,-100.0000,-0.0010,15.1591,46.1147,0.0200,0.0000
-21.2409,33.6701,-6.7067,0.5801,-0.0821,0.1200,0.0000,0.0000,0.0000,0.1776,-0.1492,-0.0004,996,1502,1500,1500,2008,1000,1505,1000,1000,1505,2008,1054,1014,0.1905,0.0259,0.0310,-0.0062,-0.0021,0.9869,0.3264,-0.0280,-0.3272,0.0289,0.4430,0.3324,0.0485,0.4430,0.3324,0.0485,0.3000,0.0600,0.0002,0,-0.3000,-100.0000,-0.0010,-0.3000,-100.0000,-0.0010,15.1980,46.1536,0.0200,0.0000
-21.2119,33.6382,-6.6922,0.5801,-0.0821,0.1200,0.0000,0.0000,0.0000,0.1775,-0.1490,-0.0001,996,1502,1500,1500,2008,1000,1505,1000,1000,1505,2008,1054,1014,0.1849,0.0587,-0.0642,-0.0058,0.0014,0.9895,0.3264,-0.0284,-0.3267,0.0286,0.4430,0.3324,0.0485,0.4430,0.3324,0.0485,0.3000,0.0600,0.0002,0,-0.3000,-100.0000,-0.0010,-0.3000,-100.0000,-0.0010,15.2369,46.1924,0.0200,0.0000
-21.1824,33.6066,-6.6773,0.5801,-0.0821,0.1800,0.0000,0.0000,0.0000,0.1776,-0.1489,-0.0013,996,1502,1500,1500,2008,1000,1505,1000,1000,1505,2008,1054,1014,0.2443,0.0288,0.0370,-0.0046,0.0008,0.9914,0.3252,-0.0274,-0.3279,0.0301,0.4430,0.3324,0.0485,0.4430,0.3324,0.0485,0.3000,0.0600,0.0002,0,-0.3000,-100.0000,-0.0010,-0.3000,-100.0000,-0.0010,15.2758,46.2313,0.0300,0.0000
-21.1527,33.5750,-6.6622,0.5801,-0.0821,0.1200,0.0000,0.0000,0.0000,0.1772,-0.1488,-0.0005,996,1502,1500,1500,2008,1000,1505,1000,1000,1505,2008,1054,1014,0.2111,0.0557,0.0798,-0.0092,-0.0005,0.9908,0.3255,-0.0279,-0.3265,0.0290,0.4430,0.3324,0.0485,0.4430,0.3324,0.0485,0.3000,0.0600,0.0002,0,-0.3000,-100.0000,-0.0010,-0.3000,-100.0000,-0.0010,15.3148,46.2701,0.0200,0.0000
-21.1237,33.5432,-6.6472,0.4972,-0.0821,0.1200,0.0000,0.0000,0.0000,0.1771,-0.1486,-0.0004,996,1502,1500,1500,2008,1000,1505,1000,1000,1505,2008,1054,1014,0.1563,-0.0256,0.0328,-0.0083,-0.0000,0.9880,0.3253,-0.0281,-0.3262,0.0290,0.4430,0.3324,0.0485,0.4430,0.3324,0.0485,0.3000,0.0600,0.0002,0,-0.3000,-100.0000,-0.0010,-0.3000,-100.0000,-0.0010,15.3537,46.3090,0.0200,0.0000
-21.0937,33.5111,-6.6316,0.5801,-0.0821,0.1200,0.0000,0.0000,0.0000,0.1770,-0.1485,-0.0004,996,1502,1500,1500,2008,1000,1505,1000,1000,1505,2008,1054,1014,0.2187,-0.0006,0.0525,-0.0059,-0.0008,0.9888,0.3250,-0.0281,-0.3259,0.0290,0.4430,0.3324,0.0485,0.4430,0.3324,0.0485,0.3000,0.0600,0.0002,0,-0.3000,-100.0000,-0.0010,-0.3000,-100.0000,-0.0010,15.3927,46.3478,0.0200,0.0000
-21.0644,33.4791,-6.6162,0.5801,-0.0821,0.1200,0.0000,0.0000,0.0000,0.1769,-0.1483,-0.0002,996,1502,1500,1500,2008,1000,1505,1000,1000,1505,2008,1054,1014,0.1829,0.0677,-0.0381,-0.0099,-0.0003,0.9892,0.3250,-0.0283,-0.3254,0.0287,0.4430,0.3324,0.0485,0.4430,0.3324,0.0485,0.3000,0.0600,0.0002,0,-0.3000,-100.0000,-0.0010,-0.3000,-100.0000,-0.0010,15.4317,46.3866,0.0200,0.0000
-21.0351,33.4473,-6.6014,0.5801,-0.0000,0.1200,0.0000,0.0000,0.0000,0.1767,-0.1482,-0.0004,996,1502,1500,1500,2008,1000,1505,1000,1000,1505,2008,1054,1014,0.2430,0.0253,0.0203,-0.0084,0.0010,0.9900,0.3245,-0.0282,-0.3252,0.0289,0.4430,0.3324,0.0485,0.4430,0.3324,0.0485,0.3000,0.0600,0.0002,0,-0.3000,-100.0000,-0.0010,-0.3000,-100.0000,-0.0010,15.4707,46.4254,0.0200,0.0000
-21.0059,33.4151,-6.5865,0.5801,-0.0821,0.1800,0.0000,0.0000,0.0000,0.1769,-0.1480,-0.0013,996,1502,1500,1500,2008,1000,1505,1000,1000,1505,2008,1054,1014,0.1312,-0.0177,0.0108,-0.0039,-0.0006,0.9929,0.3236,-0.0276,-0.3262,0.0302,0.4430,0.3324,0.0485,0.4430,0.3324,0.0485,0.3000,0.0600,0.0002,0,-0.3000,-100.0000,-0.0010,-0.3000,-100.0000,-0.0010,15.5097,46.4641,0.0300,0.0000
-20.9776,33.3824,-6.5717,0.5801,-0.0821,0.1200,0.0000,0.0000,0.0000,0.1765,-0.1479,-0.0000,996,1502,1500,1500,2008,1000,1505,1000,1000,1505,2008,1054,1014,0.1622,-0.0354,-0.0855,-0.0072,-0.0015,0.9912,0.3243,-0.0286,-0.3244,0.0286,0.4430,0.3324,0.0485,0.4430,0.3324,0.0485,0.3000,0.0600,0.0002,0,-0.3000,-100.0000,-0.0010,-0.3000,-100.0000,-0.0010,15.5487,46.5028,0.0200,0.0000
-20.9488,33.3495,-6.5577,0.5801,-0.0821,0.1200,0.0000,0.0000,0.0000,0.1764,-0.1477,-0.0002,996,1502,1500,1500,2008,1000,1505,1000,1000,1505,2008,1054,1014,0.1426,-0.0285,-0.0442,-0.0041,0.0032,0.9903,0.3239,-0.0285,-0.3243,0.0288,0.4430,0.3324,0.0485,0.4430,0.3324,0.0485,0.3000,0.0600,0.0002,0,-0.3000,-100.0000,-0.0010,-0.3000,-100.0000,-0.0010,15.5877,46.5415,0.0200,0.0000
-20.9196,33.3167,-6.5426,0.5801,-0.0821,0.1200,0.0000,0.0000,0.0000,0.1762,-0.1476,-0.0003,996,1502,1500,1500,2008,1000,1505,1000,1000,1505,2008,1054,1014,0.1893,-0.0821,0.0241,-0.0061,-0.0005,0.9865,0.3234,-0.0283,-0.3241,0.0290,0.4430,0.3324,0.0485,0.4430,0.3324,0.0485,0.3000,0.0600,0.0002,0,-0.3000,-100.0000,-0.0010,-0.3000,-100.0000,-0.0010,15.6267,46.5802,0.0200,0.0000
-20.8901,33.2847,-6.5276,0.5801,-0.0821,0.1200,0.0000,0.0000,0.0000,0.1761,-0.1475,-0.0003,996,1502,1500,1500,2008,1000,1505,1000,1000,1505,2008,1054,1014,0.2288,0.0311,-0.0093,-0.0071,0.0022,0.9931,0.3232,-0.0283,-0.3238,0.0289,0.4430,0.3324,0.0485,0.4430,0.3324,0.0485,0.3000,0.0600,0.0002,0,-0.3000,-100.0000,-0.0010,-0.3000,-100.0000,-0.0010,15.6657,46.6189,0.0200,0.0000
-20.8607,33.2526,-6.5127,0.5801,-0.0000,0.1200,0.0000,0.0000,0.0000,0.1759,-0.1473,-0.0001,996,1502,1500,1500,2008,1000,1505,1000,1000,1505,2008,1054,1014,0.2047,-0.0013,-0.0335,-0.0061,0.0019,0.9943,0.3231,-0.0285,-0.3234,0.0288,0.4430,0.3324,0.0485,0.4430,0.3324,0.0485,0.3000,0.0600,0.0002,0,-0.3000,-100.0000,-0.0010,-0.3000,-100.0000,-0.0010,15.7048,46.6576,0.0200,0.0000
-20.8317,33.2201,-6.4977,0.5801,-0.0821,0.1800,0.0000,0.0000,0.0000,0.1761,-0.1472,-0.0012,996,1502,1500,1500,2008,1000,1505,1000,1000,1505,2008,1054,1014,0.1117,-0.0122,0.0031,-0.0089,0.0001,0.9903,0.3221,-0.0278,-0.3245,0.0302,0.4430,0.3324,0.0485,0.4430,0.3324,0.0485,0.3000,0.0600,0.0002,0,-0.3000,-100.0000,-0.0010,-0.3000,-100.0000,-0.0010,15.7438,46.6963,0.0300,0.0000
-20.8032,33.1880,-6.4839,0.5801,-0.0821,0.1200,0.0000,0.0000,0.0000,0.1757,-0.1470,-0.0000,996,1502,1500,1500,2008,1000,1505,1000,1000,1505,2008,1054,1014,0.2229,0.0397,-0.0868,-0.0083,0.0026,0.9892,0.3227,-0.0286,-0.3228,0.0287,0.4430,0.3324,0.0485,0.4430,0.3324,0.0485,0.3000,0.0600,0.0002,0,-0.3000,-100.0000,-0.0010,-0.3000,-100.0000,-0.0010,15.7829,46.7350,0.0200,0.0000
-20.7741,33.1555,-6.4699,0.5801,-0.0821,0.1200,0.0000,0.0000,0.0000,0.1756,-0.1469,-0.0001,996,1502,1500,1500,2008,1000,1505,1000,1000,1505,2008,1054,1014,0.1959,0.0324,-0.0687,-0.0112,0.0026,0.9876,0.3224,-0.0286,-0.3226,0.0288,0.4430,0.3324,0.0485,0.4430,0.3324,0.0485,0.3000,0.0600,0.0002,0,-0.3000,-100.0000,-0.0010,-0.3000,-100.0000,-0.0010,15.8219,46.7737,0.0200,0.0000
-20.7451,33.1227,-6.4558,0.5801,-0.0821,0.1200,0.0000,0.0000,0.0000,0.1754,-0.1467,-0.0002,996,1502,1500,1500,2008,1000,1505,1000,1000,1505,2008,1054,1014,0.2231,-0.1054,-0.0237,-0.0094,-0.0002,0.9894,0.3219,-0.0285,-0.3224,0.0290,0.4430,0.3324,0.0485,0.4430,0.3324,0.0485,0.3000,0.0600,0.0002,0,-0.3000,-100.0000,-0.0010,-0.3000,-100.0000,-0.0010,15.8611,46.8123,0.0200,0.0000
-20.7157,33.0900,-6.4413,0.4972,-0.0821,0.1200,0.0000,0.0000,0.0000,0.1753,-0.1466,0.0000,996,1502,1500,1500,2008,1000,1505,1000,1000,1505,2008,1054,1014,0.2331,-0.0655,-0.0941,-0.0067,0.0011,0.9931,0.3219,-0.0287,-0.3218,0.0287,0.4430,0.3324,0.0485,0.4430,0.3324,0.0485,0.3000,0.0600,0.0002,0,-0.3000,-100.0000,-0.0010,-0.3000,-100.0000,-0.0010,15.9002,46.8510,0.0200,0.0000
-20.6865,33.0575,-6.4275,0.5801,-0.0821,0.1200,0.0000,0.0000,0.0000,0.1751,-0.1465,-0.0001,996,1502,1500,1500,2008,1000,1505,1000,1000,1505,2008,1054,1014,0.2784,0.0573,-0.0534,-0.0047,0.0013,0.9971,0.3215,-0.0285,-0.3218,0.0288,0.4430,0.3324,0.0485,0.4430,0.3324,0.0485,0.3000,0.0600,0.0002,0,-0.3000,-100.0000,-0.0010,-0.3000,-100.0000,-0.0010,15.9393,46.8897,0.0200,0.0000
-20.6575,33.0252,-6.4139,0.5801,-0.0821,0.1800,0.0000,0.0000,0.0000,0.1753,-0.1463,-0.0011,996,1502,1500,1500,2008,1000,1505,1000,1000,1505,2008,1054,1014,0.2268,0.0160,-0.0543,-0.0065,-0.0009,0.9904,0.3205,-0.0279,-0.3227,0.0301,0.4430,0.3324,0.0485,0.4430,0.3324,0.0485,0.3000,0.0600,0.0002,0,-0.3000,-100.0000,-0.0010,-0.3000,-100.0000,-0.0010,15.9784,46.9283,0.0300,0.0000
-20.6281,32.9924,-6.3994,0.5801,-0.0821,0.1200,0.0000,0.0000,0.0000,0.1749,-0.1462,-0.0004,996,1502,1500,1500,2008,1000,1505,1000,1000,1505,2008,1054,1014,0.2466,0.0157,0.0448,-0.0086,-0.0011,0.9933,0.3206,-0.0283,-0.3215,0.0292,0.4430,0.3324,0.0485,0.4430,0.3324,0.0485,0.3000,0.0600,0.0002,0,-0.3000,-100.0000,-0.0010,-0.3000,-100.0000,-0.0010,16.0176,46.9670,0.0200,0.0000
-20.5988,32.9595,-6.3842,0.5801,-0.0821,0.1200,0.0000,0.0000,0.0000,0.1748,-0.1460,-0.0002,996,1502,1500,1500,2008,1000,1505,1000,1000,1505,2008,1054,1014,0.2050,-0.0646,-0.0347,-0.0039,0.0007,0.9888,0.3206,-0.0286,-0.3209,0.0290,0.4430,0.3324,0.0485,0.4430,0.3324,0.0485,0.3000,0.0600,0.0002,0,-0.3000,-100.0000,-0.0010,-0.3000,-100.0000,-0.0010,16.0567,47.0057,0.0200,0.0000
-20.5696,32.9273,-6.3702,0.5801,-0.0821,0.1200,0.0000,0.0000,0.0000,0.1746,-0.1459,-0.0002,996,1502,1500,1500,2008,1000,1505,1000,1000,1505,2008,1054,1014,0.2278,0.1210,-0.0561,-0.0087,-0.0005,0.9890,0.3204,-0.0286,-0.3207,0.0289,0.4430,0.3324,0.0485,0.4430,0.3324,0.0485,0.3000,0.0600,0.0002,0,-0.3000,-100.0000,-0.0010,-0.3000,-100.0000,-0.0010,16.0959,47.0443,0.0200,0.0000
-20.5400,32.8954,-6.3559,0.5801,-0.0821,0.1200,0.0000,0.0000,0.0000,0.1745,-0.1458,-0.0004,996,1502,1500,1500,2008,1000,1505,1000,1000,1505,2008,1054,1014,0.2860,0.0674,0.0358,-0.0083,-0.0002,0.9913,0.3198,-0.0283,-0.3206,0.0291,0.4430,0.3324,0.0485,0.4430,0.3324,0.0485,0.3000,0.0600,0.0002,0,-0.3000,-100.0000,-0.0010,-0.3000,-100.0000,-0.0010,16.1351,47.0830,0.0200,0.0000
-20.5102,32.8636,-6.3415,0.5801,-0.0821,0.1200,0.0000,0.0000,0.0000,0.1744,-0.1456,-0.0002,996,1502,1500,1500,2008,1000,1505,1000,1000,1505,2008,1054,1014,0.2731,0.0759,-0.0287,-0.0078,0.0004,0.9940,0.3198,-0.0285,-0.3202,0.0290,0.4430,0.3324,0.0485,0.4430,0.3324,0.0485,0.3000,0.0600,0.0002,0,-0.3000,-100.0000,-0.0010,-0.3000,-100.0000,-0.0010,16.1743,47.1216,0.0200,0.0000
-20.4801,32.8314,-6.3268,0.5801,-0.0821,0.1800,0.0000,0.0000,0.0000,0.1745,-0.1454,-0.0014,996,1502,1500,1500,2008,1000,1505,1000,1000,1505,2008,1054,1014,0.2869,-0.0451,0.0456,-0.0089,0.0002,0.9910,0.3185,-0.0276,-0.3213,0.0305,0.4430,0.3324,0.0485,0.4430,0.3324,0.0485,0.3000,0.0600,0.0002,0,-0.3000,-100.0000,-0.0010,-0.3000,-100.0000,-0.0010,16.2135,47.1602,0.0300,0.0000
-20.4506,32.7985,-6.3120,0.5801,-0.0000,0.1200,0.0000,0.0000,0.0000,0.1741,-0.1453,-0.0001,996,1502,1500,1500,2008,1000,1505,1000,1000,1505,2008,1054,1014,0.2019,0.0452,-0.0676,-0.0064,0.0004,0.9897,0.3194,-0.0287,-0.3195,0.0289,0.4430,0.3324,0.0485,0.4430,0.3324,0.0485,0.3000,0.0600,0.0002,0,-0.3000,-100.0000,-0.0010,-0.3000,-100.0000,-0.0010,16.2527,47.1987,0.0200,0.0000
-20.4212,32.7663,-6.2979,0.5801,-0.0821,0.1200,0.0000,0.0000,0.0000,0.1740,-0.1452,-0.0003,996,1502,1500,1500,2008,1000,1505,1000,1000,1505,2008,1054,1014,0.2784,0.0152,-0.0051,-0.0068,-0.0001,0.9917,0.3188,-0.0285,-0.3194,0.0291,0.4430,0.3324,0.0485,0.4430,0.3324,0.0485,0.3000,0.0600,0.0002,0,-0.3000,-100.0000,-0.0010,-0.3000,-100.0000,-0.0010,16.2918,47.2373,0.0200,0.0000
-20.3918,32.7338,-6.2833,0.5801,-0.0821,0.1200,0.0000,0.0000,0.0000,0.1739,-0.1450,-0.0002,996,1502,1500,1500,2008,1000,1505,1000,1000,1505,2008,1054,1014,0.1392,0.0367,-0.0275,-0.0094,0.0007,0.9933,0.3187,-0.0286,-0.3192,0.0291,0.4430,0.3324,0.0485,0.4430,0.3324,0.0485,0.3000,0.0600,0.0002,0,-0.3000,-100.0000,-0.0010,-0.3000,-100.0000,-0.0010,16.3311,47.2758,0.0200,0.0000
-20.3627,32.7011,-6.2685,0.5801,-0.0821,0.1200,0.0000,0.0000,0.0000,0.1737,-0.1448,-0.0004,996,1502,1500,1500,2008,1000,1505,1000,1000,1505,2008,1054,1014,0.2391,-0.0420,0.0294,-0.0060,0.0010,0.9877,0.3182,-0.0285,-0.3190,0.0293,0.4430,0.3324,0.0485,0.4430,0.3324,0.0485,0.3000,0.0600,0.0002,0,-0.3000,-100.0000,-0.0010,-0.3000,-100.0000,-0.0010,16.3703,47.3143,0.0200,0.0000
-20.3335,32.6683,-6.2535,0.5801,-0.0821,0.1200,0.0000,0.0000,0.0000,0.1736,-0.1447,-0.0006,996,1502,1500,1500,2008,1000,1505,1000,1000,1505,2008,1054,1014,0.2123,-0.0196,0.0724,-0.0076,0.0014,0.9945,0.3178,-0.0283,-0.3189,0.0295,0.4430,0.3324,0.0485,0.4430,0.3324,0.0485,0.3000,0.0600,0.0002,0,-0.3000,-100.0000,-0.0010,-0.3000,-100.0000,-0.0010,16.4095,47.3528,0.0200,0.0000
-20.3040,32.6349,-6.2386,0.5801,-0.0821,0.1800,0.0000,0.0000,0.0000,0.1738,-0.1445,-0.0013,996,1502,1500,1500,2008,1000,1505,1000,1000,1505,2008,1054,1014,0.1830,-0.0770,0.0065,-0.0092,-0.0001,0.9897,0.3170,-0.0279,-0.3196,0.0305,0.4430,0.3324,0.0485,0.4430,0.3324,0.0485,0.3000,0.0600,0.0002,0,-0.3000,-100.0000,-0.0010,-0.3000,-100.0000,-0.0010,16.4487,47.3913,0.0300,0.0000
-20.2751,32.6016,-6.2242,0.5801,-0.0821,0.1200,0.0000,0.0000,0.0000,0.1734,-0.1444,-0.0002,996,1502,1500,1500,2008,1000,1505,1000,1000,1505,2008,1054,1014,0.1608,-0.0903,-0.0462,-0.0094,0.0011,0.9923,0.3176,-0.0288,-0.3179,0.0292,0.4430,0.3324,0.0485,0.4430,0.3324,0.0485,0.3000,0.0600,0.0002,0,-0.3000,-100.0000,-0.0010,-0.3000,-100.0000,-0.0010,16.4880,47.4299,0.0200,0.0000
-20.2464,32.5684,-6.2101,0.5801,-0.0821,0.1200,0.0000,0.0000,0.0000,0.1732,-0.1442,-0.0002,996,1502,1500,1500,2008,1000,1505,1000,1000,1505,2008,1054,1014,0.2054,-0.0662,-0.0153,-0.0061,0.0007,0.9935,0.3172,-0.0287,-0.3177,0.0292,0.4430,0.3324,0.0485,0.4430,0.3324,0.0485,0.3000,0.0600,0.0002,0,-0.3000,-100.0000,-0.0010,-0.3000,-100.0000,-0.0010,16.5273,47.4685,0.0200,0.0000
-20.2169,32.5356,-6.1954,0.5801,-0.0000,0.1200,0.0000,0.0000,0.0000,0.1731,-0.1441,-0.0004,996,1502,1500,1500,2008,1000,1505,1000,1000,1505,2008,1054,1014,0.2329,-0.0342,0.0352,-0.0038,0.0017,0.9901,0.3168,-0.0286,-0.3176,0.0293,0.4430,0.3324,0.0485,0.4430,0.3324,0.0485,0.3000,0.0600,0.0002,0,-0.3000,-100.0000,-0.0010,-0.3000,-100.0000,-0.0010,16.5666,47.5070,0.0200,0.0000
-20.1880,32.5029,-6.1812,0.5801,-0.0821,0.1200,0.0000,0.0000,0.0000,0.1730,-0.1440,-0.0004,996,1502,1500,1500,2008,1000,1505,1000,1000,1505,2008,1054,1014,0.2033,-0.0196,0.0003,-0.0079,0.0017,0.9898,0.3166,-0.0286,-0.3173,0.0293,0.4430,0.3324,0.0485,0.4430,0.3324,0.0485,0.3000,0.0600,0.0002,0,-0.3000,-100.0000,-0.0010,-0.3000,-100.0000,-0.0010,16.6059,47.5455,0.0200,0.0000
-20.1586,32.4700,-6.1666,0.5801,-0.0821,0.1200,0.0000,0.0000,0.0000,0.1728,-0.1438,-0.0002,996,1502,1500,1500,2008,1000,1505,1000,1000,1505,2008,1054,1014,0.1892,-0.0053,-0.0114,-0.0064,-0.0009,0.9938,0.3165,-0.0288,-0.3169,0.0292,0.4430,0.3324,0.0485,0.4430,0.3324,0.0485,0.3000,0.0600,0.0002,0,-0.3000,-100.0000,-0.0010,-0.3000,-100.0000,-0.0010,16.6452,47.5840,0.0200,0.0000
-20.1295,32.4368,-6.1521,0.5801,-0.0821,0.1800,0.0000,0.0000,0.0000,0.1730,-0.1436,-0.0012,996,1502,1500,1500,2008,1000,1505,1000,1000,1505,2008,1054,1014,0.1315,-0.1268,0.0090,-0.0070,0.0008,0.9965,0.3154,-0.0281,-0.3179,0.0306,0.4430,0.3324,0.0485,0.4430,0.3324,0.0485,0.3000,0.0600,0.0002,0,-0.3000,-100.0000,-0.0010,-0.3000,-100.0000,-0.0010,16.6845,47.6225,0.0300,0.0000
-20.1006,32.4036,-6.1380,0.5801,-0.0821,0.1200,0.0000,0.0000,0.0000,0.1726,-0.1435,-0.0003,996,1502,1500,1500,2008,1000,1505,1000,1000,1505,2008,1054,1014,0.2344,-0.0286,-0.0230,-0.0095,-0.0004,0.9900,0.3158,-0.0288,-0.3164,0.0293,0.4430,0.3324,0.0485,0.4430,0.3324,0.0485,0.3000,0.0600,0.0002,0,-0.3000,-100.0000,-0.0010,-0.3000,-100.0000,-0.0010,16.7239,47.6610,0.0200,0.0000
-20.0719,32.3713,-6.1237,0.5801,-0.0821,0.1200,0.0000,0.0000,0.0000,0.1725,-0.1434,-0.0003,996,1502,1500,1500,2008,1000,1505,1000,1000,1505,2008,1054,1014,0.0909,0.0550,0.0076,-0.0053,-0.0000,0.9902,0.3156,-0.0288,-0.3163,0.0294,0.4430,0.3324,0.0485,0.4430,0.3324,0.0485,0.3000,0.0600,0.0002,0,-0.3000,-100.0000,-0.0010,-0.3000,-100.0000,-0.0010,16.7632,47.6995,0.0200,0.0000
-20.0432,32.3388,-6.1095,0.5801,-0.0821,0.1200,0.0000,0.0000,0.0000,0.1723,-0.1433,-0.0003,996,1502,1500,1500,2008,1000,1505,1000,1000,1505,2008,1054,1014,0.2886,0.0391,0.0169,-0.0061,0.0008,0.9956,0.3152,-0.0287,-0.3159,0.0293,0.4430,0.3324,0.0485,0.4430,0.3324,0.0485,0.3000,0.0600,0.0002,0,-0.3000,-100.0000,-0.0010,-0.3000,-100.0000,-0.0010,16.8026,47.7380,0.0200,0.0000
-20.0137,32.3063,-6.0950,0.5801,-0.0821,0.1200,0.0000,0.0000,0.0000,0.1722,-0.1432,-0.0002,996,1502,1500,1500,2008,1000,1505,1000,1000,1505,2008,1054,1014,0.2401,0.0881,-0.0376,-0.0050,0.0033,0.9934,0.3151,-0.0288,-0.3155,0.0292,0.4430,0.3324,0.0485,0.4430,0.3324,0.0485,0.3000,0.0600,0.0002,0,-0.3000,-100.0000,-0.0010,-0.3000,-100.0000,-0.0010,16.8420,47.7765,0.0200,0.0000
-19.9845,32.2735,-6.0814,0.5801,-0.0821,0.1200,0.0000,0.0000,0.0000,0.1720,-0.1430,-0.0000,996,1502,1500,1500,2008,1000,1505,1000,1000,1505,2008,1054,1014,0.2507,0.0049,-0.0817,-0.0042,0.0002,0.9902,0.3150,-0.0290,-0.3151,0.0291,0.4430,0.3324,0.0485,0.4430,0.3324,0.0485,0.3000,0.0600,0.0002,0,-0.3000,-100.0000,-0.0010,-0.3000,-100.0000,-0.0010,16.8813,47.8149,0.0200,0.0000
-19.9555,32.2405,-6.0678,0.5801,-0.0821,0.1800,0.0000,0.0000,0.0000,0.1722,-0.1429,-0.0012,996,1502,1500,1500,2008,1000,1505,1000,1000,1505,2008,1054,1014,0.3001,0.0577,-0.0354,-0.0077,-0.0012,0.9877,0.3139,-0.0281,-0.3162,0.0305,0.4430,0.3324,0.0485,0.4430,0.3324,0.0485,0.3000,0.0600,0.0002,0,-0.3000,-100.0000,-0.0010,-0.3000,-100.0000,-0.0010,16.9208,47.8534,0.0300,0.0000
-19.9266,32.2077,-6.0541,0.5801,-0.0821,0.1200,0.0000,0.0000,0.0000,0.1718,-0.1427,-0.0003,996,1502,1500,1500,2008,1000,1505,1000,1000,1505,2008,1054,1014,0.2021,0.0768,-0.0141,-0.0054,0.0009,0.9975,0.3143,-0.0288,-0.3148,0.0294,0.4430,0.3324,0.0485,0.4430,0.3324,0.0485,0.3000,0.0600,0.0002,0,-0.3000,-100.0000,-0.0010,-0.3000,-100.0000,-0.0010,16.9601,47.8918,0.0200,0.0000
-19.8981,32.1753,-6.0402,0.5801,-0.0821,0.1200,0.0000,0.0000,0.0000,0.1717,-0.1426,-0.0001,996,1502,1500,1500,2008,1000,1505,1000,1000,1505,2008,1054,1014,0.2067,0.0813,-0.0671,-0.0053,0.0004,0.9887,0.3142,-0.0290,-0.3143,0.0292,0.4430,0.3324,0.0485,0.4430,0.3324,0.0485,0.3000,0.0600,0.0002,0,-0.3000,-100.0000,-0.0010,-0.3000,-100.0000,-0.0010,16.9995,47.9302,0.0200,0.0000
-19.8704,32.1426,-6.0271,0.5801,-0.0821,0.1200,0.0000,0.0000,0.0000,0.1716,-0.1424,0.0000,996,1502,1500,1500,2008,1000,1505,1000,1000,1505,2008,1054,1014,0.1038,0.0017,-0.1097,-0.0098,-0.0009,0.9937,0.3140,-0.0293,-0.3140,0.0292,0.4430,0.3324,0.0485,0.4430,0.3324,0.0485,0.3000,0.0600,0.0002,0,-0.3000,-100.0000,-0.0010,-0.3000,-100.0000,-0.0010,17.0390,47.9685,0.0200,0.0000
-19.8422,32.1093,-6.0130,0.5801,-0.0821,0.1200,0.0000,0.0000,0.0000,0.1715,-0.1422,-0.0002,996,1502,1500,1500,2008,1000,1505,1000,1000,1505,2008,1054,1014,0.1603,-0.0370,-0.0179,-0.0053,0.0002,0.9916,0.3135,-0.0291,-0.3139,0.0294,0.4430,0.3324,0.0485,0.4430,0.3324,0.0485,0.3000,0.0600,0.0002,0,-0.3000,-100.0000,-0.0010,-0.3000,-100.0000,-0.0010,17.0784,48.0069,0.0200,0.0000
-19.8138,32.0758,-5.9996,0.5801,-0.0821,0.1200,0.0000,0.0000,0.0000,0.1713,-0.1421,-0.0003,996,1502,1500,1500,2008,1000,1505,1000,1000,1505,2008,1054,1014,0.2005,-0.0465,0.0021,-0.0066,-0.0003,0.9854,0.3131,-0.0289,-0.3137,0.0296,0.4430,0.3324,0.0485,0.4430,0.3324,0.0485,0.3000,0.0600,0.0002,0,-0.3000,-100.0000,-0.0010,-0.3000,-100.0000,-0.0010,17.1178,48.0452,0.0200,0.0000
-19.7852,32.0421,-5.9859,0.5801,-0.0821,0.1800,0.0000,0.0000,0.0000,0.1715,-0.1419,-0.0007,996,1502,1500,1500,2008,1000,1505,1000,1000,1505,2008,1054,1014,0.1884,-0.0366,-0.1681,-0.0059,-0.0030,0.9898,0.3127,-0.0288,-0.3141,0.0302,0.4430,0.3324,0.0485,0.4430,0.3324,0.0485,0.3000,0.0600,0.0002,0,-0.3000,-100.0000,-0.0010,-0.3000,-100.0000,-0.0010,17.1573,48.0836,0.0300,0.0000
-19.7568,32.0087,-5.9727,0.5801,-0.0821,0.1200,0.0000,0.0000,0.0000,0.1711,-0.1418,-0.0002,996,1502,1500,1500,2008,1000,1505,1000,1000,1505,2008,1054,1014,0.1895,-0.0182,-0.0368,-0.0037,0.0007,0.9920,0.3127,-0.0291,-0.3130,0.0294,0.4430,0.3324,0.0485,0.4430,0.3324,0.0485,0.3000,0.0600,0.0002,0,-0.3000,-100.0000,-0.0010,-0.3000,-100.0000,-0.0010,17.1968,48.1220,0.0200,0.0000
-19.7281,31.9752,-5.9588,0.5801,-0.0821,0.1200,0.0000,0.0000,0.0000,0.1709,-0.1416,-0.0001,996,1502,1500,1500,2008,1000,1505,1000,1000,1505,2008,1054,1014,0.1955,-0.0658,-0.0498,-0.0054,0.0018,0.9920,0.3125,-0.0292,-0.3126,0.0294,0.4430,0.3324,0.0485,0.4430,0.3324,0.0485,0.3000,0.0600,0.0002,0,-0.3000,-100.0000,-0.0010,-0.3000,-100.0000,-0.0010,17.2363,48.1603,0.0200,0.0000
-19.6994,31.9417,-5.9453,0.5801,-0.0821,0.1200,0.0000,0.0000,0.0000,0.1708,-0.1415,-0.0002,996,1502,1500,1500,2008,1000,1505,1000,1000,1505,2008,1054,1014,0.2258,0.0076,-0.0325,-0.0050,0.0020,0.9890,0.3121,-0.0291,-0.3125,0.0295,0.4430,0.3324,0.0485,0.4430,0.3324,0.0485,0.3000,0.0600,0.0002,0,-0.3000,-100.0000,-0.0010,-0.3000,-100.0000,-0.0010,17.2758,48.1987,0.0200,0.0000
-19.6706,31.9085,-5.9314,0.5801,-0.0821,0.1200,0.0000,0.0000,0.0000,0.1707,-0.1414,-0.0002,996,1502,1500,1500,2008,1000,1505,1000,1000,1505,2008,1054,1014,0.2122,0.0395,-0.0296,-0.0110,0.0008,0.9926,0.3119,-0.0291,-0.3122,0.0295,0.4430,0.3324,0.0485,0.4430,0.3324,0.0485,0.3000,0.0600,0.0002,0,-0.3000,-100.0000,-0.0010,-0.3000,-100.0000,-0.0010,17.3152,48.2370,0.0200,0.0000
-19.6413,31.8758,-5.9174,0.5801,-0.0821,0.1200,0.0000,0.0000,0.0000,0.1705,-0.1412,-0.0002,996,1502,1500,1500,2008,1000,1505,1000,1000,1505,2008,1054,1014,0.2597,0.0475,-0.0044,-0.0068,0.0010,0.9904,0.3115,-0.0291,-0.3120,0.0295,0.4430,0.3324,0.0485,0.4430,0.3324,0.0485,0.3000,0.0600,0.0002,0,-0.3000,-100.0000,-0.0010,-0.3000,-100.0000,-0.0010,17.3548,48.2753,0.0200,0.0000
-19.6117,31.8429,-5.9031,0.5801,-0.0821,0.1800,0.0000,0.0000,0.0000,0.1706,-0.1411,-0.0011,996,1502,1500,1500,2008,1000,1505,1000,1000,1505,2008,1054,1014,0.2972,-0.0267,-0.0191,-0.0061,0.0012,0.9906,0.3105,-0.0284,-0.3128,0.0307,0.4430,0.3324,0.0485,0.4430,0.3324,0.0485,0.3000,0.0600,0.0002,0,-0.3000,-100.0000,-0.0010,-0.3000,-100.0000,-0.0010,17.3943,48.3136,0.0300,0.0000
-19.5824,31.8097,-5.8889,0.5801,-0.0821,0.1200,0.0000,0.0000,0.0000,0.1703,-0.1409,-0.0003,996,1502,1500,1500,2008,1000,1505,1000,1000,1505,2008,1054,1014,0.2364,-0.0091,0.0115,-0.0101,0.0000,0.9937,0.3109,-0.0291,-0.3115,0.0297,0.4430,0.3324,0.0485,0.4430,0.3324,0.0485,0.3000,0.0600,0.0002,0,-0.3000,-100.0000,-0.0010,-0.3000,-100.0000,-0.0010,17.4338,48.3518,0.0200,0.0000
-19.5539,31.7761,-5.8755,0.5801,-0.0821,0.1200,0.0000,0.0000,0.0000,0.1702,-0.1408,-0.0002,996,1502,1500,1500,2008,1000,1505,1000,1000,1505,2008,1054,1014,0.1781,-0.0243,-0.0249,-0.0055,0.0012,0.9870,0.3107,-0.0292,-0.3111,0.0296,0.4430,0.3324,0.0485,0.4430,0.3324,0.0485,0.3000,0.0600,0.0002,0,-0.3000,-100.0000,-0.0010,-0.3000,-100.0000,-0.0010,17.4733,48.3901,0.0200,0.0000
-19.5259,31.7428,-5.8619,0.5801,-0.0821,0.1200,0.0000,0.0000,0.0000,0.1701,-0.1406,-0.0001,996,1502,1500,1500,2008,1000,1505,1000,1000,1505,2008,1054,1014,0.1638,0.0381,-0.0671,-0.0073,0.0021,0.9888,0.3106,-0.0293,-0.3108,0.0295,0.4430,0.3324,0.0485,0.4430,0.3324,0.0485,0.3000,0.0600,0.0002,0,-0.3000,-100.0000,-0.0010,-0.3000,-100.0000,-0.0010,17.5129,48.4284,0.0200,0.0000
-19.4973,31.7097,-5.8483,0.5801,-0.0821,0.1200,0.0000,0.0000,0.0000,0.1699,-0.1405,-0.0002,996,1502,1500,1500,2008,1000,1505,1000,1000,1505,2008,1054,1014,0.2682,0.0431,-0.0162,-0.0084,-0.0014,0.9902,0.3101,-0.0291,-0.3106,0.0296,0.4430,0.3324,0.0485,0.4430,0.3324,0.0485,0.3000,0.0600,0.0002,0,-0.3000,-100.0000,-0.0010,-0.3000,-100.0000,-0.0010,17.5524,48.4666,0.0200,0.0000
-19.4695,31.6764,-5.8346,0.5801,-0.0821,0.1200,0.0000,0.0000,0.0000,0.1698,-0.1403,-0.0001,996,1502,1500,1500,2008,1000,1505,1000,1000,1505,2008,1054,1014,0.1607,-0.0226,-0.0707,-0.0076,0.0025,0.9904,0.3100,-0.0294,-0.3102,0.0296,0.4430,0.3324,0.0485,0.4430,0.3324,0.0485,0.3000,0.0600,0.0002,0,-0.3000,-100.0000,-0.0010,-0.3000,-100.0000,-0.0010,17.5920,48.5048,0.0200,0.0000
-19.4407,31.6430,-5.8212,0.5801,-0.0821,0.1800,0.0000,0.0000,0.0000,0.1699,-0.1402,-0.0012,996,1502,1500,1500,2008,1000,1505,1000,1000,1505,2008,1054,1014,0.2732,0.0296,-0.0084,-0.0076,0.0014,0.9886,0.3089,-0.0285,-0.3113,0.0309,0.4430,0.3324,0.0485,0.4430,0.3324,0.0485,0.3000,0.0600,0.0002,0,-0.3000,-100.0000,-0.0010,-0.3000,-100.0000,-0.0010,17.6315,48.5431,0.0300,0.0000
-19.4121,31.6098,-5.8081,0.5801,-0.0821,0.1200,0.0000,0.0000,0.0000,0.1695,-0.1401,0.0001,996,1502,1500,1500,2008,1000,1505,1000,1000,1505,2008,1054,1014,0.2024,0.0541,-0.1420,-0.0095,0.0021,0.9898,0.3097,-0.0296,-0.3095,0.0294,0.4430,0.3324,0.0485,0.4430,0.3324,0.0485,0.3000,0.0600,0.0002,0,-0.3000,-100.0000,-0.0010,-0.3000,-100.0000,-0.0010,17.6711,48.5813,0.0200,0.0000
-19.3839,31.5770,-5.7951,0.5801,-0.0821,0.1200,0.0000,0.0000,0.0000,0.1694,-0.1399,-0.0001,996,1502,1500,1500,2008,1000,1505,1000,1000,1505,2008,1054,1014,0.1975,0.1151,-0.0683,-0.0046,-0.0010,0.9873,0.3093,-0.0294,-0.3094,0.0295,0.4430,0.3324,0.0485,0.4430,0.3324,0.0485,0.3000,0.0600,0.0002,0,-0.3000,-100.0000,-0.0010,-0.3000,-100.0000,-0.0010,17.7107,48.6196,0.0200,0.0000
-19.3557,31.5438,-5.7816,0.5801,-0.0821,0.1200,0.0000,0.0000,0.0000,0.1693,-0.1397,-0.0002,996,1502,1500,1500,2008,1000,1505,1000,1000,1505,2008,1054,1014,0.1794,-0.0134,-0.0203,-0.0055,0.0010,0.9916,0.3088,-0.0294,-0.3092,0.0298,0.4430,0.3324,0.0485,0.4430,0.3324,0.0485,0.3000,0.0600,0.0002,0,-0.3000,-100.0000,-0.0010,-0.3000,-100.0000,-0.0010,17.7504,48.6578,0.0200,0.0000
-19.3272,31.5105,-5.7678,0.5801,-0.0821,0.1200,0.0000,0.0000,0.0000,0.1692,-0.1396,-0.0002,996,1502,1500,1500,2008,1000,1505,1000,1000,1505,2008,1054,1014,0.1660,-0.0724,-0.0287,-0.0098,-0.0019,0.9925,0.3086,-0.0294,-0.3089,0.0298,0.4430,0.3324,0.0485,0.4430,0.3324,0.0485,0.3000,0.0600,0.0002,0,-0.3000,-100.0000,-0.0010,-0.3000,-100.0000,-0.0010,17.7900,48.6961,0.0200,0.0000
-19.2988,31.4769,-5.7544,0.6630,-0.0821,0.1200,0.0000,0.0000,0.0000,0.1690,-0.1394,-0.0001,996,1502,1500,1500,2008,1000,1505,1000,1000,1505,2008,1054,1014,0.2498,-0.0697,-0.0516,-0.0084,-0.0007,0.9904,0.3083,-0.0295,-0.3085,0.0297,0.4430,0.3324,0.0485,0.4430,0.3324,0.0485,0.3000,0.0600,0.0002,0,-0.3000,-100.0000,-0.0010,-0.3000,-100.0000,-0.0010,17.8297,48.7343,0.0200,0.0000
-19.2699,31.4431,-5.7407,0.5801,-0.0821,0.1800,0.0000,0.0000,0.0000,0.1692,-0.1392,-0.0011,996,1502,1500,1500,2008,1000,1505,1000,1000,1505,2008,1054,1014,0.2342,-0.0960,-0.0515,-0.0109,0.0008,0.9908,0.3073,-0.0288,-0.3095,0.0310,0.4430,0.3324,0.0485,0.4430,0.3324,0.0485,0.3000,0.0600,0.0002,0,-0.3000,-100.0000,-0.0010,-0.3000,-100.0000,-0.0010,17.8693,48.7725,0.0300,0.0000
-19.2411,31.4093,-5.7267,0.5801,-0.0821,0.1200,0.0000,0.0000,0.0000,0.1688,-0.1391,-0.0002,996,1502,1500,1500,2008,1000,1505,1000,1000,1505,2008,1054,1014,0.1926,-0.0292,-0.0028,-0.0059,-0.0022,0.9907,0.3077,-0.0294,-0.3081,0.0299,0.4430,0.3324,0.0485,0.4430,0.3324,0.0485,0.3000,0.0600,0.0002,0,-0.3000,-100.0000,-0.0010,-0.3000,-100.0000,-0.0010,17.9090,48.8108,0.0200,0.0000
-19.2130,31.3762,-5.7134,0.5801,-0.0821,0.1200,0.0000,0.0000,0.0000,0.1687,-0.1390,-0.0003,996,1502,1500,1500,2008,1000,1505,1000,1000,1505,2008,1054,1014,0.1817,0.0365,0.0199,-0.0078,0.0008,0.9910,0.3074,-0.0293,-0.3080,0.0300,0.4430,0.3324,0.0485,0.4430,0.3324,0.0485,0.3000,0.0600,0.0002,0,-0.3000,-100.0000,-0.0010,-0.3000,-100.0000,-0.0010,17.9487,48.8490,0.0200,0.0000
-19.1845,31.3432,-5.6998,0.5801,-0.0821,0.1200,0.0000,0.0000,0.0000,0.1685,-0.1388,-0.0003,996,1502,1500,1500,2008,1000,1505,1000,1000,1505,2008,1054,1014,0.2229,-0.0122,-0.0069,-0.0075,0.0016,0.9911,0.3071,-0.0294,-0.3076,0.0299,0.4430,0.3324,0.0485,0.4430,0.3324,0.0485,0.3000,0.0600,0.0002,0,-0.3000,-100.0000,-0.0010,-0.3000,-100.0000,-0.0010,17.9884,48.8872,0.0200,0.0000
-19.1558,31.3098,-5.6870,0.5801,-0.0821,0.1200,0.0000,0.0000,0.0000,0.1684,-0.1387,-0.0001,996,1502,1500,1500,2008,1000,1505,1000,1000,1505,2008,1054,1014,0.2669,0.0461,-0.0720,-0.0063,0.0004,0.9898,0.3070,-0.0295,-0.3072,0.0297,0.4430,0.3324,0.0485,0.4430,0.3324,0.0485,0.3000,0.0600,0.0002,0,-0.3000,-100.0000,-0.0010,-0.3000,-100.0000,-0.0010,18.0281,48.9254,0.0200,0.0000
-19.1269,31.2763,-5.6740,0.5801,-0.0821,0.1200,0.0000,0.0000,0.0000,0.1682,-0.1385,-0.0001,996,1502,1500,1500,2008,1000,1505,1000,1000,1505,2008,1054,1014,0.2594,-0.0393,-0.0741,-0.0073,0.0006,0.9902,0.3067,-0.0296,-0.3068,0.0298,0.4430,0.3324,0.0485,0.4430,0.3324,0.0485,0.3000,0.0600,0.0002,0,-0.3000,-100.0000,-0.0010,-0.3000,-100.0000,-0.0010,18.0679,48.9636,0.0200,0.0000
-19.0981,31.2424,-5.6612,0.5801,-0.0821,0.1800,0.0000,0.0000,0.0000,0.1684,-0.1384,-0.0010,996,1502,1500,1500,2008,1000,1505,1000,1000,1505,2008,1054,1014,0.2926,0.0014,-0.0820,-0.0070,0.0012,0.9943,0.3057,-0.0289,-0.3078,0.0310,0.4430,0.3324,0.0485,0.4430,0.3324,0.0485,0.3000,0.0600,0.0002,0,-0.3000,-100.0000,-0.0010,-0.3000,-100.0000,-0.0010,18.1076,49.0018,0.0300,0.0000
-19.0694,31.2086,-5.6482,0.5801,-0.0821,0.1200,0.0000,0.0000,0.0000,0.1680,-0.1382,-0.0000,996,1502,1500,1500,2008,1000,1505,1000,1000,1505,2008,1054,1014,0.2162,-0.0496,-0.0744,-0.0070,0.0008,0.9895,0.3062,-0.0297,-0.3063,0.0298,0.4430,0.3324,0.0485,0.4430,0.3324,0.0485,0.3000,0.0600,0.0002,0,-0.3000,-100.0000,-0.0010,-0.3000,-100.0000,-0.0010,18.1474,49.0400,0.0200,0.0000
-19.0412,31.1746,-5.6351,0.5801,-0.0821,0.1200,0.0000,0.0000,0.0000,0.1679,-0.1381,-0.0001,996,1502,1500,1500,2008,1000,1505,1000,1000,1505,2008,1054,1014,0.1076,0.0340,-0.0764,-0.0062,-0.0004,0.9957,0.3060,-0.0297,-0.3061,0.0299,0.4430,0.3324,0.0485,0.4430,0.3324,0.0485,0.3000,0.0600,0.0002,0,-0.3000,-100.0000,-0.0010,-0.3000,-100.0000,-0.0010,18.1871,49.0781,0.0200,0.0000
-19.0130,31.1418,-5.6221,0.5801,-0.0821,0.1200,0.0000,0.0000,0.0000,0.1678,-0.1380,-0.0002,996,1502,1500,1500,2008,1000,1505,1000,1000,1505,2008,1054,1014,0.2148,0.0745,-0.0149,-0.0088,0.0035,0.9943,0.3056,-0.0296,-0.3060,0.0300,0.4430,0.3324,0.0485,0.4430,0.3324,0.0485,0.3000,0.0600,0.0002,0,-0.3000,-100.0000,-0.0010,-0.3000,-100.0000,-0.0010,18.2269,49.1163,0.0200,0.0000
-18.9848,31.1084,-5.6094,0.5801,-0.0000,0.1200,0.0000,0.0000,0.0000,0.1676,-0.1378,-0.0001,996,1502,1500,1500,2008,1000,1505,1000,1000,1505,2008,1054,1014,0.2338,0.0217,-0.0430,-0.0053,0.0006,0.9904,0.3053,-0.0297,-0.3056,0.0299,0.4430,0.3324,0.0485,0.4430,0.3324,0.0485,0.3000,0.0600,0.0002,0,-0.3000,-100.0000,-0.0010,-0.3000,-100.0000,-0.0010,18.2666,49.1544,0.0200,0.0000
-18.9565,31.0748,-5.5963,0.5801,-0.0821,0.1200,0.0000,0.0000,0.0000,0.1675,-0.1377,-0.0004,996,1502,1500,1500,2008,1000,1505,1000,1000,1505,2008,1054,1014,0.1706,0.0465,0.0428,-0.0105,0.0017,0.9923,0.3048,-0.0294,-0.3056,0.0303,0.4430,0.3324,0.0485,0.4430,0.3324,0.0485,0.3000,0.0600,0.0002,0,-0.3000,-100.0000,-0.0010,-0.3000,-100.0000,-0.0010,18.3064,49.1924,0.0200,0.0000
-18.9283,31.0414,-5.5824,0.5801,-0.0821,0.1800,0.0000,0.0000,0.0000,0.1677,-0.1375,-0.0012,996,1502,1500,1500,2008,1000,1505,1000,1000,1505,2008,1054,1014,0.1606,-0.1124,-0.0120,-0.0081,0.0004,0.9903,0.3039,-0.0290,-0.3063,0.0314,0.4430,0.3324,0.0485,0.4430,0.3324,0.0485,0.3000,0.0600,0.0002,0,-0.3000,-100.0000,-0.0010,-0.3000,-100.0000,-0.0010,18.3461,49.2304,0.0300,0.0000
-18.9005,31.0074,-5.5691,0.5801,-0.0821,0.1200,0.0000,0.0000,0.0000,0.1673,-0.1373,-0.0002,996,1502,1500,1500,2008,1000,1505,1000,1000,1505,2008,1054,1014,0.1931,-0.0583,-0.0122,-0.0042,0.0010,0.9908,0.3044,-0.0297,-0.3048,0.0302,0.4430,0.3324,0.0485,0.4430,0.3324,0.0485,0.3000,0.0600,0.0002,0,-0.3000,-100.0000,-0.0010,-0.3000,-100.0000,-0.0010,18.3859,49.2685,0.0200,0.0000
-18.8718,30.9731,-5.5561,0.5801,-0.0821,0.1200,0.0000,0.0000,0.0000,0.1671,-0.1372,0.0000,996,1502,1500,1500,2008,1000,1505,1000,1000,1505,2008,1054,1014,0.2800,-0.0662,-0.1015,-0.0068,0.0004,0.9912,0.3043,-0.0299,-0.3043,0.0299,0.4430,0.3324,0.0485,0.4430,0.3324,0.0485,0.3000,0.0600,0.0002,0,-0.3000,-100.0000,-0.0010,-0.3000,-100.0000,-0.0010,18.4258,49.3066,0.0200,0.0000
-18.8430,30.9391,-5.5427,0.5801,-0.0821,0.1200,0.0000,0.0000,0.0000,0.1670,-0.1370,-0.0004,996,1502,1500,1500,2008,1000,1505,1000,1000,1505,2008,1054,1014,0.2163,-0.0635,0.0382,-0.0083,-0.0003,0.9882,0.3037,-0.0296,-0.3044,0.0303,0.4430,0.3324,0.0485,0.4430,0.3324,0.0485,0.3000,0.0600,0.0002,0,-0.3000,-100.0000,-0.0010,-0.3000,-100.0000,-0.0010,18.4656,49.3446,0.0200,0.0000
-18.8143,30.9052,-5.5289,0.5801,-0.0821,0.1200,0.0000,0.0000,0.0000,0.1669,-0.1369,-0.0003,996,1502,1500,1500,2008,1000,1505,1000,1000,1505,2008,1054,1014,0.1949,-0.0321,0.0296,-0.0050,-0.0005,0.9912,0.3034,-0.0296,-0.3041,0.0303,0.4430,0.3324,0.0485,0.4430,0.3324,0.0485,0.3000,0.0600,0.0002,0,-0.3000,-100.0000,-0.0010,-0.3000,-100.0000,-0.0010,18.5054,49.3827,0.0200,0.0000
-18.7862,30.8718,-5.5162,0.5801,-0.0821,0.1200,0.0000,0.0000,0.0000,0.1668,-0.1368,-0.0001,996,1502,1500,1500,2008,1000,1505,1000,1000,1505,2008,1054,1014,0.1775,0.0212,-0.0738,-0.0089,0.0009,0.9882,0.3034,-0.0299,-0.3037,0.0301,0.4430,0.3324,0.0485,0.4430,0.3324,0.0485,0.3000,0.0600,0.0002,0,-0.3000,-100.0000,-0.0010,-0.3000,-100.0000,-0.0010,18.5453,49.4207,0.0200,0.0000
-18.7586,30.8383,-5.5033,0.5801,-0.0821,0.1800,0.0000,0.0000,0.0000,0.1669,-0.1366,-0.0011,996,1502,1500,1500,2008,1000,1505,1000,1000,1505,2008,1054,1014,0.1707,0.0378,-0.0466,-0.0065,0.0000,0.9864,0.3024,-0.0292,-0.3047,0.0314,0.4430,0.3324,0.0485,0.4430,0.3324,0.0485,0.3000,0.0600,0.0002,0,-0.3000,-100.0000,-0.0010,-0.3000,-100.0000,-0.0010,18.5851,49.4587,0.0300,0.0000
-18.7305,30.8043,-5.4906,0.5801,-0.0821,0.1200,0.0000,0.0000,0.0000,0.1665,-0.1365,0.0000,996,1502,1500,1500,2008,1000,1505,1000,1000,1505,2008,1054,1014,0.2101,0.0233,-0.0896,-0.0076,0.0009,0.9922,0.3030,-0.0300,-0.3030,0.0300,0.4430,0.3324,0.0485,0.4430,0.3324,0.0485,0.3000,0.0600,0.0002,0,-0.3000,-100.0000,-0.0010,-0.3000,-100.0000,-0.0010,18.6250,49.4967,0.0200,0.0000
-18.7018,30.7701,-5.4767,0.5801,-0.0821,0.1200,0.0000,0.0000,0.0000,0.1663,-0.1363,-0.0002,996,1502,1500,1500,2008,1000,1505,1000,1000,1505,2008,1054,1014,0.2906,-0.0544,-0.0160,-0.0054,-0.0008,0.9917,0.3024,-0.0298,-0.3028,0.0303,0.4430,0.3324,0.0485,0.4430,0.3324,0.0485,0.3000,0.0600,0.0002,0,-0.3000,-100.0000,-0.0010,-0.3000,-100.0000,-0.0010,18.6648,49.5347,0.0200,0.0000
-18.6729,30.7360,-5.4632,0.5801,-0.0821,0.1200,0.0000,0.0000,0.0000,0.1662,-0.1362,-0.0001,996,1502,1500,1500,2008,1000,1505,1000,1000,1505,2008,1054,1014,0.2794,0.0113,-0.0415,-0.0059,0.0010,0.9957,0.3023,-0.0299,-0.3025,0.0302,0.4430,0.3324,0.0485,0.4430,0.3324,0.0485,0.3000,0.0600,0.0002,0,-0.3000,-100.0000,-0.0010,-0.3000,-100.0000,-0.0010,18.7047,49.5727,0.0200,0.0000
-18.6438,30.7023,-5.4505,0.5801,-0.0821,0.1200,0.0000,0.0000,0.0000,0.1661,-0.1360,0.0000,996,1502,1500,1500,2008,1000,1505,1000,1000,1505,2008,1054,1014,0.3327,0.0217,-0.0758,-0.0085,-0.0016,0.9936,0.3021,-0.0300,-0.3021,0.0300,0.4430,0.3324,0.0485,0.4430,0.3324,0.0485,0.3000,0.0600,0.0002,0,-0.3000,-100.0000,-0.0010,-0.3000,-100.0000,-0.0010,18.7446,49.6107,0.0200,0.0000
-18.6146,30.6691,-5.4376,0.5801,-0.0000,0.1200,0.0000,0.0000,0.0000,0.1660,-0.1359,-0.0003,996,1502,1500,1500,2008,1000,1505,1000,1000,1505,2008,1054,1014,0.2520,0.1101,0.0125,-0.0060,0.0003,0.9861,0.3016,-0.0298,-0.3022,0.0304,0.4430,0.3324,0.0485,0.4430,0.3324,0.0485,0.3000,0.0600,0.0002,0,-0.3000,-100.0000,-0.0010,-0.3000,-100.0000,-0.0010,18.7845,49.6487,0.0200,0.0000
-18.5863,30.6362,-5.4247,0.5801,-0.0821,0.1800,0.0000,0.0000,0.0000,0.1661,-0.1358,-0.0010,996,1502,1500,1500,2008,1000,1505,1000,1000,1505,2008,1054,1014,0.2360,0.1052,-0.0769,-0.0064,0.0008,0.9953,0.3009,-0.0294,-0.3029,0.0313,0.4430,0.3324,0.0485,0.4430,0.3324,0.0485,0.3000,0.0600,0.0002,0,-0.3000,-100.0000,-0.0010,-0.3000,-100.0000,-0.0010,18.8245,49.6866,0.0300,0.0000
-18.5574,30.6028,-5.4121,0.5801,-0.0821,0.1200,0.0000,0.0000,0.0000,0.1657,-0.1356,0.0000,996,1502,1500,1500,2008,1000,1505,1000,1000,1505,2008,1054,1014,0.2779,0.0444,-0.0885,-0.0057,0.0012,0.9927,0.3013,-0.0302,-0.3013,0.0301,0.4430,0.3324,0.0485,0.4430,0.3324,0.0485,0.3000,0.0600,0.0002,0,-0.3000,-100.0000,-0.0010,-0.3000,-100.0000,-0.0010,18.8644,49.7246,0.0200,0.0000
-18.5291,30.5690,-5.3991,0.5801,-0.0821,0.1200,0.0000,0.0000,0.0000,0.1656,-0.1354,-0.0002,996,1502,1500,1500,2008,1000,1505,1000,1000,1505,2008,1054,1014,0.1937,-0.0195,-0.0115,-0.0038,0.0014,0.9940,0.3008,-0.0300,-0.3013,0.0304,0.4430,0.3324,0.0485,0.4430,0.3324,0.0485,0.3000,0.0600,0.0002,0,-0.3000,-100.0000,-0.0010,-0.3000,-100.0000,-0.0010,18.9044,49.7626,0.0200,0.0000
-18.5016,30.5348,-5.3862,0.5801,-0.0821,0.1200,0.0000,0.0000,0.0000,0.1655,-0.1353,0.0001,996,1502,1500,1500,2008,1000,1505,1000,1000,1505,2008,1054,1014,0.1816,0.0400,-0.1177,-0.0061,-0.0009,0.9916,0.3009,-0.0303,-0.3007,0.0301,0.4430,0.3324,0.0485,0.4430,0.3324,0.0485,0.3000,0.0600,0.0002,0,-0.3000,-100.0000,-0.0010,-0.3000,-100.0000,-0.0010,18.9443,49.8006,0.0200,0.0000
-18.4737,30.5006,-5.3736,0.5801,-0.0821,0.1200,0.0000,0.0000,0.0000,0.1654,-0.1351,0.0001,996,1502,1500,1500,2008,1000,1505,1000,1000,1505,2008,1054,1014,0.1850,-0.0549,-0.0951,-0.0060,0.0004,0.9892,0.3005,-0.0303,-0.3004,0.0302,0.4430,0.3324,0.0485,0.4430,0.3324,0.0485,0.3000,0.0600,0.0002,0,-0.3000,-100.0000,-0.0010,-0.3000,-100.0000,-0.0010,18.9843,49.8386,0.0200,0.0000
-18.4458,30.4656,-5.3608,0.5801,-0.0821,0.1200,0.0000,0.0000,0.0000,0.1653,-0.1349,-0.0001,996,1502,1500,1500,2008,1000,1505,1000,1000,1505,2008,1054,1014,0.1387,-0.0692,-0.0510,-0.0047,0.0027,0.9920,0.3001,-0.0302,-0.3003,0.0305,0.4430,0.3324,0.0485,0.4430,0.3324,0.0485,0.3000,0.0600,0.0002,0,-0.3000,-100.0000,-0.0010,-0.3000,-100.0000,-0.0010,19.0243,49.8766,0.0200,0.0000
-18.4180,30.4314,-5.3476,0.5801,-0.0821,0.1800,0.0000,0.0000,0.0000,0.1654,-0.1348,-0.0011,996,1502,1500,1500,2008,1000,1505,1000,1000,1505,2008,1054,1014,0.1787,0.0100,-0.0402,-0.0073,-0.0002,0.9932,0.2991,-0.0295,-0.3013,0.0317,0.4430,0.3324,0.0485,0.4430,0.3324,0.0485,0.3000,0.0600,0.0002,0,-0.3000,-100.0000,-0.0010,-0.3000,-100.0000,-0.0010,19.0644,49.9145,0.0300,0.0000
-18.3897,30.3972,-5.3348,0.5801,-0.0821,0.1200,0.0000,0.0000,0.0000,0.1650,-0.1347,-0.0000,996,1502,1500,1500,2008,1000,1505,1000,1000,1505,2008,1054,1014,0.2215,0.0060,-0.0828,-0.0087,0.0017,0.9886,0.2996,-0.0303,-0.2997,0.0304,0.4430,0.3324,0.0485,0.4430,0.3324,0.0485,0.3000,0.0600,0.0002,0,-0.3000,-100.0000,-0.0010,-0.3000,-100.0000,-0.0010,19.1044,49.9525,0.0200,0.0000
-18.3614,30.3632,-5.3219,0.5801,-0.0821,0.1200,0.0000,0.0000,0.0000,0.1649,-0.1345,-0.0001,996,1502,1500,1500,2008,1000,1505,1000,1000,1505,2008,1054,1014,0.2368,0.0403,-0.0429,-0.0057,0.0034,0.9925,0.2993,-0.0302,-0.2995,0.0304,0.4430,0.3324,0.0485,0.4430,0.3324,0.0485,0.3000,0.0600,0.0002,0,-0.3000,-100.0000,-0.0010,-0.3000,-100.0000,-0.0010,19.1444,49.9905,0.0200,0.0000
-18.3336,30.3293,-5.3093,0.5801,-0.0821,0.1200,0.0000,0.0000,0.0000,0.1648,-0.1344,-0.0003,996,1502,1500,1500,2008,1000,1505,1000,1000,1505,2008,1054,1014,0.1401,0.0149,0.0057,-0.0051,0.0008,0.9896,0.2989,-0.0301,-0.2994,0.0307,0.4430,0.3324,0.0485,0.4430,0.3324,0.0485,0.3000,0.0600,0.0002,0,-0.3000,-100.0000,-0.0010,-0.3000,-100.0000,-0.0010,19.1845,50.0284,0.0200,0.0000
-18.3060,30.2954,-5.2971,0.5801,-0.0821,0.1200,0.0000,0.0000,0.0000,0.1646,-0.1342,-0.0002,996,1502,1500,1500,2008,1000,1505,1000,1000,1505,2008,1054,1014,0.2119,-0.0210,-0.0336,-0.0072,-0.0000,0.9934,0.2986,-0.0302,-0.2990,0.0306,0.4430,0.3324,0.0485,0.4430,0.3324,0.0485,0.3000,0.0600,0.0002,0,-0.3000,-100.0000,-0.0010,-0.3000,-100.0000,-0.0010,19.2245,50.0663,0.0200,0.0000
-18.2769,30.2611,-5.2828,0.5801,-0.0821,0.1200,0.0000,0.0000,0.0000,0.1645,-0.1340,-0.0005,996,1502,1500,1500,2008,1000,1505,1000,1000,1505,2008,1054,1014,0.2601,-0.0436,0.0899,-0.0052,0.0014,0.9945,0.2980,-0.0300,-0.2990,0.0309,0.4430,0.3324,0.0485,0.4430,0.3324,0.0485,0.3000,0.0600,0.0002,0,-0.3000,-100.0000,-0.0010,-0.3000,-100.0000,-0.0010,19.2646,50.1042,0.0200,0.0000
-18.2479,30.2267,-5.2695,0.5801,-0.0000,0.1800,0.0000,0.0000,0.0000,0.1646,-0.1339,-0.0011,996,1502,1500,1500,2008,1000,1505,1000,1000,1505,2008,1054,1014,0.2489,-0.0612,-0.0346,-0.0064,-0.0002,0.9916,0.2974,-0.0296,-0.2996,0.0319,0.4430,0.3324,0.0485,0.4430,0.3324,0.0485,0.3000,0.0600,0.0002,0,-0.3000,-100.0000,-0.0010,-0.3000,-100.0000,-0.0010,19.3046,50.1421,0.0300,0.0000
-18.2200,30.1922,-5.2574,0.5801,-0.0000,0.1200,0.0000,0.0000,0.0000,0.1643,-0.1338,-0.0001,996,1502,1500,1500,2008,1000,1505,1000,1000,1505,2008,1054,1014,0.1976,0.0128,-0.0649,-0.0093,0.0015,0.9925,0.2979,-0.0304,-0.2981,0.0306,0.4430,0.3324,0.0485,0.4430,0.3324,0.0485,0.3000,0.0600,0.0002,0,-0.3000,-100.0000,-0.0010,-0.3000,-100.0000,-0.0010,19.3447,50.1799,0.0200,0.0000
-18.1919,30.1578,-5.2448,0.5801,-0.0821,0.1200,0.0000,0.0000,0.0000,0.1641,-0.1336,-0.0000,996,1502,1500,1500,2008,1000,1505,1000,1000,1505,2008,1054,1014,0.1978,-0.0092,-0.0792,-0.0091,0.0025,0.9961,0.2977,-0.0305,-0.2978,0.0306,0.4430,0.3324,0.0485,0.4430,0.3324,0.0485,0.3000,0.0600,0.0002,0,-0.3000,-100.0000,-0.0010,-0.3000,-100.0000,-0.0010,19.3848,50.2178,0.0200,0.0000
-18.1644,30.1239,-5.2329,0.5801,-0.0821,0.1200,0.0000,0.0000,0.0000,0.1640,-0.1335,0.0001,996,1502,1500,1500,2008,1000,1505,1000,1000,1505,2008,1054,1014,0.1855,0.1305,-0.1209,-0.0062,0.0016,0.9904,0.2976,-0.0306,-0.2975,0.0304,0.4430,0.3324,0.0485,0.4430,0.3324,0.0485,0.3000,0.0600,0.0002,0,-0.3000,-100.0000,-0.0010,-0.3000,-100.0000,-0.0010,19.4249,50.2557,0.0200,0.0000
-18.1364,30.0906,-5.2210,0.4972,-0.0821,0.1200,0.0000,0.0000,0.0000,0.1639,-0.1333,-0.0001,996,1502,1500,1500,2008,1000,1505,1000,1000,1505,2008,1054,1014,0.2095,0.0549,-0.0711,-0.0053,0.0051,0.9908,0.2972,-0.0305,-0.2973,0.0306,0.4430,0.3324,0.0485,0.4430,0.3324,0.0485,0.3000,0.0600,0.0002,0,-0.3000,-100.0000,-0.0010,-0.3000,-100.0000,-0.0010,19.4650,50.2935,0.0200,0.0000
-18.1081,30.0568,-5.2084,0.5801,-0.0821,0.1200,0.0000,0.0000,0.0000,0.1637,-0.1332,-0.0001,996,1502,1500,1500,2008,1000,1505,1000,1000,1505,2008,1054,1014,0.2268,0.0633,-0.0355,-0.0052,-0.0003,0.9901,0.2968,-0.0304,-0.2971,0.0307,0.4430,0.3324,0.0485,0.4430,0.3324,0.0485,0.3000,0.0600,0.0002,0,-0.3000,-100.0000,-0.0010,-0.3000,-100.0000,-0.0010,19.5051,50.3313,0.0200,0.0000
-18.0803,30.0227,-5.1965,0.5801,-0.0821,0.1800,0.0000,0.0000,0.0000,0.1639,-0.1330,-0.0010,996,1502,1500,1500,2008,1000,1505,1000,1000,1505,2008,1054,1014,0.2324,-0.0010,-0.0705,-0.0056,0.0017,0.9902,0.2959,-0.0299,-0.2979,0.0319,0.4430,0.3324,0.0485,0.4430,0.3324,0.0485,0.3000,0.0600,0.0002,0,-0.3000,-100.0000,-0.0010,-0.3000,-100.0000,-0.0010,19.5452,50.3692,0.0300,0.0000
-18.0515,29.9881,-5.1833,0.5801,-0.0821,0.1200,0.0000,0.0000,0.0000,0.1635,-0.1328,-0.0002,996,1502,1500,1500,2008,1000,1505,1000,1000,1505,2008,1054,1014,0.2603,0.0011,-0.0101,-0.0066,0.0012,0.9916,0.2961,-0.0304,-0.2966,0.0309,0.4430,0.3324,0.0485,0.4430,0.3324,0.0485,0.3000,0.0600,0.0002,0,-0.3000,-100.0000,-0.0010,-0.3000,-100.0000,-0.0010,19.5854,50.4070,0.0200,0.0000
-18.0224,29.9540,-5.1703,0.4972,-0.0821,0.1200,0.0000,0.0000,0.0000,0.1633,-0.1327,-0.0003,996,1502,1500,1500,2008,1000,1505,1000,1000,1505,2008,1054,1014,0.3148,-0.0306,0.0136,-0.0075,-0.0015,0.9915,0.2957,-0.0303,-0.2963,0.0309,0.4430,0.3324,0.0485,0.4430,0.3324,0.0485,0.3000,0.0600,0.0002,0,-0.3000,-100.0000,-0.0010,-0.3000,-100.0000,-0.0010,19.6256,50.4448,0.0200,0.0000
-17.9936,29.9193,-5.1576,0.5801,-0.0821,0.1200,0.0000,0.0000,0.0000,0.1632,-0.1325,-0.0000,996,1502,1500,1500,2008,1000,1505,1000,1000,1505,2008,1054,1014,0.2373,-0.0155,-0.0794,-0.0071,-0.0013,0.9907,0.2957,-0.0307,-0.2958,0.0307,0.4430,0.3324,0.0485,0.4430,0.3324,0.0485,0.3000,0.0600,0.0002,0,-0.3000,-100.0000,-0.0010,-0.3000,-100.0000,-0.0010,19.6657,50.4826,0.0200,0.0000
-17.9652,29.8853,-5.1450,0.5801,-0.0821,0.1200,0.0000,0.0000,0.0000,0.1631,-0.1324,-0.0003,996,1502,1500,1500,2008,1000,1505,1000,1000,1505,2008,1054,1014,0.1996,0.0132,0.0252,-0.0106,0.0026,0.9890,0.2952,-0.0304,-0.2959,0.0311,0.4430,0.3324,0.0485,0.4430,0.3324,0.0485,0.3000,0.0600,0.0002,0,-0.3000,-100.0000,-0.0010,-0.3000,-100.0000,-0.0010,19.7059,50.5204,0.0200,0.0000
-17.9362,29.8506,-5.1316,0.5801,-0.0821,0.1200,0.0000,0.0000,0.0000,0.1630,-0.1322,-0.0003,996,1502,1500,1500,2008,1000,1505,1000,1000,1505,2008,1054,1014,0.2387,-0.0778,0.0281,-0.0084,-0.0004,0.9919,0.2948,-0.0304,-0.2955,0.0311,0.4430,0.3324,0.0485,0.4430,0.3324,0.0485,0.3000,0.0600,0.0002,0,-0.3000,-100.0000,-0.0010,-0.3000,-100.0000,-0.0010,19.7461,50.5582,0.0200,0.0000
-17.9084,29.8163,-5.1195,0.5801,-0.0821,0.1800,0.0000,0.0000,0.0000,0.1631,-0.1321,-0.0010,996,1502,1500,1500,2008,1000,1505,1000,1000,1505,2008,1054,1014,0.2364,-0.0013,-0.0839,-0.0067,-0.0004,0.9933,0.2942,-0.0301,-0.2962,0.0320,0.4430,0.3324,0.0485,0.4430,0.3324,0.0485,0.3000,0.0600,0.0002,0,-0.3000,-100.0000,-0.0010,-0.3000,-100.0000,-0.0010,19.7863,50.5959,0.0300,0.0000
-17.8800,29.7826,-5.1078,0.5801,-0.0821,0.1200,0.0000,0.0000,0.0000,0.1627,-0.1320,0.0000,996,1502,1500,1500,2008,1000,1505,1000,1000,1505,2008,1054,1014,0.2319,0.0281,-0.0769,-0.0088,0.0024,0.9901,0.2947,-0.0308,-0.2947,0.0308,0.4430,0.3324,0.0485,0.4430,0.3324,0.0485,0.3000,0.0600,0.0002,0,-0.3000,-100.0000,-0.0010,-0.3000,-100.0000,-0.0010,19.8265,50.6337,0.0200,0.0000
-17.8528,29.7485,-5.0960,0.5801,-0.0821,0.1200,0.0000,0.0000,0.0000,0.1626,-0.1318,-0.0001,996,1502,1500,1500,2008,1000,1505,1000,1000,1505,2008,1054,1014,0.1856,0.1104,-0.0321,-0.0085,0.0001,0.9875,0.2943,-0.0307,-0.2946,0.0309,0.4430,0.3324,0.0485,0.4430,0.3324,0.0485,0.3000,0.0600,0.0002,0,-0.3000,-100.0000,-0.0010,-0.3000,-100.0000,-0.0010,19.8668,50.6714,0.0200,0.0000
-17.8252,29.7142,-5.0838,0.5801,-0.0821,0.1200,0.0000,0.0000,0.0000,0.1625,-0.1316,-0.0002,996,1502,1500,1500,2008,1000,1505,1000,1000,1505,2008,1054,1014,0.1993,-0.0295,-0.0227,-0.0085,0.0031,0.9921,0.2939,-0.0307,-0.2943,0.0311,0.4430,0.3324,0.0485,0.4430,0.3324,0.0485,0.3000,0.0600,0.0002,0,-0.3000,-100.0000,-0.0010,-0.3000,-100.0000,-0.0010,19.9070,50.7092,0.0200,0.0000
-17.7970,29.6796,-5.0712,0.6630,-0.0821,0.1200,0.0000,0.0000,0.0000,0.1624,-0.1315,-0.0004,996,1502,1500,1500,2008,1000,1505,1000,1000,1505,2008,1054,1014,0.1760,0.0064,0.0211,-0.0089,0.0007,0.9890,0.2935,-0.0305,-0.2942,0.0313,0.4430,0.3324,0.0485,0.4430,0.3324,0.0485,0.3000,0.0600,0.0002,0,-0.3000,-100.0000,-0.0010,-0.3000,-100.0000,-0.0010,19.9473,50.7469,0.0200,0.0000
-17.7686,29.6459,-5.0583,0.5801,-0.0821,0.1200,0.0000,0.0000,0.0000,0.1622,-0.1314,-0.0002,996,1502,1500,1500,2008,1000,1505,1000,1000,1505,2008,1054,1014,0.2517,0.0695,-0.0220,-0.0055,-0.0000,0.9940,0.2934,-0.0307,-0.2938,0.0311,0.4430,0.3324,0.0485,0.4430,0.3324,0.0485,0.3000,0.0600,0.0002,0,-0.3000,-100.0000,-0.0010,-0.3000,-100.0000,-0.0010,19.9875,50.7847,0.0200,0.0000
-17.7403,29.6121,-5.0459,0.5801,-0.0821,0.1800,0.0000,0.0000,0.0000,0.1624,-0.1312,-0.0013,996,1502,1500,1500,2008,1000,1505,1000,1000,1505,2008,1054,1014,0.2406,0.0155,0.0073,-0.0058,-0.0001,0.9884,0.2923,-0.0299,-0.2949,0.0325,0.4430,0.3324,0.0485,0.4430,0.3324,0.0485,0.3000,0.0600,0.0002,0,-0.3000,-100.0000,-0.0010,-0.3000,-100.0000,-0.0010,20.0278,50.8224,0.0300,0.0000
-17.7116,29.5779,-5.0330,0.5801,-0.0821,0.1200,0.0000,0.0000,0.0000,0.1620,-0.1310,-0.0003,996,1502,1500,1500,2008,1000,1505,1000,1000,1505,2008,1054,1014,0.2372,-0.0226,0.0119,-0.0096,0.0013,0.9900,0.2927,-0.0307,-0.2933,0.0313,0.4430,0.3324,0.0485,0.4430,0.3324,0.0485,0.3000,0.0600,0.0002,0,-0.3000,-100.0000,-0.0010,-0.3000,-100.0000,-0.0010,20.0681,50.8601,0.0200,0.0000
-17.6841,29.5440,-5.0204,0.5801,-0.0821,0.1200,0.0000,0.0000,0.0000,0.1619,-0.1309,-0.0002,996,1502,1500,1500,2008,1000,1505,1000,1000,1505,2008,1054,1014,0.1591,0.0529,-0.0237,-0.0092,0.0005,0.9889,0.2926,-0.0308,-0.2930,0.0312,0.4430,0.3324,0.0485,0.4430,0.3324,0.0485,0.3000,0.0600,0.0002,0,-0.3000,-100.0000,-0.0010,-0.3000,-100.0000,-0.0010,20.1084,50.8979,0.0200,0.0000
-17.6564,29.5096,-5.0081,0.5801,-0.0821,0.1200,0.0000,0.0000,0.0000,0.1618,-0.1307,-0.0002,996,1502,1500,1500,2008,1000,1505,1000,1000,1505,2008,1054,1014,0.1919,0.0022,-0.0295,-0.0074,-0.0023,0.9901,0.2923,-0.0309,-0.2926,0.0312,0.4430,0.3324,0.0485,0.4430,0.3324,0.0485,0.3000,0.0600,0.0002,0,-0.3000,-100.0000,-0.0010,-0.3000,-100.0000,-0.0010,20.1488,50.9356,0.0200,0.0000
-17.6289,29.4750,-4.9957,0.5801,-0.0821,0.1200,0.0000,0.0000,0.0000,0.1616,-0.1306,-0.0002,996,1502,1500,1500,2008,1000,1505,1000,1000,1505,2008,1054,1014,0.2030,-0.0425,-0.0073,-0.0063,0.0020,0.9882,0.2920,-0.0309,-0.2924,0.0313,0.4430,0.3324,0.0485,0.4430,0.3324,0.0485,0.3000,0.0600,0.0002,0,-0.3000,-100.0000,-0.0010,-0.3000,-100.0000,-0.0010,20.1891,50.9733,0.0200,0.0000
-17.6007,29.4404,-4.9833,0.5801,-0.0821,0.1200,0.0000,0.0000,0.0000,0.1615,-0.1304,-0.0003,996,1502,1500,1500,2008,1000,1505,1000,1000,1505,2008,1054,1014,0.2488,-0.0591,-0.0284,-0.0079,0.0011,0.9956,0.2916,-0.0308,-0.2921,0.0313,0.4430,0.3324,0.0485,0.4430,0.3324,0.0485,0.3000,0.0600,0.0002,0,-0.3000,-100.0000,-0.0010,-0.3000,-100.0000,-0.0010,20.2294,51.0110,0.0200,0.0000
-17.5724,29.4055,-4.9706,0.5801,-0.0821,0.1800,0.0000,0.0000,0.0000,0.1616,-0.1303,-0.0010,996,1502,1500,1500,2008,1000,1505,1000,1000,1505,2008,1054,1014,0.2315,-0.0185,-0.0639,-0.0058,0.0035,0.9897,0.2909,-0.0304,-0.2929,0.0324,0.4430,0.3324,0.0485,0.4430,0.3324,0.0485,0.3000,0.0600,0.0002,0,-0.3000,-100.0000,-0.0010,-0.3000,-100.0000,-0.0010,20.2698,51.0486,0.0300,0.0000
-17.5443,29.3710,-4.9582,0.5801,-0.0821,0.1200,0.0000,0.0000,0.0000,0.1612,-0.1301,-0.0003,996,1502,1500,1500,2008,1000,1505,1000,1000,1505,2008,1054,1014,0.2439,0.0241,0.0162,-0.0077,0.0009,0.9905,0.2911,-0.0308,-0.2916,0.0314,0.4430,0.3324,0.0485,0.4430,0.3324,0.0485,0.3000,0.0600,0.0002,0,-0.3000,-100.0000,-0.0010,-0.3000,-100.0000,-0.0010,20.3101,51.0863,0.0200,0.0000
-17.5157,29.3362,-4.9453,0.5801,-0.0821,0.1200,0.0000,0.0000,0.0000,0.1611,-0.1299,-0.0002,996,1502,1500,1500,2008,1000,1505,1000,1000,1505,2008,1054,1014,0.2771,-0.0736,-0.0132,-0.0075,0.0001,0.9898,0.2908,-0.0310,-0.2912,0.0314,0.4430,0.3324,0.0485,0.4430,0.3324,0.0485,0.3000,0.0600,0.0002,0,-0.3000,-100.0000,-0.0010,-0.3000,-100.0000,-0.0010,20.3505,51.1240,0.0200,0.0000
-17.4876,29.3025,-4.9327,0.5801,-0.0821,0.1200,0.0000,0.0000,0.0000,0.1610,-0.1299,-0.0004,996,1502,1500,1500,2008,1000,1505,1000,1000,1505,2008,1054,1014,0.1762,0.0864,0.0552,-0.0082,0.0034,0.9899,0.2904,-0.0307,-0.2913,0.0316,0.4430,0.3324,0.0485,0.4430,0.3324,0.0485,0.3000,0.0600,0.0002,0,-0.3000,-100.0000,-0.0010,-0.3000,-100.0000,-0.0010,20.3909,51.1617,0.0200,0.0000
-17.4596,29.2686,-4.9203,0.5801,-0.0821,0.1200,0.0000,0.0000,0.0000,0.1609,-0.1296,-0.0000,996,1502,1500,1500,2008,1000,1505,1000,1000,1505,2008,1054,1014,0.2153,-0.0283,-0.0721,-0.0072,-0.0006,0.9888,0.2905,-0.0312,-0.2906,0.0313,0.4430,0.3324,0.0485,0.4430,0.3324,0.0485,0.3000,0.0600,0.0002,0,-0.3000,-100.0000,-0.0010,-0.3000,-100.0000,-0.0010,20.4313,51.1993,0.0200,0.0000
-17.4320,29.2339,-4.9083,0.5801,-0.0821,0.1200,0.0000,0.0000,0.0000,0.1607,-0.1295,-0.0000,996,1502,1500,1500,2008,1000,1505,1000,1000,1505,2008,1054,1014,0.2310,0.0165,-0.0628,-0.0071,-0.0002,0.9917,0.2902,-0.0312,-0.2903,0.0312,0.4430,0.3324,0.0485,0.4430,0.3324,0.0485,0.3000,0.0600,0.0002,0,-0.3000,-100.0000,-0.0010,-0.3000,-100.0000,-0.0010,20.4717,51.2370,0.0200,0.0000
-17.4041,29.1996,-4.8958,0.5801,-0.0821,0.1800,0.0000,0.0000,0.0000,0.1609,-0.1294,-0.0013,996,1502,1500,1500,2008,1000,1505,1000,1000,1505,2008,1054,1014,0.1940,0.0347,0.0161,-0.0052,-0.0001,0.9890,0.2890,-0.0303,-0.2916,0.0328,0.4430,0.3324,0.0485,0.4430,0.3324,0.0485,0.3000,0.0600,0.0002,0,-0.3000,-100.0000,-0.0010,-0.3000,-100.0000,-0.0010,20.5121,51.2746,0.0300,0.0000
-17.3762,29.1645,-4.8831,0.5801,-0.0821,0.1200,0.0000,0.0000,0.0000,0.1605,-0.1292,-0.0002,996,1502,1500,1500,2008,1000,1505,1000,1000,1505,2008,1054,1014,0.2564,-0.0579,-0.0099,-0.0072,0.0013,0.9886,0.2894,-0.0311,-0.2899,0.0316,0.4430,0.3324,0.0485,0.4430,0.3324,0.0485,0.3000,0.0600,0.0002,0,-0.3000,-100.0000,-0.0010,-0.3000,-100.0000,-0.0010,20.5525,51.3122,0.0200,0.0000
-17.3475,29.1295,-4.8706,0.5801,-0.0821,0.1200,0.0000,0.0000,0.0000,0.1603,-0.1290,-0.0004,996,1502,1500,1500,2008,1000,1505,1000,1000,1505,2008,1054,1014,0.2831,-0.0145,0.0370,-0.0048,-0.0013,0.9904,0.2890,-0.0309,-0.2897,0.0317,0.4430,0.3324,0.0485,0.4430,0.3324,0.0485,0.3000,0.0600,0.0002,0,-0.3000,-100.0000,-0.0010,-0.3000,-100.0000,-0.0010,20.5929,51.3498,0.0200,0.0000
-17.3191,29.0957,-4.8581,0.5801,-0.0821,0.1200,0.0000,0.0000,0.0000,0.1602,-0.1289,-0.0004,996,1502,1500,1500,2008,1000,1505,1000,1000,1505,2008,1054,1014,0.2344,0.0778,0.0336,-0.0101,0.0015,0.9910,0.2888,-0.0310,-0.2895,0.0317,0.4430,0.3324,0.0485,0.4430,0.3324,0.0485,0.3000,0.0600,0.0002,0,-0.3000,-100.0000,-0.0010,-0.3000,-100.0000,-0.0010,20.6334,51.3874,0.0200,0.0000
-17.2908,29.0616,-4.8453,0.5801,-0.0821,0.1200,0.0000,0.0000,0.0000,0.1602,-0.1288,-0.0004,996,1502,1500,1500,2008,1000,1505,1000,1000,1505,2008,1054,1014,0.1405,0.0938,0.0466,-0.0082,0.0036,0.9930,0.2886,-0.0310,-0.2893,0.0317,0.4430,0.3324,0.0485,0.4430,0.3324,0.0485,0.3000,0.0600,0.0002,0,-0.3000,-100.0000,-0.0010,-0.3000,-100.0000,-0.0010,20.6739,51.4251,0.0200,0.0000
-17.2631,29.0270,-4.8326,0.5801,-0.0000,0.1200,0.0000,0.0000,0.0000,0.1600,-0.1286,-0.0002,996,1502,1500,1500,2008,1000,1505,1000,1000,1505,2008,1054,1014,0.1600,0.0034,-0.0180,-0.0093,0.0012,0.9921,0.2884,-0.0313,-0.2888,0.0316,0.4430,0.3324,0.0485,0.4430,0.3324,0.0485,0.3000,0.0600,0.0002,0,-0.3000,-100.0000,-0.0010,-0.3000,-100.0000,-0.0010,20.7144,51.4627,0.0200,0.0000
-17.2356,28.9925,-4.8205,0.5801,-0.0821,0.1800,0.0000,0.0000,0.0000,0.1601,-0.1285,-0.0009,996,1502,1500,1500,2008,1000,1505,1000,1000,1505,2008,1054,1014,0.2168,0.0391,-0.0904,-0.0081,-0.0020,0.9944,0.2877,-0.0308,-0.2895,0.0326,0.4430,0.3324,0.0485,0.4430,0.3324,0.0485,0.3000,0.0600,0.0002,0,-0.3000,-100.0000,-0.0010,-0.3000,-100.0000,-0.0010,20.7549,51.5003,0.0300,0.0000
-17.2083,28.9578,-4.8087,0.5801,-0.0821,0.1200,0.0000,0.0000,0.0000,0.1598,-0.1283,-0.0003,996,1502,1500,1500,2008,1000,1505,1000,1000,1505,2008,1054,1014,0.1780,0.0221,0.0242,-0.0060,-0.0015,0.9894,0.2878,-0.0312,-0.2884,0.0318,0.4430,0.3324,0.0485,0.4430,0.3324,0.0485,0.3000,0.0600,0.0002,0,-0.3000,-100.0000,-0.0010,-0.3000,-100.0000,-0.0010,20.7954,51.5379,0.0200,0.0000
-17.1809,28.9228,-4.7965,0.5801,-0.0821,0.1200,0.0000,0.0000,0.0000,0.1596,-0.1281,-0.0000,996,1502,1500,1500,2008,1000,1505,1000,1000,1505,2008,1054,1014,0.1989,-0.0332,-0.0653,-0.0062,0.0009,0.9884,0.2878,-0.0315,-0.2878,0.0315,0.4430,0.3324,0.0485,0.4430,0.3324,0.0485,0.3000,0.0600,0.0002,0,-0.3000,-100.0000,-0.0010,-0.3000,-100.0000,-0.0010,20.8359,51.5754,0.0200,0.0000
-17.1529,28.8872,-4.7847,0.5801,-0.0821,0.1200,0.0000,0.0000,0.0000,0.1595,-0.1279,-0.0001,996,1502,1500,1500,2008,1000,1505,1000,1000,1505,2008,1054,1014,0.2342,-0.1016,-0.0617,-0.0085,0.0018,0.9916,0.2874,-0.0315,-0.2875,0.0317,0.4430,0.3324,0.0485,0.4430,0.3324,0.0485,0.3000,0.0600,0.0002,0,-0.3000,-100.0000,-0.0010,-0.3000,-100.0000,-0.0010,20.8765,51.6130,0.0200,0.0000
-17.1245,28.8517,-4.7727,0.5801,-0.0821,0.1200,0.0000,0.0000,0.0000,0.1594,-0.1278,0.0000,996,1502,1500,1500,2008,1000,1505,1000,1000,1505,2008,1054,1014,0.2951,-0.0217,-0.0932,-0.0094,0.0014,0.9925,0.2872,-0.0316,-0.2871,0.0315,0.4430,0.3324,0.0485,0.4430,0.3324,0.0485,0.3000,0.0600,0.0002,0,-0.3000,-100.0000,-0.0010,-0.3000,-100.0000,-0.0010,20.9170,51.6505,0.0200,0.0000
-17.0957,28.8168,-4.7599,0.5801,-0.0821,0.1200,0.0000,0.0000,0.0000,0.1593,-0.1276,-0.0004,996,1502,1500,1500,2008,1000,1505,1000,1000,1505,2008,1054,1014,0.2369,-0.0208,0.0387,-0.0086,0.0006,0.9940,0.2865,-0.0312,-0.2873,0.0320,0.4430,0.3324,0.0485,0.4430,0.3324,0.0485,0.3000,0.0600,0.0002,0,-0.3000,-100.0000,-0.0010,-0.3000,-100.0000,-0.0010,20.9576,51.6880,0.0200,0.0000
-17.0671,28.7821,-4.7474,0.5801,-0.0821,0.1800,0.0000,0.0000,0.0000,0.1594,-0.1275,-0.0011,996,1502,1500,1500,2008,1000,1505,1000,1000,1505,2008,1054,1014,0.2548,-0.0055,-0.0412,-0.0072,-0.0024,0.9878,0.2858,-0.0308,-0.2880,0.0329,0.4430,0.3324,0.0485,0.4430,0.3324,0.0485,0.3000,0.0600,0.0002,0,-0.3000,-100.0000,-0.0010,-0.3000,-100.0000,-0.0010,20.9981,51.7256,0.0300,0.0000
-17.0385,28.7472,-4.7342,0.5801,-0.0821,0.1200,0.0000,0.0000,0.0000,0.1590,-0.1273,-0.0005,996,1502,1500,1500,2008,1000,1505,1000,1000,1505,2008,1054,1014,0.2703,-0.0526,0.1000,-0.0093,0.0019,0.9892,0.2858,-0.0311,-0.2869,0.0322,0.4430,0.3324,0.0485,0.4430,0.3324,0.0485,0.3000,0.0600,0.0002,0,-0.3000,-100.0000,-0.0010,-0.3000,-100.0000,-0.0010,21.0387,51.7631,0.0200,0.0000
-17.0101,28.7129,-4.7217,0.5801,-0.0821,0.1200,0.0000,0.0000,0.0000,0.1589,-0.1272,-0.0002,996,1502,1500,1500,2008,1000,1505,1000,1000,1505,2008,1054,1014,0.2562,-0.0010,-0.0292,-0.0057,-0.0022,0.9883,0.2859,-0.0315,-0.2862,0.0318,0.4430,0.3324,0.0485,0.4430,0.3324,0.0485,0.3000,0.0600,0.0002,0,-0.3000,-100.0000,-0.0010,-0.3000,-100.0000,-0.0010,21.0793,51.8006,0.0200,0.0000
-16.9823,28.6779,-4.7096,0.5801,-0.0821,0.1200,0.0000,0.0000,0.0000,0.1588,-0.1270,-0.0002,996,1502,1500,1500,2008,1000,1505,1000,1000,1505,2008,1054,1014,0.1710,-0.0225,-0.0026,-0.0089,0.0007,0.9943,0.2856,-0.0315,-0.2860,0.0320,0.4430,0.3324,0.0485,0.4430,0.3324,0.0485,0.3000,0.0600,0.0002,0,-0.3000,-100.0000,-0.0010,-0.3000,-100.0000,-0.0010,21.1199,51.8381,0.0200,0.0000
-16.9550,28.6431,-4.6973,0.5801,-0.0000,0.1200,0.0000,0.0000,0.0000,0.1587,-0.1269,-0.0002,996,1502,1500,1500,2008,1000,1505,1000,1000,1505,2008,1054,1014,0.1145,-0.0171,-0.0227,-0.0073,-0.0008,0.9948,0.2854,-0.0316,-0.2857,0.0320,0.4430,0.3324,0.0485,0.4430,0.3324,0.0485,0.3000,0.0600,0.0002,0,-0.3000,-100.0000,-0.0010,-0.3000,-100.0000,-0.0010,21.1605,51.8755,0.0200,0.0000
-16.9279,28.6078,-4.6851,0.5801,-0.0000,0.1200,0.0000,0.0000,0.0000,0.1586,-0.1267,-0.0004,996,1502,1500,1500,2008,1000,1505,1000,1000,1505,2008,1054,1014,0.1457,-0.0786,0.0274,-0.0071,0.0008,0.9895,0.2849,-0.0315,-0.2856,0.0322,0.4430,0.3324,0.0485,0.4430,0.3324,0.0485,0.3000,0.0600,0.0002,0,-0.3000,-100.0000,-0.0010,-0.3000,-100.0000,-0.0010,21.2010,51.9130,0.0200,0.0000
-16.9001,28.5724,-4.6728,0.5801,-0.0000,0.1800,0.0000,0.0000,0.0000,0.1586,-0.1265,-0.0011,996,1502,1500,1500,2008,1000,1505,1000,1000,1505,2008,1054,1014,0.2845,-0.1327,-0.0361,-0.0066,-0.0000,0.9927,0.2841,-0.0310,-0.2862,0.0332,0.4430,0.3324,0.0485,0.4430,0.3324,0.0485,0.3000,0.0600,0.0002,0,-0.3000,-100.0000,-0.0010,-0.3000,-100.0000,-0.0010,21.2417,51.9505,0.0300,0.0000
-16.8723,28.5367,-4.6613,0.5801,-0.0821,0.1200,0.0000,0.0000,0.0000,0.1582,-0.1264,0.0000,996,1502,1500,1500,2008,1000,1505,1000,1000,1505,2008,1054,1014,0.2668,-0.0315,-0.1007,-0.0062,-0.0028,0.9933,0.2847,-0.0319,-0.2846,0.0318,0.4430,0.3324,0.0485,0.4430,0.3324,0.0485,0.3000,0.0600,0.0002,0,-0.3000,-100.0000,-0.0010,-0.3000,-100.0000,-0.0010,21.2823,51.9880,0.0200,0.0000
-16.8441,28.5016,-4.6490,0.5801,-0.0821,0.1200,0.0000,0.0000,0.0000,0.1581,-0.1262,-0.0001,996,1502,1500,1500,2008,1000,1505,1000,1000,1505,2008,1054,1014,0.2489,-0.0918,-0.0316,-0.0086,0.0022,0.9920,0.2842,-0.0318,-0.2845,0.0320,0.4430,0.3324,0.0485,0.4430,0.3324,0.0485,0.3000,0.0600,0.0002,0,-0.3000,-100.0000,-0.0010,-0.3000,-100.0000,-0.0010,21.3230,52.0255,0.0200,0.0000
-16.8163,28.4660,-4.6369,0.5801,-0.0821,0.1200,0.0000,0.0000,0.0000,0.1580,-0.1260,-0.0003,996,1502,1500,1500,2008,1000,1505,1000,1000,1505,2008,1054,1014,0.2294,-0.1255,-0.0024,-0.0075,-0.0009,0.9868,0.2838,-0.0317,-0.2844,0.0323,0.4430,0.3324,0.0485,0.4430,0.3324,0.0485,0.3000,0.0600,0.0002,0,-0.3000,-100.0000,-0.0010,-0.3000,-100.0000,-0.0010,21.3637,52.0630,0.0200,0.0000
-16.7883,28.4310,-4.6245,0.5801,-0.0821,0.1200,0.0000,0.0000,0.0000,0.1579,-0.1260,-0.0005,996,1502,1500,1500,2008,1000,1505,1000,1000,1505,2008,1054,1014,0.2284,0.0464,0.0543,-0.0052,0.0012,0.9914,0.2834,-0.0315,-0.2843,0.0324,0.4430,0.3324,0.0485,0.4430,0.3324,0.0485,0.3000,0.0600,0.0002,0,-0.3000,-100.0000,-0.0010,-0.3000,-100.0000,-0.0010,21.4044,52.1004,0.0200,0.0000
-16.7601,28.3968,-4.6118,0.5801,-0.0821,0.1200,0.0000,0.0000,0.0000,0.1578,-0.1258,-0.0003,996,1502,1500,1500,2008,1000,1505,1000,1000,1505,2008,1054,1014,0.2019,0.0498,0.0283,-0.0059,0.0027,0.9911,0.2833,-0.0317,-0.2839,0.0323,0.4430,0.3324,0.0485,0.4430,0.3324,0.0485,0.3000,0.0600,0.0002,0,-0.3000,-100.0000,-0.0010,-0.3000,-100.0000,-0.0010,21.4451,52.1379,0.0200,0.0000
-16.7330,28.3625,-4.6004,0.5801,-0.0821,0.1800,0.0000,0.0000,0.0000,0.1579,-0.1257,-0.0011,996,1502,1500,1500,2008,1000,1505,1000,1000,1505,2008,1054,1014,0.1668,0.1052,-0.0444,-0.0078,0.0019,0.9946,0.2825,-0.0311,-0.2848,0.0334,0.4430,0.3324,0.0485,0.4430,0.3324,0.0485,0.3000,0.0600,0.0002,0,-0.3000,-100.0000,-0.0010,-0.3000,-100.0000,-0.0010,21.4858,52.1753,0.0300,0.0000
-16.7057,28.3279,-4.5886,0.5801,-0.0821,0.1200,0.0000,0.0000,0.0000,0.1575,-0.1255,-0.0001,996,1502,1500,1500,2008,1000,1505,1000,1000,1505,2008,1054,1014,0.2019,-0.0816,-0.0432,-0.0081,-0.0001,0.9908,0.2829,-0.0320,-0.2831,0.0322,0.4430,0.3324,0.0485,0.4430,0.3324,0.0485,0.3000,0.0600,0.0002,0,-0.3000,-100.0000,-0.0010,-0.3000,-100.0000,-0.0010,21.5265,52.2128,0.0200,0.0000
-16.6787,28.2921,-4.5772,0.5801,-0.0821,0.1200,0.0000,0.0000,0.0000,0.1575,-0.1253,-0.0001,996,1502,1500,1500,2008,1000,1505,1000,1000,1505,2008,1054,1014,0.1378,-0.0172,-0.0491,-0.0078,0.0004,0.9928,0.2827,-0.0321,-0.2828,0.0322,0.4430,0.3324,0.0485,0.4430,0.3324,0.0485,0.3000,0.0600,0.0002,0,-0.3000,-100.0000,-0.0010,-0.3000,-100.0000,-0.0010,21.5673,52.2502,0.0200,0.0000
-16.6509,28.2570,-4.5653,0.5801,-0.0821,0.1200,0.0000,0.0000,0.0000,0.1573,-0.1252,-0.0006,996,1502,1500,1500,2008,1000,1505,1000,1000,1505,2008,1054,1014,0.2498,-0.0408,0.0948,-0.0068,-0.0006,0.9927,0.2818,-0.0315,-0.2830,0.0327,0.4430,0.3324,0.0485,0.4430,0.3324,0.0485,0.3000,0.0600,0.0002,0,-0.3000,-100.0000,-0.0010,-0.3000,-100.0000,-0.0010,21.6080,52.2877,0.0200,0.0000
-16.6229,28.2218,-4.5529,0.5801,-0.0821,0.1200,0.0000,0.0000,0.0000,0.1572,-0.1250,-0.0000,996,1502,1500,1500,2008,1000,1505,1000,1000,1505,2008,1054,1014,0.2176,-0.0383,-0.0626,-0.0079,0.0023,0.9911,0.2821,-0.0321,-0.2822,0.0322,0.4430,0.3324,0.0485,0.4430,0.3324,0.0485,0.3000,0.0600,0.0002,0,-0.3000,-100.0000,-0.0010,-0.3000,-100.0000,-0.0010,21.6488,52.3251,0.0200,0.0000
-16.5952,28.1863,-4.5409,0.5801,-0.0821,0.1200,0.0000,0.0000,0.0000,0.1571,-0.1249,-0.0001,996,1502,1500,1500,2008,1000,1505,1000,1000,1505,2008,1054,1014,0.1887,-0.0164,-0.0544,-0.0086,-0.0005,0.9925,0.2818,-0.0321,-0.2820,0.0323,0.4430,0.3324,0.0485,0.4430,0.3324,0.0485,0.3000,0.0600,0.0002,0,-0.3000,-100.0000,-0.0010,-0.3000,-100.0000,-0.0010,21.6895,52.3625,0.0200,0.0000
-16.5674,28.1521,-4.5293,0.5801,-0.0821,0.1800,0.0000,0.0000,0.0000,0.1572,-0.1248,-0.0012,996,1502,1500,1500,2008,1000,1505,1000,1000,1505,2008,1054,1014,0.2346,0.1182,-0.0038,-0.0103,0.0025,0.9891,0.2808,-0.0312,-0.2831,0.0336,0.4430,0.3324,0.0485,0.4430,0.3324,0.0485,0.3000,0.0600,0.0002,0,-0.3000,-100.0000,-0.0010,-0.3000,-100.0000,-0.0010,21.7303,52.3999,0.0300,0.0000
-16.5394,28.1173,-4.5177,0.5801,-0.0821,0.1200,0.0000,0.0000,0.0000,0.1568,-0.1246,-0.0002,996,1502,1500,1500,2008,1000,1505,1000,1000,1505,2008,1054,1014,0.2709,0.0659,-0.0175,-0.0066,0.0006,0.9932,0.2812,-0.0320,-0.2816,0.0324,0.4430,0.3324,0.0485,0.4430,0.3324,0.0485,0.3000,0.0600,0.0002,0,-0.3000,-100.0000,-0.0010,-0.3000,-100.0000,-0.0010,21.7711,52.4373,0.0200,0.0000
-16.5110,28.0821,-4.5061,0.6630,-0.0821,0.1200,0.0000,0.0000,0.0000,0.1566,-0.1244,-0.0001,996,1502,1500,1500,2008,1000,1505,1000,1000,1505,2008,1054,1014,0.2740,0.0159,-0.0631,-0.0049,0.0024,0.9924,0.2809,-0.0321,-0.2812,0.0323,0.4430,0.3324,0.0485,0.4430,0.3324,0.0485,0.3000,0.0600,0.0002,0,-0.3000,-100.0000,-0.0010,-0.3000,-100.0000,-0.0010,21.8119,52.4747,0.0200,0.0000
-16.4830,28.0477,-4.4944,0.5801,-0.0821,0.1200,0.0000,0.0000,0.0000,0.1565,-0.1243,-0.0001,996,1502,1500,1500,2008,1000,1505,1000,1000,1505,2008,1054,1014,0.2416,0.0627,-0.0556,-0.0040,-0.0006,0.9897,0.2807,-0.0322,-0.2809,0.0323,0.4430,0.3324,0.0485,0.4430,0.3324,0.0485,0.3000,0.0600,0.0002,0,-0.3000,-100.0000,-0.0010,-0.3000,-100.0000,-0.0010,21.8527,52.5121,0.0200,0.0000
-16.4554,28.0125,-4.4833,0.5801,-0.0821,0.1200,0.0000,0.0000,0.0000,0.1564,-0.1241,-0.0001,996,1502,1500,1500,2008,1000,1505,1000,1000,1505,2008,1054,1014,0.2597,0.0004,-0.0687,-0.0077,-0.0016,0.9930,0.2804,-0.0322,-0.2806,0.0324,0.4430,0.3324,0.0485,0.4430,0.3324,0.0485,0.3000,0.0600,0.0002,0,-0.3000,-100.0000,-0.0010,-0.3000,-100.0000,-0.0010,21.8936,52.5495,0.0200,0.0000
-16.4279,27.9771,-4.4718,0.5801,-0.0821,0.1200,0.0000,0.0000,0.0000,0.1563,-0.1239,-0.0000,996,1502,1500,1500,2008,1000,1505,1000,1000,1505,2008,1054,1014,0.2061,-0.0425,-0.0717,-0.0071,0.0016,0.9921,0.2802,-0.0324,-0.2803,0.0324,0.4430,0.3324,0.0485,0.4430,0.3324,0.0485,0.3000,0.0600,0.0002,0,-0.3000,-100.0000,-0.0010,-0.3000,-100.0000,-0.0010,21.9345,52.5868,0.0200,0.0000
-16.4012,27.9421,-4.4605,0.5801,-0.0821,0.1800,0.0000,0.0000,0.0000,0.1565,-0.1238,-0.0010,996,1502,1500,1500,2008,1000,1505,1000,1000,1505,2008,1054,1014,0.1516,0.0281,-0.0623,-0.0061,0.0006,0.9915,0.2792,-0.0317,-0.2813,0.0337,0.4430,0.3324,0.0485,0.4430,0.3324,0.0485,0.3000,0.0600,0.0002,0,-0.3000,-100.0000,-0.0010,-0.3000,-100.0000,-0.0010,21.9753,52.6242,0.0300,0.0000
-16.3738,27.9069,-4.4493,0.5801,-0.0821,0.1200,0.0000,0.0000,0.0000,0.1561,-0.1236,0.0000,996,1502,1500,1500,2008,1000,1505,1000,1000,1505,2008,1054,1014,0.2397,0.0176,-0.0837,-0.0023,0.0035,0.9970,0.2797,-0.0325,-0.2796,0.0324,0.4430,0.3324,0.0485,0.4430,0.3324,0.0485,0.3000,0.0600,0.0002,0,-0.3000,-100.0000,-0.0010,-0.3000,-100.0000,-0.0010,22.0162,52.6615,0.0200,0.0000
-16.3462,27.8717,-4.4381,0.5801,-0.0821,0.1200,0.0000,0.0000,0.0000,0.1559,-0.1234,-0.0001,996,1502,1500,1500,2008,1000,1505,1000,1000,1505,2008,1054,1014,0.2119,-0.0593,-0.0486,-0.0066,0.0012,0.9944,0.2793,-0.0324,-0.2795,0.0326,0.4430,0.3324,0.0485,0.4430,0.3324,0.0485,0.3000,0.0600,0.0002,0,-0.3000,-100.0000,-0.0010,-0.3000,-100.0000,-0.0010,22.0571,52.6988,0.0200,0.0000
-16.3185,27.8359,-4.4262,0.5801,-0.0821,0.1200,0.0000,0.0000,0.0000,0.1558,-0.1233,-0.0003,996,1502,1500,1500,2008,1000,1505,1000,1000,1505,2008,1054,1014,0.2109,-0.0228,-0.0037,-0.0077,0.0015,0.9949,0.2789,-0.0323,-0.2794,0.0328,0.4430,0.3324,0.0485,0.4430,0.3324,0.0485,0.3000,0.0600,0.0002,0,-0.3000,-100.0000,-0.0010,-0.3000,-100.0000,-0.0010,22.0980,52.7361,0.0200,0.0000
-16.2907,27.8009,-4.4143,0.5801,-0.0821,0.1200,0.0000,0.0000,0.0000,0.1557,-0.1232,-0.0005,996,1502,1500,1500,2008,1000,1505,1000,1000,1505,2008,1054,1014,0.2796,-0.0090,0.0644,-0.0066,0.0014,0.9930,0.2784,-0.0320,-0.2793,0.0330,0.4430,0.3324,0.0485,0.4430,0.3324,0.0485,0.3000,0.0600,0.0002,0,-0.3000,-100.0000,-0.0010,-0.3000,-100.0000,-0.0010,22.1389,52.7735,0.0200,0.0000
-16.2623,27.7655,-4.4018,0.6630,-0.0821,0.1200,0.0000,0.0000,0.0000,0.1555,-0.1230,-0.0003,996,1502,1500,1500,2008,1000,1505,1000,1000,1505,2008,1054,1014,0.3285,-0.0278,0.0104,-0.0099,-0.0030,0.9910,0.2782,-0.0322,-0.2788,0.0328,0.4430,0.3324,0.0485,0.4430,0.3324,0.0485,0.3000,0.0600,0.0002,0,-0.3000,-100.0000,-0.0010,-0.3000,-100.0000,-0.0010,22.1799,52.8108,0.0200,0.0000
-16.2338,27.7304,-4.3901,0.5801,-0.0821,0.1800,0.0000,0.0000,0.0000,0.1557,-0.1229,-0.0012,996,1502,1500,1500,2008,1000,1505,1000,1000,1505,2008,1054,1014,0.2636,0.0327,0.0019,-0.0094,-0.0003,0.9925,0.2774,-0.0317,-0.2797,0.0340,0.4430,0.3324,0.0485,0.4430,0.3324,0.0485,0.3000,0.0600,0.0002,0,-0.3000,-100.0000,-0.0010,-0.3000,-100.0000,-0.0010,22.2208,52.8481,0.0300,0.0000
-16.2059,27.6957,-4.3785,0.5801,-0.0821,0.1200,0.0000,0.0000,0.0000,0.1553,-0.1227,-0.0002,996,1502,1500,1500,2008,1000,1505,1000,1000,1505,2008,1054,1014,0.2537,0.0760,0.0023,-0.0073,0.0019,0.9939,0.2778,-0.0323,-0.2783,0.0328,0.4430,0.3324,0.0485,0.4430,0.3324,0.0485,0.3000,0.0600,0.0002,0,-0.3000,-100.0000,-0.0010,-0.3000,-100.0000,-0.0010,22.2617,52.8853,0.0200,0.0000
-16.1786,27.6610,-4.3673,0.5801,-0.0821,0.1200,0.0000,0.0000,0.0000,0.1552,-0.1226,0.0000,996,1502,1500,1500,2008,1000,1505,1000,1000,1505,2008,1054,1014,0.1853,0.0425,-0.0674,-0.0091,0.0005,0.9905,0.2778,-0.0327,-0.2777,0.0326,0.4430,0.3324,0.0485,0.4430,0.3324,0.0485,0.3000,0.0600,0.0002,0,-0.3000,-100.0000,-0.0010,-0.3000,-100.0000,-0.0010,22.3026,52.9226,0.0200,0.0000
-16.1522,27.6258,-4.3563,0.5801,-0.0821,0.1200,0.0000,0.0000,0.0000,0.1551,-0.1224,-0.0001,996,1502,1500,1500,2008,1000,1505,1000,1000,1505,2008,1054,1014,0.1088,-0.0031,-0.0285,-0.0066,0.0008,0.9918,0.2774,-0.0326,-0.2777,0.0329,0.4430,0.3324,0.0485,0.4430,0.3324,0.0485,0.3000,0.0600,0.0002,0,-0.3000,-100.0000,-0.0010,-0.3000,-100.0000,-0.0010,22.3435,52.9599,0.0200,0.0000
-16.1253,27.5898,-4.3445,0.5801,-0.0821,0.1200,0.0000,0.0000,0.0000,0.1550,-0.1222,-0.0000,996,1502,1500,1500,2008,1000,1505,1000,1000,1505,2008,1054,1014,0.1729,-0.0135,-0.0643,-0.0082,0.0034,0.9914,0.2772,-0.0327,-0.2772,0.0328,0.4430,0.3324,0.0485,0.4430,0.3324,0.0485,0.3000,0.0600,0.0002,0,-0.3000,-100.0000,-0.0010,-0.3000,-100.0000,-0.0010,22.3845,52.9972,0.0200,0.0000
-16.0980,27.5543,-4.3330,0.5801,-0.0821,0.1200,0.0000,0.0000,0.0000,0.1548,-0.1221,-0.0003,996,1502,1500,1500,2008,1000,1505,1000,1000,1505,2008,1054,1014,0.2006,-0.0191,0.0091,-0.0046,0.0008,0.9921,0.2766,-0.0325,-0.2772,0.0331,0.4430,0.3324,0.0485,0.4430,0.3324,0.0485,0.3000,0.0600,0.0002,0,-0.3000,-100.0000,-0.0010,-0.3000,-100.0000,-0.0010,22.4256,53.0344,0.0200,0.0000
-16.0700,27.5185,-4.3211,0.5801,-0.0821,0.1800,0.0000,0.0000,0.0000,0.1549,-0.1219,-0.0011,996,1502,1500,1500,2008,1000,1505,1000,1000,1505,2008,1054,1014,0.3554,-0.0264,-0.0422,-0.0053,0.0007,0.9885,0.2757,-0.0320,-0.2779,0.0341,0.4430,0.3324,0.0485,0.4430,0.3324,0.0485,0.3000,0.0600,0.0002,0,-0.3000,-100.0000,-0.0010,-0.3000,-100.0000,-0.0010,22.4665,53.0717,0.0300,0.0000
-16.0417,27.4833,-4.3094,0.5801,-0.0821,0.1200,0.0000,0.0000,0.0000,0.1545,-0.1218,-0.0001,996,1502,1500,1500,2008,1000,1505,1000,1000,1505,2008,1054,1014,0.3343,0.0540,-0.0212,-0.0085,-0.0024,0.9918,0.2762,-0.0326,-0.2765,0.0329,0.4430,0.3324,0.0485,0.4430,0.3324,0.0485,0.3000,0.0600,0.0002,0,-0.3000,-100.0000,-0.0010,-0.3000,-100.0000,-0.0010,22.5076,53.1089,0.0200,0.0000
-16.0136,27.4478,-4.2977,0.5801,-0.0821,0.1200,0.0000,0.0000,0.0000,0.1545,-0.1216,-0.0003,996,1502,1500,1500,2008,1000,1505,1000,1000,1505,2008,1054,1014,0.2095,-0.0279,0.0280,-0.0065,-0.0015,0.9938,0.2758,-0.0326,-0.2763,0.0332,0.4430,0.3324,0.0485,0.4430,0.3324,0.0485,0.3000,0.0600,0.0002,0,-0.3000,-100.0000,-0.0010,-0.3000,-100.0000,-0.0010,22.5486,53.1462,0.0200,0.0000
-15.9856,27.4120,-4.2857,0.5801,-0.0000,0.1200,0.0000,0.0000,0.0000,0.1543,-0.1214,-0.0004,996,1502,1500,1500,2008,1000,1505,1000,1000,1505,2008,1054,1014,0.2498,-0.0128,0.0422,-0.0084,-0.0010,0.9875,0.2754,-0.0325,-0.2761,0.0333,0.4430,0.3324,0.0485,0.4430,0.3324,0.0485,0.3000,0.0600,0.0002,0,-0.3000,-100.0000,-0.0010,-0.3000,-100.0000,-0.0010,22.5896,53.1835,0.0200,0.0000
-15.9580,27.3769,-4.2737,0.5801,-0.0821,0.1200,0.0000,0.0000,0.0000,0.1542,-0.1213,-0.0003,996,1502,1500,1500,2008,1000,1505,1000,1000,1505,2008,1054,1014,0.1741,0.0527,0.0104,-0.0089,-0.0004,0.9924,0.2753,-0.0327,-0.2758,0.0332,0.4430,0.3324,0.0485,0.4430,0.3324,0.0485,0.3000,0.0600,0.0002,0,-0.3000,-100.0000,-0.0010,-0.3000,-100.0000,-0.0010,22.6307,53.2207,0.0200,0.0000
-15.9308,27.3417,-4.2628,0.5801,-0.0821,0.1200,0.0000,0.0000,0.0000,0.1541,-0.1211,-0.0004,996,1502,1500,1500,2008,1000,1505,1000,1000,1505,2008,1054,1014,0.2280,0.0166,0.0153,-0.0088,0.0009,0.9865,0.2748,-0.0326,-0.2756,0.0333,0.4430,0.3324,0.0485,0.4430,0.3324,0.0485,0.3000,0.0600,0.0002,0,-0.3000,-100.0000,-0.0010,-0.3000,-100.0000,-0.0010,22.6718,53.2580,0.0200,0.0000
-15.9035,27.3068,-4.2512,0.5801,-0.0821,0.1800,0.0000,0.0000,0.0000,0.1543,-0.1210,-0.0012,996,1502,1500,1500,2008,1000,1505,1000,1000,1505,2008,1054,1014,0.1751,0.0277,0.0082,-0.0043,-0.0002,0.9887,0.2741,-0.0321,-0.2764,0.0345,0.4430,0.3324,0.0485,0.4430,0.3324,0.0485,0.3000,0.0600,0.0002,0,-0.3000,-100.0000,-0.0010,-0.3000,-100.0000,-0.0010,22.7129,53.2952,0.0300,0.0000
-15.8769,27.2711,-4.2398,0.5801,-0.0821,0.1200,0.0000,0.0000,0.0000,0.1539,-0.1208,-0.0000,996,1502,1500,1500,2008,1000,1505,1000,1000,1505,2008,1054,1014,0.1360,-0.0447,-0.0605,-0.0064,0.0001,0.9917,0.2746,-0.0331,-0.2747,0.0332,0.4430,0.3324,0.0485,0.4430,0.3324,0.0485,0.3000,0.0600,0.0002,0,-0.3000,-100.0000,-0.0010,-0.3000,-100.0000,-0.0010,22.7539,53.3325,0.0200,0.0000
-15.8497,27.2356,-4.2286,0.5801,-0.0821,0.1200,0.0000,0.0000,0.0000,0.1537,-0.1207,-0.0003,996,1502,1500,1500,2008,1000,1505,1000,1000,1505,2008,1054,1014,0.2002,0.0204,0.0282,-0.0070,0.0007,0.9941,0.2741,-0.0328,-0.2747,0.0334,0.4430,0.3324,0.0485,0.4430,0.3324,0.0485,0.3000,0.0600,0.0002,0,-0.3000,-100.0000,-0.0010,-0.3000,-100.0000,-0.0010,22.7950,53.3697,0.0200,0.0000
-15.8218,27.1996,-4.2170,0.5801,-0.0821,0.1200,0.0000,0.0000,0.0000,0.1536,-0.1205,-0.0001,996,1502,1500,1500,2008,1000,1505,1000,1000,1505,2008,1054,1014,0.2223,-0.0906,-0.0442,-0.0092,0.0010,0.9924,0.2739,-0.0330,-0.2742,0.0333,0.4430,0.3324,0.0485,0.4430,0.3324,0.0485,0.3000,0.0600,0.0002,0,-0.3000,-100.0000,-0.0010,-0.3000,-100.0000,-0.0010,22.8361,53.4068,0.0200,0.0000
-15.7935,27.1638,-4.2056,0.5801,-0.0821,0.1200,0.0000,0.0000,0.0000,0.1535,-0.1203,-0.0003,996,1502,1500,1500,2008,1000,1505,1000,1000,1505,2008,1054,1014,0.3020,-0.0565,0.0376,-0.0080,0.0047,0.9948,0.2734,-0.0328,-0.2741,0.0335,0.4430,0.3324,0.0485,0.4430,0.3324,0.0485,0.3000,0.0600,0.0002,0,-0.3000,-100.0000,-0.0010,-0.3000,-100.0000,-0.0010,22.8772,53.4439,0.0200,0.0000
-15.7651,27.1285,-4.1942,0.5801,-0.0821,0.1200,0.0000,0.0000,0.0000,0.1533,-0.1202,-0.0004,998,1504,1501,1501,2008,1000,1505,1000,1000,1505,2008,1054,1014,0.2711,0.0346,0.0259,-0.0055,-0.0011,0.9937,0.2732,-0.0328,-0.2739,0.0335,0.4430,0.3324,0.0485,0.4430,0.3324,0.0485,0.3000,0.0600,0.0002,0,-0.3000,-100.0000,-0.0010,-0.3000,-100.0000,-0.0010,22.9184,53.4811,0.0200,0.0000
-15.7376,27.0936,-4.1825,0.5801,-0.0821,0.1800,0.0000,0.0000,0.0000,0.1535,-0.1201,-0.0012,996,1502,1500,1500,2008,1000,1505,1000,1000,1505,2008,1054,1014,0.1602,0.0632,-0.0006,-0.0032,0.0013,0.9930,0.2724,-0.0323,-0.2748,0.0346,0.4430,0.3324,0.0485,0.4430,0.3324,0.0485,0.3000,0.0600,0.0002,0,-0.3000,-100.0000,-0.0010,-0.3000,-100.0000,-0.0010,22.9596,53.5183,0.0300,0.0000
-15.7104,27.0586,-4.1713,0.5801,-0.0821,0.1200,0.0000,0.0000,0.0000,0.1531,-0.1199,-0.0001,996,1502,1500,1500,2008,1000,1505,1000,1000,1505,2008,1054,1014,0.1744,0.0702,-0.0539,-0.0038,-0.0034,0.9937,0.2730,-0.0332,-0.2731,0.0333,0.4430,0.3324,0.0485,0.4430,0.3324,0.0485,0.3000,0.0600,0.0002,0,-0.3000,-100.0000,-0.0010,-0.3000,-100.0000,-0.0010,23.0008,53.5555,0.0200,0.0000
-15.6834,27.0234,-4.1603,0.5801,-0.0821,0.1200,0.0000,0.0000,0.0000,0.1530,-0.1197,-0.0003,996,1502,1500,1500,2008,1000,1505,1000,1000,1505,2008,1054,1014,0.1911,0.0466,0.0089,-0.0075,0.0015,0.9903,0.2725,-0.0330,-0.2730,0.0335,0.4430,0.3324,0.0485,0.4430,0.3324,0.0485,0.3000,0.0600,0.0002,0,-0.3000,-100.0000,-0.0010,-0.3000,-100.0000,-0.0010,23.0420,53.5927,0.0200,0.0000
-15.6562,26.9875,-4.1491,0.5801,-0.0821,0.1200,0.0000,0.0000,0.0000,0.1529,-0.1195,-0.0002,996,1502,1500,1500,2008,1000,1505,1000,1000,1505,2008,1054,1014,0.2012,-0.0557,-0.0223,-0.0081,-0.0024,0.9900,0.2723,-0.0332,-0.2726,0.0335,0.4430,0.3324,0.0485,0.4430,0.3324,0.0485,0.3000,0.0600,0.0002,0,-0.3000,-100.0000,-0.0010,-0.3000,-100.0000,-0.0010,23.0832,53.6299,0.0200,0.0000
-15.6288,26.9507,-4.1376,0.5801,-0.0000,0.1200,0.0000,0.0000,0.0000,0.1528,-0.1194,-0.0000,996,1502,1500,1500,2008,1000,1505,1000,1000,1505,2008,1054,1014,0.2175,-0.0639,-0.0823,-0.0102,-0.0021,0.9928,0.2721,-0.0334,-0.2721,0.0334,0.4430,0.3324,0.0485,0.4430,0.3324,0.0485,0.3000,0.0600,0.0002,0,-0.3000,-100.0000,-0.0010,-0.3000,-100.0000,-0.0010,23.1244,53.6670,0.0200,0.0000
-15.6014,26.9139,-4.1264,0.5801,-0.0821,0.1200,0.0000,0.0000,0.0000,0.1526,-0.1192,-0.0001,998,1504,1501,1501,2008,1000,1505,1000,1000,1505,2008,1054,1014,0.2820,-0.0342,-0.0531,-0.0089,0.0009,0.9908,0.2717,-0.0333,-0.2719,0.0335,0.4430,0.3324,0.0485,0.4430,0.3324,0.0485,0.3000,0.0600,0.0002,0,-0.3000,-100.0000,-0.0010,-0.3000,-100.0000,-0.0010,23.1656,53.7041,0.0200,0.0000
-15.5742,26.8781,-4.1155,0.5801,-0.0821,0.1200,0.0000,0.0000,0.0000,0.1525,-0.1191,-0.0001,996,1502,1500,1500,2008,1000,1505,1000,1000,1505,2008,1054,1014,0.1716,0.0380,-0.0551,-0.0056,-0.0003,0.9858,0.2716,-0.0334,-0.2717,0.0335,0.4430,0.3324,0.0485,0.4430,0.3324,0.0485,0.3000,0.0600,0.0002,0,-0.3000,-100.0000,-0.0010,-0.3000,-100.0000,-0.0010,23.2068,53.7412,0.0200,0.0000
-15.5475,26.8430,-4.1049,0.5801,-0.0821,0.1200,0.0000,0.0000,0.0000,0.1524,-0.1190,-0.0001,996,1502,1500,1500,2008,1000,1505,1000,1000,1505,2008,1054,1014,0.1616,0.0773,-0.0276,-0.0060,0.0006,0.9937,0.2713,-0.0334,-0.2715,0.0336,0.4430,0.3324,0.0485,0.4430,0.3324,0.0485,0.3000,0.0600,0.0002,0,-0.3000,-100.0000,-0.0010,-0.3000,-100.0000,-0.0010,23.2480,53.7783,0.0200,0.0000
-15.5200,26.8079,-4.0940,0.5801,-0.0821,0.1200,0.0000,0.0000,0.0000,0.1523,-0.1188,-0.0003,996,1502,1500,1500,2008,1000,1505,1000,1000,1505,2008,1054,1014,0.2495,0.0822,0.0242,-0.0043,0.0027,0.9908,0.2707,-0.0331,-0.2714,0.0338,0.4430,0.3324,0.0485,0.4430,0.3324,0.0485,0.3000,0.0600,0.0002,0,-0.3000,-100.0000,-0.0010,-0.3000,-100.0000,-0.0010,23.2892,53.8153,0.0200,0.0000
-15.4920,26.7725,-4.0829,0.5801,-0.0821,0.1200,0.0000,0.0000,0.0000,0.1522,-0.1186,-0.0000,996,1502,1500,1500,2008,1000,1505,1000,1000,1505,2008,1054,1014,0.2180,-0.0070,-0.0755,-0.0106,0.0024,0.9904,0.2707,-0.0335,-0.2708,0.0336,0.4430,0.3324,0.0485,0.4430,0.3324,0.0485,0.3000,0.0600,0.0002,0,-0.3000,-100.0000,-0.0010,-0.3000,-100.0000,-0.0010,23.3304,53.8524,0.0200,0.0000
-15.4647,26.7365,-4.0718,0.5801,-0.0821,0.1200,0.0000,0.0000,0.0000,0.1520,-0.1184,-0.0001,996,1502,1500,1500,2008,1000,1505,1000,1000,1505,2008,1054,1014,0.2691,-0.0036,-0.0465,-0.0070,0.0007,0.9882,0.2704,-0.0335,-0.2706,0.0337,0.4430,0.3324,0.0485,0.4430,0.3324,0.0485,0.3000,0.0600,0.0002,0,-0.3000,-100.0000,-0.0010,-0.3000,-100.0000,-0.0010,23.3717,53.8895,0.0200,0.0000
-15.4375,26.7006,-4.0613,0.5801,-0.0821,0.1200,0.0000,0.0000,0.0000,0.1519,-0.1183,-0.0001,998,1504,1501,1501,2008,1000,1505,1000,1000,1505,2008,1054,1014,0.1811,-0.0027,-0.0599,-0.0059,0.0004,0.9961,0.2701,-0.0335,-0.2703,0.0338,0.4430,0.3324,0.0485,0.4430,0.3324,0.0485,0.3000,0.0600,0.0002,0,-0.3000,-100.0000,-0.0010,-0.3000,-100.0000,-0.0010,23.4129,53.9266,0.0200,0.0000
-15.4107,26.6647,-4.0506,0.5801,-0.0821,0.1200,0.0000,0.0000,0.0000,0.1518,-0.1181,-0.0001,996,1502,1500,1500,2008,1000,1505,1000,1000,1505,2008,1054,1014,0.1908,-0.0164,-0.0541,-0.0085,0.0006,0.9907,0.2698,-0.0336,-0.2700,0.0338,0.4430,0.3324,0.0485,0.4430,0.3324,0.0485,0.3000,0.0600,0.0002,0,-0.3000,-100.0000,-0.0010,-0.3000,-100.0000,-0.0010,23.4543,53.9637,0.0200,0.0000
-15.3843,26.6287,-4.0395,0.5801,-0.0821,0.1200,0.0000,0.0000,0.0000,0.1517,-0.1180,-0.0000,996,1502,1500,1500,2008,1000,1505,1000,1000,1505,2008,1054,1014,0.1330,0.0098,-0.0679,-0.0071,0.0005,0.9886,0.2697,-0.0337,-0.2697,0.0338,0.4430,0.3324,0.0485,0.4430,0.3324,0.0485,0.3000,0.0600,0.0002,0,-0.3000,-100.0000,-0.0010,-0.3000,-100.0000,-0.0010,23.4956,54.0008,0.0200,0.0000
-15.3576,26.5923,-4.0286,0.5801,-0.0821,0.1200,0.0000,0.0000,0.0000,0.1516,-0.1178,-0.0003,996,1502,1500,1500,2008,1000,1505,1000,1000,1505,2008,1054,1014,0.1193,0.0168,-0.0020,-0.0064,0.0019,0.9915,0.2692,-0.0335,-0.2697,0.0341,0.4430,0.3324,0.0485,0.4430,0.3324,0.0485,0.3000,0.0600,0.0002,0,-0.3000,-100.0000,-0.0010,-0.3000,-100.0000,-0.0010,23.5369,54.0379,0.0200,0.0000
-15.3313,26.5569,-4.0181,0.5801,-0.0821,0.1200,0.0000,0.0000,0.0000,0.1515,-0.1177,0.0001,996,1502,1500,1500,2008,1000,1505,1000,1000,1505,2008,1054,1014,0.1430,0.0576,-0.1140,-0.0089,-0.0012,0.9910,0.2692,-0.0339,-0.2691,0.0337,0.4430,0.3324,0.0485,0.4430,0.3324,0.0485,0.3000,0.0600,0.0002,0,-0.3000,-100.0000,-0.0010,-0.3000,-100.0000,-0.0010,23.5782,54.0750,0.0200,0.0000
-15.3047,26.5210,-4.0076,0.5801,-0.0000,0.1200,0.0000,0.0000,0.0000,0.1513,-0.1175,0.0000,996,1502,1500,1500,2008,1000,1505,1000,1000,1505,2008,1054,1014,0.2358,0.0571,-0.0931,-0.0052,0.0018,0.9891,0.2689,-0.0338,-0.2688,0.0338,0.4430,0.3324,0.0485,0.4430,0.3324,0.0485,0.3000,0.0600,0.0002,0,-0.3000,-100.0000,-0.0010,-0.3000,-100.0000,-0.0010,23.6196,54.1121,0.0200,0.0000
-15.2770,26.4851,-3.9970,0.5801,-0.0821,0.1200,0.0000,0.0000,0.0000,0.1512,-0.1173,-0.0002,998,1504,1501,1501,2008,1000,1505,1000,1000,1505,2008,1054,1014,0.2970,-0.0126,-0.0320,-0.0069,0.0017,0.9960,0.2683,-0.0337,-0.2686,0.0340,0.4430,0.3324,0.0485,0.4430,0.3324,0.0485,0.3000,0.0600,0.0002,0,-0.3000,-100.0000,-0.0010,-0.3000,-100.0000,-0.0010,23.6610,54.1491,0.0200,0.0000
-15.2497,26.4490,-3.9863,0.5801,-0.0821,0.1200,0.0000,0.0000,0.0000,0.1511,-0.1172,0.0000,996,1502,1500,1500,2008,1000,1505,1000,1000,1505,2008,1054,1014,0.2103,0.0002,-0.0880,-0.0077,0.0006,0.9909,0.2683,-0.0339,-0.2682,0.0339,0.4430,0.3324,0.0485,0.4430,0.3324,0.0485,0.3000,0.0600,0.0002,0,-0.3000,-100.0000,-0.0010,-0.3000,-100.0000,-0.0010,23.7024,54.1862,0.0200,0.0000
-15.2224,26.4123,-3.9758,0.5801,-0.0821,0.1200,0.0000,0.0000,0.0000,0.1509,-0.1170,-0.0002,996,1502,1500,1500,2008,1000,1505,1000,1000,1505,2008,1054,1014,0.2745,-0.0465,-0.0170,-0.0081,0.0027,0.9868,0.2677,-0.0337,-0.2681,0.0342,0.4430,0.3324,0.0485,0.4430,0.3324,0.0485,0.3000,0.0600,0.0002,0,-0.3000,-100.0000,-0.0010,-0.3000,-100.0000,-0.0010,23.7438,54.2233,0.0200,0.0000
-15.1948,26.3761,-3.9648,0.5801,-0.0821,0.1200,0.0000,0.0000,0.0000,0.1508,-0.1168,-0.0000,996,1502,1500,1500,2008,1000,1505,1000,1000,1505,2008,1054,1014,0.2845,-0.0448,-0.0650,-0.0078,0.0004,0.9902,0.2676,-0.0339,-0.2677,0.0340,0.4430,0.3324,0.0485,0.4430,0.3324,0.0485,0.3000,0.0600,0.0002,0,-0.3000,-100.0000,-0.0010,-0.3000,-100.0000,-0.0010,23.7852,54.2603,0.0200,0.0000
-15.1669,26.3397,-3.9543,0.5801,-0.1642,0.1200,0.0000,0.0000,0.0000,0.1507,-0.1167,0.0000,996,1502,1500,1500,2008,1000,1505,1000,1000,1505,2008,1054,1014,0.2271,-0.0107,-0.0758,-0.0055,0.0017,0.9910,0.2674,-0.0340,-0.2674,0.0340,0.4430,0.3324,0.0485,0.4430,0.3324,0.0485,0.3000,0.0600,0.0002,0,-0.3000,-100.0000,-0.0010,-0.3000,-100.0000,-0.0010,23.8266,54.2974,0.0200,0.0000
-15.1399,26.3035,-3.9441,0.5801,-0.0821,0.1200,0.0000,0.0000,0.0000,0.1506,-0.1165,0.0000,996,1502,1500,1500,2008,1000,1505,1000,1000,1505,2008,1054,1014,0.1716,0.0358,-0.0793,-0.0051,-0.0019,0.9940,0.2672,-0.0341,-0.2671,0.0340,0.4430,0.3324,0.0485,0.4430,0.3324,0.0485,0.3000,0.0600,0.0002,0,-0.3000,-100.0000,-0.0010,-0.3000,-100.0000,-0.0010,23.8680,54.3343,0.0200,0.0000
-15.1129,26.2676,-3.9333,0.5801,-0.0821,0.1200,0.0000,0.0000,0.0000,0.1505,-0.1164,-0.0001,998,1504,1501,1501,2008,1000,1505,1000,1000,1505,2008,1054,1014,0.2558,0.0100,-0.0216,-0.0071,0.0003,0.9894,0.2667,-0.0340,-0.2670,0.0342,0.4430,0.3324,0.0485,0.4430,0.3324,0.0485,0.3000,0.0600,0.0002,0,-0.3000,-100.0000,-0.0010,-0.3000,-100.0000,-0.0010,23.9094,54.3713,0.0200,0.0000
