roll_imu,pitch_imu,yaw_imu,alpha,beta,roll_des,pitch_des,yaw_des,throttle_des,roll_pid,pitch_pid,yaw_pid,radio_ch1,radio_ch2,radio_ch3,radio_ch4,radio_ch5,radio_ch6,radio_ch7,radio_ch8,radio_ch9,radio_ch10,radio_ch11,radio_ch12,radio_ch13,GyroX,GyroY,GyroZ,AccX,AccY,AccZ,s1_command,s2_command,s3_command,s4_command,kp_roll,ki_roll,kd_roll,kp_pitch,ki_pitch,kd_pitch,kp_yaw,ki_yaw,kd_yaw,failsafeTriggered,kp_alphaRoll,ki_alphaRoll,kd_alphaRoll,kp_betaPitch,ki_betaPitch,kd_betaPitch,ripIMU_roll,ripIMU_pitch,ripRoll_des,ripPitch_des
0.0000,0.0000,0.0000,1.4088,5.8687,0.0000,0.0000,0.0000,0.0000,0.0000,0.0000,0.0000,1000,1500,1500,1500,2000,1000,1000,1000,1500,1500,1500,1500,1500,0.0000,0.0000,0.0000,0.0000,0.0000,0.0000,0.0000,0.0000,0.0000,0.0000,0.8627,0.2400,0.1321,0.8627,0.2400,0.1321,0.3000,0.0600,0.0002,0,-0.3000,-100.0000,-0.0010,-0.3000,-100.0000,-0.0010,0.0000,0.0000,0.0000,0.0000
-8.4937,48.9914,-3.6228,-0.0000,0.0821,-7.8600,-8.0400,-42.8800,0.0000,0.0655,-0.4920,-0.2576,910,1369,1366,1366,1000,1000,1505,1000,1000,1616,1005,1000,1014,-0.0005,-0.0083,0.0441,-0.0071,-0.0009,0.3670,0.2999,0.6841,-0.8151,-0.1689,0.8627,0.2400,0.1321,0.8627,0.2400,0.1321,0.3000,0.0600,0.0002,0,-2.5632,-3.5000,-0.0010,-2.5632,-3.5000,-0.0010,49.0653,-8.9054,-1.3100,-1.3400
-8.3565,48.5570,-3.5133,-0.0829,0.0000,-2.3400,-2.3400,-12.4800,0.0000,0.1119,-0.4391,-0.0412,971,1461,1461,1461,1000,1000,1505,1000,1000,1586,1005,1000,1014,-0.0339,-0.0146,0.1364,-0.0208,-0.0020,0.9793,0.5099,0.3683,-0.5922,-0.2860,0.8627,0.2400,0.1321,0.8627,0.2400,0.1321,0.3000,0.0600,0.0002,0,-2.4822,-3.5000,-0.0010,-2.4822,-3.5000,-0.0010,48.6261,-8.8326,-0.3900,-0.3900
-8.3459,48.5213,-3.5041,-0.0829,0.0000,-0.6000,-0.7800,-4.1600,0.0000,0.1270,-0.4252,-0.0162,991,1490,1487,1487,1000,1000,1505,1000,1000,1586,1005,1000,1014,-0.1197,-0.0979,0.1035,-0.0183,-0.0043,1.0061,0.5360,0.3144,-0.5683,-0.2821,0.8627,0.2400,0.1321,0.8627,0.2400,0.1321,0.3000,0.0600,0.0002,0,-2.4822,-3.5000,-0.0010,-2.4822,-3.5000,-0.0010,48.5916,-8.8254,-0.1000,-0.1300
-8.3355,48.4861,-3.4949,-0.0829,0.0821,0.0000,-0.1800,-1.6000,0.0000,0.1320,-0.4198,-0.0087,996,1500,1497,1495,1000,1000,1505,1000,1000,1586,1005,1000,1014,-0.0590,-0.0350,0.1686,-0.0223,-0.0033,1.0069,0.5431,0.2965,-0.5605,-0.2791,0.8627,0.2400,0.1321,0.8627,0.2400,0.1321,0.3000,0.0600,0.0002,0,-2.4822,-3.5000,-0.0010,-2.4822,-3.5000,-0.0010,48.5574,-8.8180,0.0000,-0.0300
-8.3244,48.4505,-3.4850,-0.0000,0.0821,0.1800,0.0000,0.0000,0.0000,0.1335,-0.4179,-0.0038,996,1502,1500,1500,1000,1000,1505,1000,1000,1586,1005,1000,1014,-0.0805,-0.0581,0.1171,-0.0179,-0.0039,1.0097,0.5476,0.2882,-0.5551,-0.2807,0.8627,0.2400,0.1321,0.8627,0.2400,0.1321,0.3000,0.0600,0.0002,0,-2.4822,-3.5000,-0.0010,-2.4822,-3.5000,-0.0010,48.5234,-8.8106,0.0300,0.0000
-8.3136,48.4148,-3.4752,-0.0000,0.1642,0.1200,0.0000,0.0000,0.0000,0.1329,-0.4176,-0.0037,996,1502,1500,1500,1000,1000,1505,1000,1000,1586,1005,1000,1014,-0.0900,-0.0240,0.1096,-0.0219,-0.0009,1.0066,0.5468,0.2885,-0.5542,-0.2811,0.8627,0.2400,0.1321,0.8627,0.2400,0.1321,0.3000,0.0600,0.0002,0,-2.4822,-3.5000,-0.0010,-2.4822,-3.5000,-0.0010,48.4896,-8.8034,0.0200,0.0000
-8.3029,48.3796,-3.4655,-0.0000,0.0821,0.1200,0.0000,0.0000,0.0000,0.1328,-0.4173,-0.0037,996,1502,1500,1500,1000,1000,1505,1000,1000,1586,1005,1000,1014,-0.1158,-0.0817,0.1111,-0.0221,0.0011,1.0102,0.5463,0.2882,-0.5538,-0.2807,0.8627,0.2400,0.1321,0.8627,0.2400,0.1321,0.3000,0.0600,0.0002,0,-2.4822,-3.5000,-0.0010,-2.4822,-3.5000,-0.0010,48.4550,-8.7960,0.0200,0.0000
-8.2921,48.3441,-3.4559,-0.0829,0.0821,0.1200,0.0000,0.0000,0.0000,0.1327,-0.4170,-0.0037,996,1502,1500,1500,1000,1000,1505,1000,1000,1586,1005,1000,1014,-0.1259,-0.0489,0.1168,-0.0249,-0.0017,1.0055,0.5460,0.2880,-0.5535,-0.2805,0.8627,0.2400,0.1321,0.8627,0.2400,0.1321,0.3000,0.0600,0.0002,0,-2.4822,-3.5000,-0.0010,-2.4822,-3.5000,-0.0010,48.4205,-8.7884,0.0200,0.0000
-8.2816,48.3086,-3.4466,-0.0829,0.0000,0.1200,0.0000,0.0000,0.0000,0.1326,-0.4167,-0.0037,996,1502,1500,1500,1000,1000,1505,1000,1000,1586,1005,1000,1014,-0.0626,-0.0496,0.1189,-0.0238,-0.0024,1.0093,0.5455,0.2879,-0.5530,-0.2804,0.8627,0.2400,0.1321,0.8627,0.2400,0.1321,0.3000,0.0600,0.0002,0,-2.4822,-3.5000,-0.0010,-2.4822,-3.5000,-0.0010,48.3862,-8.7811,0.0200,0.0000
-8.2705,48.2731,-3.4371,-0.0829,0.0821,0.1200,0.0000,0.0000,0.0000,0.1325,-0.4164,-0.0037,996,1502,1500,1500,1000,1000,1505,1000,1000,1586,1005,1000,1014,-0.0511,-0.0610,0.0759,-0.0229,-0.0026,1.0040,0.5452,0.2876,-0.5525,-0.2803,0.8627,0.2400,0.1321,0.8627,0.2400,0.1321,0.3000,0.0600,0.0002,0,-2.4822,-3.5000,-0.0010,-2.4822,-3.5000,-0.0010,48.3515,-8.7739,0.0200,0.0000
-8.2592,48.2376,-3.4270,-0.0829,0.0821,0.1800,0.0000,0.0000,0.0000,0.1329,-0.4159,-0.0047,996,1502,1500,1500,1000,1000,1505,1000,1000,1586,1005,1000,1014,-0.0852,-0.1664,0.1279,-0.0237,-0.0024,1.0088,0.5441,0.2877,-0.5535,-0.2783,0.8627,0.2400,0.1321,0.8627,0.2400,0.1321,0.3000,0.0600,0.0002,0,-2.4822,-3.5000,-0.0010,-2.4822,-3.5000,-0.0010,48.3173,-8.7668,0.0300,0.0000
-8.2482,48.2014,-3.4173,-0.0000,0.0000,0.1200,0.0000,0.0000,0.0000,0.1323,-0.4157,-0.0036,996,1502,1500,1500,1000,1000,1505,1000,1000,1586,1005,1000,1014,-0.0471,-0.1055,0.0799,-0.0233,-0.0036,1.0043,0.5443,0.2871,-0.5516,-0.2798,0.8627,0.2400,0.1321,0.8627,0.2400,0.1321,0.3000,0.0600,0.0002,0,-2.4822,-3.5000,-0.0010,-2.4822,-3.5000,-0.0010,48.2838,-8.7600,0.0200,0.0000
-8.2375,48.1653,-3.4080,-0.0000,0.0821,0.1200,0.0000,0.0000,0.0000,0.1323,-0.4154,-0.0036,996,1502,1500,1500,1000,1000,1505,1000,1000,1586,1005,1000,1014,-0.1186,-0.0984,0.0590,-0.0251,-0.0012,1.0015,0.5440,0.2867,-0.5513,-0.2795,0.8627,0.2400,0.1321,0.8627,0.2400,0.1321,0.3000,0.0600,0.0002,0,-2.4822,-3.5000,-0.0010,-2.4822,-3.5000,-0.0010,48.2495,-8.7525,0.0200,0.0000
-8.2264,48.1294,-3.3979,-0.1657,-0.1642,0.1200,0.0000,0.0000,0.0000,0.1321,-0.4150,-0.0039,996,1502,1500,1500,1000,1000,1505,1000,1000,1586,1005,1000,1014,-0.0783,-0.1490,0.1603,-0.0219,-0.0017,1.0064,0.5432,0.2868,-0.5510,-0.2790,0.8627,0.2400,0.1321,0.8627,0.2400,0.1321,0.3000,0.0600,0.0002,0,-2.4822,-3.5000,-0.0010,-2.4822,-3.5000,-0.0010,48.2151,-8.7449,0.0200,0.0000
-8.2149,48.0932,-3.3883,-0.0829,0.0821,0.1200,0.0000,0.0000,0.0000,0.1319,-0.4148,-0.0036,996,1502,1500,1500,1000,1000,1505,1000,1000,1586,1005,1000,1014,-0.0248,-0.0482,0.0615,-0.0199,-0.0027,1.0070,0.5432,0.2865,-0.5504,-0.2793,0.8627,0.2400,0.1321,0.8627,0.2400,0.1321,0.3000,0.0600,0.0002,0,-2.4822,-3.5000,-0.0010,-2.4822,-3.5000,-0.0010,48.1806,-8.7375,0.0200,0.0000
-8.2037,48.0574,-3.3787,-0.1657,-0.1642,0.1200,0.0000,0.0000,0.0000,0.1319,-0.4145,-0.0038,996,1502,1500,1500,1000,1000,1505,1000,1000,1586,1005,1000,1014,-0.0633,-0.0359,0.1331,-0.0241,-0.0012,1.0101,0.5427,0.2864,-0.5502,-0.2789,0.8627,0.2400,0.1321,0.8627,0.2400,0.1321,0.3000,0.0600,0.0002,0,-2.4822,-3.5000,-0.0010,-2.4822,-3.5000,-0.0010,48.1464,-8.7300,0.0200,0.0000
-8.1930,48.0222,-3.3692,-0.0829,0.0000,0.1800,0.0000,0.0000,0.0000,0.1324,-0.4142,-0.0037,996,1502,1500,1500,1000,1000,1505,1000,1000,1586,1005,1000,1014,-0.1097,-0.0679,0.1002,-0.0231,-0.0004,1.0040,0.5429,0.2855,-0.5503,-0.2781,0.8627,0.2400,0.1321,0.8627,0.2400,0.1321,0.3000,0.0600,0.0002,0,-2.4822,-3.5000,-0.0010,-2.4822,-3.5000,-0.0010,48.1123,-8.7230,0.0300,0.0000
-8.1825,47.9868,-3.3600,-0.0000,0.0821,0.1200,0.0000,0.0000,0.0000,0.1317,-0.4140,-0.0036,996,1502,1500,1500,1000,1000,1505,1000,1000,1586,1005,1000,1014,-0.0659,-0.0020,0.0707,-0.0232,-0.0035,1.0031,0.5421,0.2859,-0.5493,-0.2787,0.8627,0.2400,0.1321,0.8627,0.2400,0.1321,0.3000,0.0600,0.0002,0,-2.4822,-3.5000,-0.0010,-2.4822,-3.5000,-0.0010,48.0778,-8.7159,0.0200,0.0000
-8.1724,47.9509,-3.3513,-0.0000,0.0821,0.1200,0.0000,0.0000,0.0000,0.1316,-0.4135,-0.0036,996,1502,1500,1500,1000,1000,1505,1000,1000,1586,1005,1000,1014,-0.0784,-0.1434,0.0544,-0.0211,-0.0042,1.0071,0.5416,0.2854,-0.5487,-0.2783,0.8627,0.2400,0.1321,0.8627,0.2400,0.1321,0.3000,0.0600,0.0002,0,-2.4822,-3.5000,-0.0010,-2.4822,-3.5000,-0.0010,48.0433,-8.7085,0.0200,0.0000
-8.1616,47.9145,-3.3423,-0.0829,0.0000,0.1200,0.0000,0.0000,0.0000,0.1315,-0.4132,-0.0037,996,1502,1500,1500,1000,1000,1505,1000,1000,1586,1005,1000,1014,-0.0551,-0.1353,0.0936,-0.0235,-0.0027,1.0032,0.5410,0.2854,-0.5484,-0.2779,0.8627,0.2400,0.1321,0.8627,0.2400,0.1321,0.3000,0.0600,0.0002,0,-2.4822,-3.5000,-0.0010,-2.4822,-3.5000,-0.0010,48.0088,-8.7010,0.0200,0.0000
-8.1506,47.8787,-3.3325,-0.0829,0.0821,0.1200,0.0000,0.0000,0.0000,0.1314,-0.4129,-0.0038,996,1502,1500,1500,1000,1000,1505,1000,1000,1586,1005,1000,1014,-0.0392,-0.1231,0.1440,-0.0222,-0.0018,1.0056,0.5405,0.2853,-0.5481,-0.2777,0.8627,0.2400,0.1321,0.8627,0.2400,0.1321,0.3000,0.0600,0.0002,0,-2.4822,-3.5000,-0.0010,-2.4822,-3.5000,-0.0010,47.9750,-8.6933,0.0200,0.0000
-8.1400,47.8428,-3.3231,-0.0000,0.0000,0.1200,0.0000,0.0000,0.0000,0.1314,-0.4127,-0.0037,996,1502,1500,1500,1000,1000,1505,1000,1000,1586,1005,1000,1014,-0.1095,-0.0331,0.0964,-0.0189,-0.0039,1.0077,0.5404,0.2850,-0.5478,-0.2776,0.8627,0.2400,0.1321,0.8627,0.2400,0.1321,0.3000,0.0600,0.0002,0,-2.4822,-3.5000,-0.0010,-2.4822,-3.5000,-0.0010,47.9414,-8.6860,0.0200,0.0000
-8.1299,47.8071,-3.3140,-0.0000,0.0821,0.1800,0.0000,0.0000,0.0000,0.1318,-0.4123,-0.0047,996,1502,1500,1500,1000,1000,1505,1000,1000,1586,1005,1000,1014,-0.1010,-0.0725,0.0988,-0.0219,-0.0025,1.0040,0.5395,0.2852,-0.5488,-0.2758,0.8627,0.2400,0.1321,0.8627,0.2400,0.1321,0.3000,0.0600,0.0002,0,-2.4822,-3.5000,-0.0010,-2.4822,-3.5000,-0.0010,47.9070,-8.6786,0.0300,0.0000
-8.1197,47.7715,-3.3053,0.0829,0.0821,0.1200,0.0000,0.0000,0.0000,0.1312,-0.4121,-0.0036,996,1502,1500,1500,1000,1000,1505,1000,1000,1586,1005,1000,1014,-0.0617,-0.0191,0.0560,-0.0220,-0.0019,1.0033,0.5397,0.2845,-0.5468,-0.2774,0.8627,0.2400,0.1321,0.8627,0.2400,0.1321,0.3000,0.0600,0.0002,0,-2.4822,-3.5000,-0.0010,-2.4822,-3.5000,-0.0010,47.8730,-8.6717,0.0200,0.0000
-8.1096,47.7358,-3.2966,-0.0000,0.0821,0.1200,0.0000,0.0000,0.0000,0.1312,-0.4117,-0.0036,996,1502,1500,1500,1000,1000,1505,1000,1000,1586,1005,1000,1014,-0.1498,-0.0781,0.0558,-0.0200,-0.0008,1.0062,0.5393,0.2841,-0.5465,-0.2770,0.8627,0.2400,0.1321,0.8627,0.2400,0.1321,0.3000,0.0600,0.0002,0,-2.4822,-3.5000,-0.0010,-2.4822,-3.5000,-0.0010,47.8385,-8.6644,0.0200,0.0000
-8.0992,47.7004,-3.2872,-0.0829,0.0821,0.1200,0.0000,0.0000,0.0000,0.1310,-0.4114,-0.0039,996,1502,1500,1500,1000,1000,1505,1000,1000,1586,1005,1000,1014,-0.0833,-0.0710,0.1477,-0.0191,-0.0031,1.0127,0.5386,0.2843,-0.5463,-0.2765,0.8627,0.2400,0.1321,0.8627,0.2400,0.1321,0.3000,0.0600,0.0002,0,-2.4822,-3.5000,-0.0010,-2.4822,-3.5000,-0.0010,47.8034,-8.6567,0.0200,0.0000
-8.0878,47.6643,-3.2772,-0.0000,0.0000,0.1200,0.0000,0.0000,0.0000,0.1309,-0.4111,-0.0040,996,1502,1500,1500,1000,1000,1505,1000,1000,1586,1005,1000,1014,-0.0750,-0.0755,0.1904,-0.0190,-0.0029,1.0042,0.5380,0.2842,-0.5460,-0.2762,0.8627,0.2400,0.1321,0.8627,0.2400,0.1321,0.3000,0.0600,0.0002,0,-2.4822,-3.5000,-0.0010,-2.4822,-3.5000,-0.0010,47.7686,-8.6493,0.0200,0.0000
-8.0771,47.6285,-3.2678,-0.0829,0.0821,0.1200,0.0000,0.0000,0.0000,0.1308,-0.4107,-0.0038,996,1502,1500,1500,1000,1000,1505,1000,1000,1586,1005,1000,1014,-0.0457,-0.1154,0.1398,-0.0208,-0.0032,1.0075,0.5377,0.2838,-0.5454,-0.2761,0.8627,0.2400,0.1321,0.8627,0.2400,0.1321,0.3000,0.0600,0.0002,0,-2.4822,-3.5000,-0.0010,-2.4822,-3.5000,-0.0010,47.7348,-8.6422,0.0200,0.0000
-8.0661,47.5926,-3.2582,-0.0000,0.0821,0.1800,0.0000,0.0000,0.0000,0.1313,-0.4105,-0.0047,996,1502,1500,1500,1000,1000,1505,1000,1000,1586,1005,1000,1014,-0.0854,-0.0765,0.1117,-0.0222,-0.0017,1.0051,0.5370,0.2839,-0.5464,-0.2745,0.8627,0.2400,0.1321,0.8627,0.2400,0.1321,0.3000,0.0600,0.0002,0,-2.4822,-3.5000,-0.0010,-2.4822,-3.5000,-0.0010,47.7002,-8.6349,0.0300,0.0000
-8.0555,47.5564,-3.2492,-0.0829,0.0821,0.1200,0.0000,0.0000,0.0000,0.1306,-0.4101,-0.0036,996,1502,1500,1500,1000,1000,1505,1000,1000,1586,1005,1000,1014,-0.0288,-0.0966,0.0697,-0.0230,-0.0015,1.0073,0.5371,0.2832,-0.5443,-0.2759,0.8627,0.2400,0.1321,0.8627,0.2400,0.1321,0.3000,0.0600,0.0002,0,-2.4822,-3.5000,-0.0010,-2.4822,-3.5000,-0.0010,47.6659,-8.6270,0.0200,0.0000
-8.0447,47.5203,-3.2404,-0.0829,0.0821,0.1200,0.0000,0.0000,0.0000,0.1305,-0.4099,-0.0036,996,1502,1500,1500,1000,1000,1505,1000,1000,1586,1005,1000,1014,-0.0856,-0.0697,0.0725,-0.0218,-0.0017,1.0082,0.5368,0.2829,-0.5440,-0.2757,0.8627,0.2400,0.1321,0.8627,0.2400,0.1321,0.3000,0.0600,0.0002,0,-2.4822,-3.5000,-0.0010,-2.4822,-3.5000,-0.0010,47.6316,-8.6200,0.0200,0.0000
-8.0347,47.4846,-3.2318,-0.0000,0.0821,0.1200,0.0000,0.0000,0.0000,0.1304,-0.4096,-0.0036,996,1502,1500,1500,1000,1000,1505,1000,1000,1586,1005,1000,1014,-0.0679,-0.0351,0.0554,-0.0217,-0.0009,1.0044,0.5365,0.2827,-0.5436,-0.2756,0.8627,0.2400,0.1321,0.8627,0.2400,0.1321,0.3000,0.0600,0.0002,0,-2.4822,-3.5000,-0.0010,-2.4822,-3.5000,-0.0010,47.5974,-8.6126,0.0200,0.0000
-8.0242,47.4485,-3.2233,-0.0829,0.0000,0.1200,0.0000,0.0000,0.0000,0.1303,-0.4092,-0.0036,996,1502,1500,1500,1000,1000,1505,1000,1000,1586,1005,1000,1014,-0.0643,-0.0687,0.0394,-0.0191,-0.0040,1.0058,0.5360,0.2825,-0.5431,-0.2753,0.8627,0.2400,0.1321,0.8627,0.2400,0.1321,0.3000,0.0600,0.0002,0,-2.4822,-3.5000,-0.0010,-2.4822,-3.5000,-0.0010,47.5634,-8.6049,0.0200,0.0000
-8.0142,47.4120,-3.2147,-0.0829,0.0821,0.1200,0.0000,0.0000,0.0000,0.1303,-0.4089,-0.0036,996,1502,1500,1500,1000,1000,1505,1000,1000,1586,1005,1000,1014,-0.0671,-0.1090,0.0586,-0.0214,-0.0016,1.0066,0.5355,0.2822,-0.5428,-0.2750,0.8627,0.2400,0.1321,0.8627,0.2400,0.1321,0.3000,0.0600,0.0002,0,-2.4822,-3.5000,-0.0010,-2.4822,-3.5000,-0.0010,47.5293,-8.5981,0.0200,0.0000
-8.0040,47.3761,-3.2059,-0.0000,-0.1642,0.1800,0.0000,0.0000,0.0000,0.1307,-0.4087,-0.0046,996,1502,1500,1500,1000,1000,1505,1000,1000,1586,1005,1000,1014,-0.0532,-0.0409,0.0671,-0.0247,-0.0014,1.0035,0.5348,0.2825,-0.5439,-0.2734,0.8627,0.2400,0.1321,0.8627,0.2400,0.1321,0.3000,0.0600,0.0002,0,-2.4822,-3.5000,-0.0010,-2.4822,-3.5000,-0.0010,47.4949,-8.5908,0.0300,0.0000
-7.9937,47.3392,-3.1971,-0.0000,0.0821,0.1200,0.0000,0.0000,0.0000,0.1301,-0.4082,-0.0037,996,1502,1500,1500,1000,1000,1505,1000,1000,1586,1005,1000,1014,-0.0908,-0.1676,0.0750,-0.0228,0.0006,1.0031,0.5346,0.2817,-0.5420,-0.2744,0.8627,0.2400,0.1321,0.8627,0.2400,0.1321,0.3000,0.0600,0.0002,0,-2.4822,-3.5000,-0.0010,-2.4822,-3.5000,-0.0010,47.4606,-8.5831,0.0200,0.0000
-7.9831,47.3021,-3.1882,-0.1657,-0.1642,0.1200,0.0000,0.0000,0.0000,0.1300,-0.4078,-0.0037,996,1502,1500,1500,1000,1000,1505,1000,1000,1586,1005,1000,1014,-0.0605,-0.1848,0.0831,-0.0197,-0.0013,1.0128,0.5341,0.2815,-0.5415,-0.2742,0.8627,0.2400,0.1321,0.8627,0.2400,0.1321,0.3000,0.0600,0.0002,0,-2.4822,-3.5000,-0.0010,-2.4822,-3.5000,-0.0010,47.4268,-8.5751,0.0200,0.0000
-7.9727,47.2655,-3.1788,-0.0829,0.0000,0.1200,0.0000,0.0000,0.0000,0.1300,-0.4076,-0.0039,996,1502,1500,1500,1000,1000,1505,1000,1000,1586,1005,1000,1014,-0.1029,-0.0998,0.1605,-0.0230,-0.0037,1.0078,0.5337,0.2816,-0.5415,-0.2738,0.8627,0.2400,0.1321,0.8627,0.2400,0.1321,0.3000,0.0600,0.0002,0,-2.4822,-3.5000,-0.0010,-2.4822,-3.5000,-0.0010,47.3924,-8.5677,0.0200,0.0000
-7.9620,47.2294,-3.1696,-0.0000,0.0000,0.1200,0.0000,0.0000,0.0000,0.1297,-0.4073,-0.0039,996,1502,1500,1500,1000,1000,1505,1000,1000,1586,1005,1000,1014,-0.0119,-0.1123,0.1361,-0.0214,-0.0012,1.0085,0.5332,0.2814,-0.5409,-0.2737,0.8627,0.2400,0.1321,0.8627,0.2400,0.1321,0.3000,0.0600,0.0002,0,-2.4822,-3.5000,-0.0010,-2.4822,-3.5000,-0.0010,47.3587,-8.5594,0.0200,0.0000
-7.9512,47.1935,-3.1605,-0.0000,0.0821,0.1200,0.0000,0.0000,0.0000,0.1297,-0.4070,-0.0037,996,1502,1500,1500,1000,1000,1505,1000,1000,1586,1005,1000,1014,-0.0407,-0.0752,0.0740,-0.0269,-0.0001,1.0037,0.5331,0.2810,-0.5404,-0.2737,0.8627,0.2400,0.1321,0.8627,0.2400,0.1321,0.3000,0.0600,0.0002,0,-2.4822,-3.5000,-0.0010,-2.4822,-3.5000,-0.0010,47.3250,-8.5517,0.0200,0.0000
-7.9409,47.1573,-3.1518,-0.0829,0.0821,0.1800,0.0000,0.0000,0.0000,0.1301,-0.4067,-0.0046,996,1502,1500,1500,1000,1000,1505,1000,1000,1586,1005,1000,1014,-0.0654,-0.0953,0.0831,-0.0222,-0.0010,1.0072,0.5322,0.2812,-0.5414,-0.2720,0.8627,0.2400,0.1321,0.8627,0.2400,0.1321,0.3000,0.0600,0.0002,0,-2.4822,-3.5000,-0.0010,-2.4822,-3.5000,-0.0010,47.2910,-8.5445,0.0300,0.0000
-7.9307,47.1212,-3.1429,-0.0000,0.0000,0.1200,0.0000,0.0000,0.0000,0.1296,-0.4065,-0.0036,996,1502,1500,1500,1000,1000,1505,1000,1000,1586,1005,1000,1014,-0.1304,-0.0285,0.0496,-0.0194,-0.0046,1.0058,0.5325,0.2804,-0.5397,-0.2733,0.8627,0.2400,0.1321,0.8627,0.2400,0.1321,0.3000,0.0600,0.0002,0,-2.4822,-3.5000,-0.0010,-2.4822,-3.5000,-0.0010,47.2570,-8.5374,0.0200,0.0000
-7.9217,47.0850,-3.1349,-0.0829,0.0821,0.1200,0.0000,0.0000,0.0000,0.1295,-0.4061,-0.0037,996,1502,1500,1500,1000,1000,1505,1000,1000,1586,1005,1000,1014,-0.0851,-0.0541,0.0699,-0.0221,-0.0015,1.0062,0.5319,0.2804,-0.5393,-0.2729,0.8627,0.2400,0.1321,0.8627,0.2400,0.1321,0.3000,0.0600,0.0002,0,-2.4822,-3.5000,-0.0010,-2.4822,-3.5000,-0.0010,47.2228,-8.5298,0.0200,0.0000
-7.9115,47.0488,-3.1258,-0.0000,0.0000,0.1200,0.0000,0.0000,0.0000,0.1294,-0.4058,-0.0038,996,1502,1500,1500,1000,1000,1505,1000,1000,1586,1005,1000,1014,-0.0887,-0.0663,0.1330,-0.0223,-0.0027,1.0047,0.5314,0.2802,-0.5390,-0.2726,0.8627,0.2400,0.1321,0.8627,0.2400,0.1321,0.3000,0.0600,0.0002,0,-2.4822,-3.5000,-0.0010,-2.4822,-3.5000,-0.0010,47.1883,-8.5219,0.0200,0.0000
-7.9006,47.0127,-3.1162,-0.0829,0.0821,0.1200,0.0000,0.0000,0.0000,0.1293,-0.4055,-0.0039,996,1502,1500,1500,1000,1000,1505,1000,1000,1586,1005,1000,1014,-0.0614,-0.0835,0.1339,-0.0228,-0.0007,1.0063,0.5309,0.2800,-0.5386,-0.2723,0.8627,0.2400,0.1321,0.8627,0.2400,0.1321,0.3000,0.0600,0.0002,0,-2.4822,-3.5000,-0.0010,-2.4822,-3.5000,-0.0010,47.1537,-8.5141,0.0200,0.0000
-7.8894,46.9767,-3.1064,-0.0829,0.0821,0.1200,0.0000,0.0000,0.0000,0.1292,-0.4052,-0.0040,996,1502,1500,1500,1000,1000,1505,1000,1000,1586,1005,1000,1014,-0.0651,-0.0356,0.1709,-0.0255,-0.0010,1.0048,0.5304,0.2800,-0.5384,-0.2721,0.8627,0.2400,0.1321,0.8627,0.2400,0.1321,0.3000,0.0600,0.0002,0,-2.4822,-3.5000,-0.0010,-2.4822,-3.5000,-0.0010,47.1195,-8.5068,0.0200,0.0000
-7.8792,46.9405,-3.0977,-0.0000,0.0000,0.1800,0.0000,0.0000,0.0000,0.1297,-0.4049,-0.0046,996,1502,1500,1500,1000,1000,1505,1000,1000,1586,1005,1000,1014,-0.0971,-0.0782,0.0629,-0.0203,-0.0044,1.0065,0.5299,0.2798,-0.5391,-0.2706,0.8627,0.2400,0.1321,0.8627,0.2400,0.1321,0.3000,0.0600,0.0002,0,-2.4822,-3.5000,-0.0010,-2.4822,-3.5000,-0.0010,47.0847,-8.4992,0.0300,0.0000
-7.8692,46.9042,-3.0886,-0.0829,0.1642,0.1200,0.0000,0.0000,0.0000,0.1290,-0.4045,-0.0037,996,1502,1500,1500,1000,1000,1505,1000,1000,1586,1005,1000,1014,-0.0939,-0.0927,0.1054,-0.0227,-0.0013,1.0097,0.5298,0.2792,-0.5373,-0.2717,0.8627,0.2400,0.1321,0.8627,0.2400,0.1321,0.3000,0.0600,0.0002,0,-2.4822,-3.5000,-0.0010,-2.4822,-3.5000,-0.0010,47.0506,-8.4924,0.0200,0.0000
-7.8586,46.8675,-3.0800,-0.0000,0.0821,0.1200,0.0000,0.0000,0.0000,0.1288,-0.4042,-0.0036,996,1502,1500,1500,1000,1000,1505,1000,1000,1586,1005,1000,1014,-0.0079,-0.1224,0.0683,-0.0178,-0.0010,1.0020,0.5294,0.2790,-0.5367,-0.2717,0.8627,0.2400,0.1321,0.8627,0.2400,0.1321,0.3000,0.0600,0.0002,0,-2.4822,-3.5000,-0.0010,-2.4822,-3.5000,-0.0010,47.0162,-8.4853,0.0200,0.0000
-7.8480,46.8318,-3.0711,-0.0000,0.0000,0.1200,0.0000,0.0000,0.0000,0.1288,-0.4040,-0.0036,996,1502,1500,1500,1000,1000,1505,1000,1000,1586,1005,1000,1014,-0.0782,-0.0350,0.0893,-0.0249,-0.0003,1.0065,0.5292,0.2787,-0.5364,-0.2715,0.8627,0.2400,0.1321,0.8627,0.2400,0.1321,0.3000,0.0600,0.0002,0,-2.4822,-3.5000,-0.0010,-2.4822,-3.5000,-0.0010,46.9817,-8.4776,0.0200,0.0000
-7.8380,46.7953,-3.0624,-0.0000,0.0821,0.1200,0.0000,0.0000,0.0000,0.1288,-0.4035,-0.0036,996,1502,1500,1500,1000,1000,1505,1000,1000,1586,1005,1000,1014,-0.1137,-0.1320,0.0626,-0.0224,-0.0024,1.0070,0.5287,0.2783,-0.5359,-0.2711,0.8627,0.2400,0.1321,0.8627,0.2400,0.1321,0.3000,0.0600,0.0002,0,-2.4822,-3.5000,-0.0010,-2.4822,-3.5000,-0.0010,46.9472,-8.4696,0.0200,0.0000
-7.8279,46.7585,-3.0535,-0.0000,0.0821,0.1200,0.0000,0.0000,0.0000,0.1287,-0.4033,-0.0037,996,1502,1500,1500,1000,1000,1505,1000,1000,1586,1005,1000,1014,-0.1004,-0.0749,0.0803,-0.0210,-0.0031,1.0084,0.5283,0.2782,-0.5356,-0.2709,0.8627,0.2400,0.1321,0.8627,0.2400,0.1321,0.3000,0.0600,0.0002,0,-2.4822,-3.5000,-0.0010,-2.4822,-3.5000,-0.0010,46.9131,-8.4621,0.0200,0.0000
-7.8181,46.7224,-3.0453,-0.0829,0.0000,0.1800,0.0000,0.0000,0.0000,0.1291,-0.4030,-0.0047,996,1502,1500,1500,1000,1000,1505,1000,1000,1586,1005,1000,1014,-0.0702,-0.0789,0.1057,-0.0233,0.0008,1.0093,0.5273,0.2786,-0.5368,-0.2692,0.8627,0.2400,0.1321,0.8627,0.2400,0.1321,0.3000,0.0600,0.0002,0,-2.4822,-3.5000,-0.0010,-2.4822,-3.5000,-0.0010,46.8788,-8.4546,0.0300,0.0000
-7.8071,46.6860,-3.0357,-0.2486,0.0000,0.1200,0.0000,0.0000,0.0000,0.1285,-0.4026,-0.0036,996,1502,1500,1500,1000,1000,1505,1000,1000,1586,1005,1000,1014,-0.0536,-0.1119,0.0801,-0.0188,-0.0012,1.0059,0.5274,0.2778,-0.5347,-0.2705,0.8627,0.2400,0.1321,0.8627,0.2400,0.1321,0.3000,0.0600,0.0002,0,-2.4822,-3.5000,-0.0010,-2.4822,-3.5000,-0.0010,46.8440,-8.4469,0.0200,0.0000
-7.7972,46.6500,-3.0274,-0.0000,0.0821,0.1200,0.0000,0.0000,0.0000,0.1284,-0.4025,-0.0038,996,1502,1500,1500,1000,1000,1505,1000,1000,1586,1005,1000,1014,-0.0878,0.0143,0.1255,-0.0243,-0.0005,1.0031,0.5270,0.2779,-0.5347,-0.2702,0.8627,0.2400,0.1321,0.8627,0.2400,0.1321,0.3000,0.0600,0.0002,0,-2.4822,-3.5000,-0.0010,-2.4822,-3.5000,-0.0010,46.8089,-8.4391,0.0200,0.0000
-7.7863,46.6138,-3.0178,-0.1657,-0.0821,0.1200,0.0000,0.0000,0.0000,0.1283,-0.4021,-0.0038,996,1502,1500,1500,1000,1000,1505,1000,1000,1586,1005,1000,1014,-0.0887,-0.0590,0.1263,-0.0210,-0.0023,1.0035,0.5266,0.2775,-0.5342,-0.2699,0.8627,0.2400,0.1321,0.8627,0.2400,0.1321,0.3000,0.0600,0.0002,0,-2.4822,-3.5000,-0.0010,-2.4822,-3.5000,-0.0010,46.7743,-8.4313,0.0200,0.0000
-7.7763,46.5773,-3.0088,-0.0000,0.0821,0.1200,0.0000,0.0000,0.0000,0.1282,-0.4017,-0.0036,996,1502,1500,1500,1000,1000,1505,1000,1000,1586,1005,1000,1014,-0.0709,-0.0712,0.0697,-0.0246,-0.0036,1.0104,0.5263,0.2771,-0.5336,-0.2699,0.8627,0.2400,0.1321,0.8627,0.2400,0.1321,0.3000,0.0600,0.0002,0,-2.4822,-3.5000,-0.0010,-2.4822,-3.5000,-0.0010,46.7399,-8.4235,0.0200,0.0000
-7.7657,46.5408,-2.9998,-0.0000,0.0821,0.1200,0.0000,0.0000,0.0000,0.1281,-0.4013,-0.0038,996,1502,1500,1500,1000,1000,1505,1000,1000,1586,1005,1000,1014,-0.0495,-0.1372,0.1352,-0.0239,-0.0047,1.0026,0.5256,0.2771,-0.5333,-0.2694,0.8627,0.2400,0.1321,0.8627,0.2400,0.1321,0.3000,0.0600,0.0002,0,-2.4822,-3.5000,-0.0010,-2.4822,-3.5000,-0.0010,46.7057,-8.4162,0.0200,0.0000
-7.7559,46.5033,-2.9915,-0.0829,0.0000,0.1800,0.0000,0.0000,0.0000,0.1285,-0.4010,-0.0047,996,1502,1500,1500,1000,1000,1505,1000,1000,1586,1005,1000,1014,-0.0550,-0.1571,0.0964,-0.0195,-0.0030,1.0059,0.5248,0.2772,-0.5342,-0.2677,0.8627,0.2400,0.1321,0.8627,0.2400,0.1321,0.3000,0.0600,0.0002,0,-2.4822,-3.5000,-0.0010,-2.4822,-3.5000,-0.0010,46.6711,-8.4093,0.0300,0.0000
-7.7455,46.4663,-2.9831,0.0829,0.0000,0.1200,0.0000,0.0000,0.0000,0.1279,-0.4008,-0.0037,996,1502,1500,1500,1000,1000,1505,1000,1000,1586,1005,1000,1014,-0.0469,-0.0826,0.0933,-0.0209,-0.0017,1.0069,0.5250,0.2765,-0.5324,-0.2691,0.8627,0.2400,0.1321,0.8627,0.2400,0.1321,0.3000,0.0600,0.0002,0,-2.4822,-3.5000,-0.0010,-2.4822,-3.5000,-0.0010,46.6366,-8.4022,0.0200,0.0000
-7.7347,46.4300,-2.9739,-0.0000,0.0821,0.1200,0.0000,0.0000,0.0000,0.1279,-0.4004,-0.0037,996,1502,1500,1500,1000,1000,1505,1000,1000,1586,1005,1000,1014,-0.0720,-0.0891,0.0855,-0.0191,-0.0037,1.0062,0.5246,0.2763,-0.5320,-0.2689,0.8627,0.2400,0.1321,0.8627,0.2400,0.1321,0.3000,0.0600,0.0002,0,-2.4822,-3.5000,-0.0010,-2.4822,-3.5000,-0.0010,46.6020,-8.3946,0.0200,0.0000
-7.7242,46.3940,-2.9645,-0.0829,0.0821,0.1200,0.0000,0.0000,0.0000,0.1278,-0.4002,-0.0040,996,1502,1500,1500,1000,1000,1505,1000,1000,1586,1005,1000,1014,-0.1084,-0.0526,0.1766,-0.0222,-0.0032,1.0076,0.5240,0.2763,-0.5319,-0.2684,0.8627,0.2400,0.1321,0.8627,0.2400,0.1321,0.3000,0.0600,0.0002,0,-2.4822,-3.5000,-0.0010,-2.4822,-3.5000,-0.0010,46.5672,-8.3868,0.0200,0.0000
-7.7136,46.3578,-2.9555,-0.0829,0.0000,0.1200,0.0000,0.0000,0.0000,0.1276,-0.3999,-0.0038,996,1502,1500,1500,1000,1000,1505,1000,1000,1586,1005,1000,1014,-0.0494,-0.0414,0.1364,-0.0252,-0.0049,1.0087,0.5237,0.2761,-0.5314,-0.2684,0.8627,0.2400,0.1321,0.8627,0.2400,0.1321,0.3000,0.0600,0.0002,0,-2.4822,-3.5000,-0.0010,-2.4822,-3.5000,-0.0010,46.5330,-8.3789,0.0200,0.0000
-7.7032,46.3219,-2.9464,-0.0829,0.0000,0.1200,0.0000,0.0000,0.0000,0.1277,-0.3996,-0.0037,996,1502,1500,1500,1000,1000,1505,1000,1000,1586,1005,1000,1014,-0.1299,-0.0112,0.0848,-0.0206,-0.0076,1.0069,0.5236,0.2756,-0.5309,-0.2683,0.8627,0.2400,0.1321,0.8627,0.2400,0.1321,0.3000,0.0600,0.0002,0,-2.4822,-3.5000,-0.0010,-2.4822,-3.5000,-0.0010,46.4984,-8.3714,0.0200,0.0000
-7.6931,46.2853,-2.9375,-0.0829,0.0821,0.1800,0.0000,0.0000,0.0000,0.1280,-0.3992,-0.0048,996,1502,1500,1500,1000,1000,1505,1000,1000,1586,1005,1000,1014,-0.0799,-0.0698,0.1463,-0.0213,-0.0027,1.0073,0.5224,0.2760,-0.5321,-0.2664,0.8627,0.2400,0.1321,0.8627,0.2400,0.1321,0.3000,0.0600,0.0002,0,-2.4822,-3.5000,-0.0010,-2.4822,-3.5000,-0.0010,46.4639,-8.3642,0.0300,0.0000
-7.6832,46.2490,-2.9288,-0.0829,0.1642,0.1200,0.0000,0.0000,0.0000,0.1274,-0.3989,-0.0038,996,1502,1500,1500,1000,1000,1505,1000,1000,1586,1005,1000,1014,-0.0697,-0.0762,0.1017,-0.0228,-0.0046,1.0014,0.5225,0.2752,-0.5301,-0.2677,0.8627,0.2400,0.1321,0.8627,0.2400,0.1321,0.3000,0.0600,0.0002,0,-2.4822,-3.5000,-0.0010,-2.4822,-3.5000,-0.0010,46.4294,-8.3564,0.0200,0.0000
-7.6736,46.2122,-2.9203,-0.0000,0.0000,0.1200,0.0000,0.0000,0.0000,0.1274,-0.3985,-0.0037,996,1502,1500,1500,1000,1000,1505,1000,1000,1586,1005,1000,1014,-0.0893,-0.1589,0.0802,-0.0233,-0.0055,1.0080,0.5221,0.2748,-0.5295,-0.2674,0.8627,0.2400,0.1321,0.8627,0.2400,0.1321,0.3000,0.0600,0.0002,0,-2.4822,-3.5000,-0.0010,-2.4822,-3.5000,-0.0010,46.3940,-8.3488,0.0200,0.0000
-7.6634,46.1753,-2.9117,-0.0829,0.0000,0.1200,0.0000,0.0000,0.0000,0.1272,-0.3982,-0.0037,996,1502,1500,1500,1000,1000,1505,1000,1000,1586,1005,1000,1014,-0.0749,-0.1109,0.0925,-0.0267,-0.0018,1.0053,0.5217,0.2747,-0.5292,-0.2672,0.8627,0.2400,0.1321,0.8627,0.2400,0.1321,0.3000,0.0600,0.0002,0,-2.4822,-3.5000,-0.0010,-2.4822,-3.5000,-0.0010,46.3584,-8.3410,0.0200,0.0000
-7.6528,46.1386,-2.9024,-0.0000,0.0000,0.1200,0.0000,0.0000,0.0000,0.1271,-0.3979,-0.0038,996,1502,1500,1500,1000,1000,1505,1000,1000,1586,1005,1000,1014,-0.0475,-0.1137,0.1178,-0.0237,-0.0018,1.0035,0.5212,0.2745,-0.5288,-0.2670,0.8627,0.2400,0.1321,0.8627,0.2400,0.1321,0.3000,0.0600,0.0002,0,-2.4822,-3.5000,-0.0010,-2.4822,-3.5000,-0.0010,46.3235,-8.3335,0.0200,0.0000
-7.6423,46.1020,-2.8935,-0.0829,0.0000,0.1200,0.0000,0.0000,0.0000,0.1271,-0.3976,-0.0037,996,1502,1500,1500,1000,1000,1505,1000,1000,1586,1005,1000,1014,-0.1389,-0.0649,0.0930,-0.0234,-0.0022,1.0090,0.5211,0.2742,-0.5285,-0.2668,0.8627,0.2400,0.1321,0.8627,0.2400,0.1321,0.3000,0.0600,0.0002,0,-2.4822,-3.5000,-0.0010,-2.4822,-3.5000,-0.0010,46.2887,-8.3255,0.0200,0.0000
-7.6319,46.0660,-2.8847,-0.0829,0.0821,0.1800,0.0000,0.0000,0.0000,0.1274,-0.3974,-0.0048,996,1502,1500,1500,1000,1000,1505,1000,1000,1586,1005,1000,1014,-0.0394,-0.0112,0.1163,-0.0195,-0.0026,1.0040,0.5201,0.2747,-0.5296,-0.2652,0.8627,0.2400,0.1321,0.8627,0.2400,0.1321,0.3000,0.0600,0.0002,0,-2.4822,-3.5000,-0.0010,-2.4822,-3.5000,-0.0010,46.2538,-8.3184,0.0300,0.0000
-7.6219,46.0299,-2.8761,-0.0000,0.0000,0.1200,0.0000,0.0000,0.0000,0.1269,-0.3970,-0.0035,996,1502,1500,1500,1000,1000,1505,1000,1000,1586,1005,1000,1014,-0.0583,-0.0400,0.0304,-0.0214,-0.0039,0.9995,0.5204,0.2737,-0.5274,-0.2667,0.8627,0.2400,0.1321,0.8627,0.2400,0.1321,0.3000,0.0600,0.0002,0,-2.4822,-3.5000,-0.0010,-2.4822,-3.5000,-0.0010,46.2189,-8.3110,0.0200,0.0000
-7.6123,45.9934,-2.8683,-0.0829,0.0821,0.1200,0.0000,0.0000,0.0000,0.1268,-0.3967,-0.0036,996,1502,1500,1500,1000,1000,1505,1000,1000,1586,1005,1000,1014,-0.0692,-0.0614,0.0384,-0.0206,-0.0003,1.0033,0.5199,0.2735,-0.5271,-0.2663,0.8627,0.2400,0.1321,0.8627,0.2400,0.1321,0.3000,0.0600,0.0002,0,-2.4822,-3.5000,-0.0010,-2.4822,-3.5000,-0.0010,46.1841,-8.3032,0.0200,0.0000
-7.6020,45.9564,-2.8595,-0.0000,0.0000,0.1200,0.0000,0.0000,0.0000,0.1267,-0.3962,-0.0038,996,1502,1500,1500,1000,1000,1505,1000,1000,1586,1005,1000,1014,-0.0767,-0.1715,0.1312,-0.0224,-0.0032,1.0043,0.5191,0.2734,-0.5268,-0.2657,0.8627,0.2400,0.1321,0.8627,0.2400,0.1321,0.3000,0.0600,0.0002,0,-2.4822,-3.5000,-0.0010,-2.4822,-3.5000,-0.0010,46.1489,-8.2954,0.0200,0.0000
-7.5915,45.9189,-2.8502,-0.1657,-0.0821,0.1200,0.0000,0.0000,0.0000,0.1266,-0.3960,-0.0039,996,1502,1500,1500,1000,1000,1505,1000,1000,1586,1005,1000,1014,-0.0781,-0.1164,0.1690,-0.0217,-0.0035,1.0051,0.5187,0.2733,-0.5266,-0.2654,0.8627,0.2400,0.1321,0.8627,0.2400,0.1321,0.3000,0.0600,0.0002,0,-2.4822,-3.5000,-0.0010,-2.4822,-3.5000,-0.0010,46.1138,-8.2882,0.0200,0.0000
-7.5809,45.8818,-2.8410,-0.0829,0.0821,0.1200,0.0000,0.0000,0.0000,0.1266,-0.3957,-0.0038,996,1502,1500,1500,1000,1000,1505,1000,1000,1586,1005,1000,1014,-0.1104,-0.0637,0.1223,-0.0245,0.0010,1.0024,0.5185,0.2730,-0.5261,-0.2654,0.8627,0.2400,0.1321,0.8627,0.2400,0.1321,0.3000,0.0600,0.0002,0,-2.4822,-3.5000,-0.0010,-2.4822,-3.5000,-0.0010,46.0790,-8.2803,0.0200,0.0000
-7.5710,45.8451,-2.8324,-0.1657,-0.1642,0.1800,0.0000,0.0000,0.0000,0.1270,-0.3954,-0.0038,996,1502,1500,1500,1000,1000,1505,1000,1000,1586,1005,1000,1014,-0.1240,-0.0628,0.0889,-0.0224,-0.0023,1.0065,0.5187,0.2721,-0.5262,-0.2646,0.8627,0.2400,0.1321,0.8627,0.2400,0.1321,0.3000,0.0600,0.0002,0,-2.4822,-3.5000,-0.0010,-2.4822,-3.5000,-0.0010,46.0443,-8.2725,0.0300,0.0000
-7.5603,45.8092,-2.8230,-0.0829,0.0000,0.1200,0.0000,0.0000,0.0000,0.1264,-0.3952,-0.0039,996,1502,1500,1500,1000,1000,1505,1000,1000,1586,1005,1000,1014,-0.0707,0.0021,0.1919,-0.0238,-0.0020,1.0027,0.5176,0.2728,-0.5255,-0.2649,0.8627,0.2400,0.1321,0.8627,0.2400,0.1321,0.3000,0.0600,0.0002,0,-2.4822,-3.5000,-0.0010,-2.4822,-3.5000,-0.0010,46.0097,-8.2650,0.0200,0.0000
-7.5498,45.7736,-2.8140,-0.0829,0.0821,0.1200,0.0000,0.0000,0.0000,0.1262,-0.3949,-0.0038,996,1502,1500,1500,1000,1000,1505,1000,1000,1586,1005,1000,1014,-0.0293,-0.0100,0.1129,-0.0231,-0.0014,1.0070,0.5173,0.2725,-0.5249,-0.2649,0.8627,0.2400,0.1321,0.8627,0.2400,0.1321,0.3000,0.0600,0.0002,0,-2.4822,-3.5000,-0.0010,-2.4822,-3.5000,-0.0010,45.9748,-8.2568,0.0200,0.0000
-7.5402,45.7372,-2.8057,-0.0829,0.0000,0.1200,0.0000,0.0000,0.0000,0.1262,-0.3944,-0.0038,996,1502,1500,1500,1000,1000,1505,1000,1000,1586,1005,1000,1014,-0.1126,-0.0992,0.1110,-0.0204,-0.0022,1.0013,0.5169,0.2720,-0.5245,-0.2644,0.8627,0.2400,0.1321,0.8627,0.2400,0.1321,0.3000,0.0600,0.0002,0,-2.4822,-3.5000,-0.0010,-2.4822,-3.5000,-0.0010,45.9401,-8.2487,0.0200,0.0000
-7.5304,45.7006,-2.7971,-0.0000,0.0000,0.1200,0.0000,0.0000,0.0000,0.1261,-0.3941,-0.0038,996,1502,1500,1500,1000,1000,1505,1000,1000,1586,1005,1000,1014,-0.0712,-0.0885,0.1189,-0.0210,-0.0027,1.0069,0.5164,0.2719,-0.5241,-0.2642,0.8627,0.2400,0.1321,0.8627,0.2400,0.1321,0.3000,0.0600,0.0002,0,-2.4822,-3.5000,-0.0010,-2.4822,-3.5000,-0.0010,45.9051,-8.2410,0.0200,0.0000
-7.5207,45.6636,-2.7887,-0.0000,0.0821,0.1200,0.0000,0.0000,0.0000,0.1260,-0.3938,-0.0037,996,1502,1500,1500,1000,1000,1505,1000,1000,1586,1005,1000,1014,-0.0815,-0.1224,0.0801,-0.0204,-0.0031,1.0085,0.5161,0.2714,-0.5235,-0.2641,0.8627,0.2400,0.1321,0.8627,0.2400,0.1321,0.3000,0.0600,0.0002,0,-2.4822,-3.5000,-0.0010,-2.4822,-3.5000,-0.0010,45.8704,-8.2329,0.0200,0.0000
-7.5114,45.6266,-2.7804,-0.0000,0.0821,0.1800,0.0000,0.0000,0.0000,0.1265,-0.3935,-0.0038,996,1502,1500,1500,1000,1000,1505,1000,1000,1586,1005,1000,1014,-0.1149,-0.0727,0.1073,-0.0224,-0.0043,1.0042,0.5162,0.2708,-0.5238,-0.2632,0.8627,0.2400,0.1321,0.8627,0.2400,0.1321,0.3000,0.0600,0.0002,0,-2.4822,-3.5000,-0.0010,-2.4822,-3.5000,-0.0010,45.8352,-8.2253,0.0300,0.0000
-7.5015,45.5894,-2.7719,-0.0000,0.0000,0.1200,0.0000,0.0000,0.0000,0.1258,-0.3932,-0.0038,996,1502,1500,1500,1000,1000,1505,1000,1000,1586,1005,1000,1014,-0.0551,-0.0934,0.1377,-0.0232,-0.0006,1.0051,0.5152,0.2712,-0.5228,-0.2635,0.8627,0.2400,0.1321,0.8627,0.2400,0.1321,0.3000,0.0600,0.0002,0,-2.4822,-3.5000,-0.0010,-2.4822,-3.5000,-0.0010,45.8004,-8.2175,0.0200,0.0000
-7.4912,45.5526,-2.7629,-0.0829,0.1642,0.1200,0.0000,0.0000,0.0000,0.1258,-0.3928,-0.0037,996,1502,1500,1500,1000,1000,1505,1000,1000,1586,1005,1000,1014,-0.0984,-0.1536,0.0768,-0.0191,-0.0009,1.0047,0.5149,0.2707,-0.5222,-0.2633,0.8627,0.2400,0.1321,0.8627,0.2400,0.1321,0.3000,0.0600,0.0002,0,-2.4822,-3.5000,-0.0010,-2.4822,-3.5000,-0.0010,45.7657,-8.2095,0.0200,0.0000
-7.4812,45.5152,-2.7543,-0.0829,0.0821,0.1200,0.0000,0.0000,0.0000,0.1256,-0.3926,-0.0040,996,1502,1500,1500,1000,1000,1505,1000,1000,1586,1005,1000,1014,-0.0465,-0.0471,0.1656,-0.0236,-0.0039,1.0084,0.5143,0.2709,-0.5222,-0.2630,0.8627,0.2400,0.1321,0.8627,0.2400,0.1321,0.3000,0.0600,0.0002,0,-2.4822,-3.5000,-0.0010,-2.4822,-3.5000,-0.0010,45.7302,-8.2023,0.0200,0.0000
-7.4703,45.4786,-2.7446,-0.0000,0.0000,0.1200,0.0000,0.0000,0.0000,0.1256,-0.3923,-0.0039,996,1502,1500,1500,1000,1000,1505,1000,1000,1586,1005,1000,1014,-0.1153,-0.0608,0.1585,-0.0239,-0.0019,1.0017,0.5140,0.2706,-0.5218,-0.2627,0.8627,0.2400,0.1321,0.8627,0.2400,0.1321,0.3000,0.0600,0.0002,0,-2.4822,-3.5000,-0.0010,-2.4822,-3.5000,-0.0010,45.6954,-8.1948,0.0200,0.0000
-7.4606,45.4424,-2.7359,-0.0829,0.0821,0.1200,0.0000,0.0000,0.0000,0.1255,-0.3920,-0.0036,996,1502,1500,1500,1000,1000,1505,1000,1000,1586,1005,1000,1014,-0.1020,-0.0034,0.0483,-0.0216,-0.0049,1.0005,0.5140,0.2701,-0.5212,-0.2629,0.8627,0.2400,0.1321,0.8627,0.2400,0.1321,0.3000,0.0600,0.0002,0,-2.4822,-3.5000,-0.0010,-2.4822,-3.5000,-0.0010,45.6610,-8.1866,0.0200,0.0000
-7.4508,45.4063,-2.7274,-0.0000,0.0821,0.1800,0.0000,0.0000,0.0000,0.1260,-0.3917,-0.0040,996,1502,1500,1500,1000,1000,1505,1000,1000,1586,1005,1000,1014,-0.1135,-0.0118,0.1778,-0.0217,-0.0016,1.0048,0.5137,0.2697,-0.5217,-0.2617,0.8627,0.2400,0.1321,0.8627,0.2400,0.1321,0.3000,0.0600,0.0002,0,-2.4822,-3.5000,-0.0010,-2.4822,-3.5000,-0.0010,45.6267,-8.1783,0.0300,0.0000
-7.4402,45.3702,-2.7185,-0.0000,0.0821,0.1200,0.0000,0.0000,0.0000,0.1253,-0.3914,-0.0038,996,1502,1500,1500,1000,1000,1505,1000,1000,1586,1005,1000,1014,-0.0315,-0.0136,0.1125,-0.0181,-0.0013,1.0061,0.5128,0.2700,-0.5205,-0.2623,0.8627,0.2400,0.1321,0.8627,0.2400,0.1321,0.3000,0.0600,0.0002,0,-2.4822,-3.5000,-0.0010,-2.4822,-3.5000,-0.0010,45.5919,-8.1705,0.0200,0.0000
-7.4294,45.3334,-2.7091,-0.0000,0.0000,0.1200,0.0000,0.0000,0.0000,0.1252,-0.3910,-0.0038,996,1502,1500,1500,1000,1000,1505,1000,1000,1586,1005,1000,1014,-0.0674,-0.0702,0.1481,-0.0237,-0.0032,1.0060,0.5124,0.2696,-0.5201,-0.2619,0.8627,0.2400,0.1321,0.8627,0.2400,0.1321,0.3000,0.0600,0.0002,0,-2.4822,-3.5000,-0.0010,-2.4822,-3.5000,-0.0010,45.5572,-8.1629,0.0200,0.0000
-7.4188,45.2964,-2.6995,-0.0000,0.0821,0.1200,0.0000,0.0000,0.0000,0.1251,-0.3906,-0.0039,996,1502,1500,1500,1000,1000,1505,1000,1000,1586,1005,1000,1014,-0.0567,-0.1190,0.1470,-0.0233,-0.0038,1.0048,0.5118,0.2694,-0.5196,-0.2616,0.8627,0.2400,0.1321,0.8627,0.2400,0.1321,0.3000,0.0600,0.0002,0,-2.4822,-3.5000,-0.0010,-2.4822,-3.5000,-0.0010,45.5224,-8.1548,0.0200,0.0000
-7.4087,45.2595,-2.6907,-0.0000,-0.0821,0.1200,0.0000,0.0000,0.0000,0.1251,-0.3903,-0.0037,996,1502,1500,1500,1000,1000,1505,1000,1000,1586,1005,1000,1014,-0.1325,-0.1249,0.0959,-0.0215,-0.0049,1.0049,0.5117,0.2689,-0.5191,-0.2614,0.8627,0.2400,0.1321,0.8627,0.2400,0.1321,0.3000,0.0600,0.0002,0,-2.4822,-3.5000,-0.0010,-2.4822,-3.5000,-0.0010,45.4872,-8.1464,0.0200,0.0000
-7.3993,45.2225,-2.6818,-0.1657,-0.0821,0.1200,0.0000,0.0000,0.0000,0.1250,-0.3900,-0.0038,996,1502,1500,1500,1000,1000,1505,1000,1000,1586,1005,1000,1014,-0.1099,-0.0968,0.1255,-0.0217,-0.0030,1.0053,0.5112,0.2688,-0.5189,-0.2612,0.8627,0.2400,0.1321,0.8627,0.2400,0.1321,0.3000,0.0600,0.0002,0,-2.4822,-3.5000,-0.0010,-2.4822,-3.5000,-0.0010,45.4519,-8.1387,0.0200,0.0000
-7.3895,45.1855,-2.6734,-0.0000,0.0821,0.1800,0.0000,0.0000,0.0000,0.1254,-0.3898,-0.0037,996,1502,1500,1500,1000,1000,1505,1000,1000,1586,1005,1000,1014,-0.1079,-0.0020,0.0775,-0.0246,-0.0022,1.0051,0.5115,0.2681,-0.5190,-0.2607,0.8627,0.2400,0.1321,0.8627,0.2400,0.1321,0.3000,0.0600,0.0002,0,-2.4822,-3.5000,-0.0010,-2.4822,-3.5000,-0.0010,45.4164,-8.1307,0.0300,0.0000
-7.3799,45.1489,-2.6649,-0.1657,-0.0821,0.1200,0.0000,0.0000,0.0000,0.1248,-0.3894,-0.0038,996,1502,1500,1500,1000,1000,1505,1000,1000,1586,1005,1000,1014,-0.0518,-0.0553,0.1214,-0.0244,-0.0039,1.0031,0.5104,0.2685,-0.5180,-0.2608,0.8627,0.2400,0.1321,0.8627,0.2400,0.1321,0.3000,0.0600,0.0002,0,-2.4822,-3.5000,-0.0010,-2.4822,-3.5000,-0.0010,45.3809,-8.1232,0.0200,0.0000
-7.3695,45.1117,-2.6559,-0.0000,0.0000,0.1200,0.0000,0.0000,0.0000,0.1247,-0.3889,-0.0039,996,1502,1500,1500,1000,1000,1505,1000,1000,1586,1005,1000,1014,-0.0593,-0.1824,0.1462,-0.0219,-0.0042,1.0071,0.5098,0.2681,-0.5175,-0.2604,0.8627,0.2400,0.1321,0.8627,0.2400,0.1321,0.3000,0.0600,0.0002,0,-2.4822,-3.5000,-0.0010,-2.4822,-3.5000,-0.0010,45.3456,-8.1160,0.0200,0.0000
-7.3590,45.0744,-2.6469,-0.0000,0.0821,0.1200,0.0000,0.0000,0.0000,0.1247,-0.3888,-0.0039,996,1502,1500,1500,1000,1000,1505,1000,1000,1586,1005,1000,1014,-0.0973,-0.0336,0.1577,-0.0229,-0.0028,1.0079,0.5095,0.2681,-0.5174,-0.2602,0.8627,0.2400,0.1321,0.8627,0.2400,0.1321,0.3000,0.0600,0.0002,0,-2.4822,-3.5000,-0.0010,-2.4822,-3.5000,-0.0010,45.3102,-8.1084,0.0200,0.0000
-7.3490,45.0378,-2.6383,-0.0000,0.0821,0.1200,0.0000,0.0000,0.0000,0.1246,-0.3885,-0.0039,996,1502,1500,1500,1000,1000,1505,1000,1000,1586,1005,1000,1014,-0.1267,-0.0562,0.1484,-0.0246,-0.0046,1.0065,0.5092,0.2678,-0.5170,-0.2600,0.8627,0.2400,0.1321,0.8627,0.2400,0.1321,0.3000,0.0600,0.0002,0,-2.4822,-3.5000,-0.0010,-2.4822,-3.5000,-0.0010,45.2745,-8.1009,0.0200,0.0000
-7.3388,45.0004,-2.6291,-0.0829,0.0821,0.1200,0.0000,0.0000,0.0000,0.1244,-0.3880,-0.0041,996,1502,1500,1500,1000,1000,1505,1000,1000,1586,1005,1000,1014,-0.0725,-0.1758,0.1977,-0.0221,-0.0054,1.0048,0.5084,0.2676,-0.5165,-0.2595,0.8627,0.2400,0.1321,0.8627,0.2400,0.1321,0.3000,0.0600,0.0002,0,-2.4822,-3.5000,-0.0010,-2.4822,-3.5000,-0.0010,45.2393,-8.0936,0.0200,0.0000
-7.3279,44.9632,-2.6194,-0.0000,0.0821,0.1800,0.0000,0.0000,0.0000,0.1248,-0.3878,-0.0048,996,1502,1500,1500,1000,1000,1505,1000,1000,1586,1005,1000,1014,-0.0208,-0.0427,0.1488,-0.0233,-0.0034,1.0040,0.5078,0.2679,-0.5175,-0.2582,0.8627,0.2400,0.1321,0.8627,0.2400,0.1321,0.3000,0.0600,0.0002,0,-2.4822,-3.5000,-0.0010,-2.4822,-3.5000,-0.0010,45.2040,-8.0854,0.0300,0.0000
-7.3172,44.9269,-2.6108,-0.0000,0.0821,0.1200,0.0000,0.0000,0.0000,0.1242,-0.3876,-0.0037,996,1502,1500,1500,1000,1000,1505,1000,1000,1586,1005,1000,1014,-0.0040,0.0121,0.0896,-0.0245,-0.0036,1.0070,0.5081,0.2671,-0.5155,-0.2598,0.8627,0.2400,0.1321,0.8627,0.2400,0.1321,0.3000,0.0600,0.0002,0,-2.4822,-3.5000,-0.0010,-2.4822,-3.5000,-0.0010,45.1691,-8.0770,0.0200,0.0000
-7.3071,44.8903,-2.6026,-0.0000,0.0000,0.1200,0.0000,0.0000,0.0000,0.1242,-0.3872,-0.0036,996,1502,1500,1500,1000,1000,1505,1000,1000,1586,1005,1000,1014,-0.0641,-0.0239,0.0746,-0.0191,-0.0017,1.0029,0.5078,0.2667,-0.5150,-0.2594,0.8627,0.2400,0.1321,0.8627,0.2400,0.1321,0.3000,0.0600,0.0002,0,-2.4822,-3.5000,-0.0010,-2.4822,-3.5000,-0.0010,45.1340,-8.0690,0.0200,0.0000
-7.2987,44.8536,-2.5957,-0.0829,0.0000,0.1200,0.0000,0.0000,0.0000,0.1242,-0.3869,-0.0036,996,1502,1500,1500,1000,1000,1505,1000,1000,1586,1005,1000,1014,-0.1229,-0.0383,0.0330,-0.0202,-0.0044,1.0048,0.5075,0.2663,-0.5146,-0.2592,0.8627,0.2400,0.1321,0.8627,0.2400,0.1321,0.3000,0.0600,0.0002,0,-2.4822,-3.5000,-0.0010,-2.4822,-3.5000,-0.0010,45.0988,-8.0610,0.0200,0.0000
-7.2899,44.8166,-2.5880,-0.0829,0.0821,0.1200,0.0000,0.0000,0.0000,0.1241,-0.3865,-0.0037,996,1502,1500,1500,1000,1000,1505,1000,1000,1586,1005,1000,1014,-0.1118,-0.1259,0.0893,-0.0200,-0.0011,1.0049,0.5068,0.2661,-0.5143,-0.2586,0.8627,0.2400,0.1321,0.8627,0.2400,0.1321,0.3000,0.0600,0.0002,0,-2.4822,-3.5000,-0.0010,-2.4822,-3.5000,-0.0010,45.0643,-8.0537,0.0200,0.0000
-7.2801,44.7794,-2.5795,-0.0000,0.0821,0.1200,0.0000,0.0000,0.0000,0.1239,-0.3862,-0.0039,996,1502,1500,1500,1000,1000,1505,1000,1000,1586,1005,1000,1014,-0.0777,-0.0990,0.1586,-0.0223,0.0009,1.0047,0.5062,0.2662,-0.5141,-0.2583,0.8627,0.2400,0.1321,0.8627,0.2400,0.1321,0.3000,0.0600,0.0002,0,-2.4822,-3.5000,-0.0010,-2.4822,-3.5000,-0.0010,45.0294,-8.0454,0.0200,0.0000
-7.2701,44.7422,-2.5712,-0.0000,0.0000,0.1800,0.0000,0.0000,0.0000,0.1243,-0.3859,-0.0047,996,1502,1500,1500,1000,1000,1505,1000,1000,1586,1005,1000,1014,-0.0450,-0.0968,0.0944,-0.0238,-0.0021,1.0094,0.5055,0.2663,-0.5149,-0.2568,0.8627,0.2400,0.1321,0.8627,0.2400,0.1321,0.3000,0.0600,0.0002,0,-2.4822,-3.5000,-0.0010,-2.4822,-3.5000,-0.0010,44.9942,-8.0373,0.0300,0.0000
-7.2604,44.7049,-2.5632,-0.0000,0.0821,0.1200,0.0000,0.0000,0.0000,0.1238,-0.3856,-0.0036,996,1502,1500,1500,1000,1000,1505,1000,1000,1586,1005,1000,1014,-0.0992,-0.0550,0.0484,-0.0195,0.0008,1.0080,0.5058,0.2654,-0.5130,-0.2582,0.8627,0.2400,0.1321,0.8627,0.2400,0.1321,0.3000,0.0600,0.0002,0,-2.4822,-3.5000,-0.0010,-2.4822,-3.5000,-0.0010,44.9592,-8.0295,0.0200,0.0000
-7.2508,44.6682,-2.5552,-0.0000,0.0000,0.1200,0.0000,0.0000,0.0000,0.1237,-0.3853,-0.0038,996,1502,1500,1500,1000,1000,1505,1000,1000,1586,1005,1000,1014,-0.0800,-0.0218,0.0884,-0.0212,-0.0038,1.0048,0.5053,0.2654,-0.5128,-0.2579,0.8627,0.2400,0.1321,0.8627,0.2400,0.1321,0.3000,0.0600,0.0002,0,-2.4822,-3.5000,-0.0010,-2.4822,-3.5000,-0.0010,44.9238,-8.0218,0.0200,0.0000
-7.2412,44.6318,-2.5474,-0.0829,0.1642,0.1200,0.0000,0.0000,0.0000,0.1235,-0.3850,-0.0036,996,1502,1500,1500,1000,1000,1505,1000,1000,1586,1005,1000,1014,-0.0318,0.0071,0.0394,-0.0223,-0.0020,1.0082,0.5050,0.2651,-0.5121,-0.2579,0.8627,0.2400,0.1321,0.8627,0.2400,0.1321,0.3000,0.0600,0.0002,0,-2.4822,-3.5000,-0.0010,-2.4822,-3.5000,-0.0010,44.8888,-8.0138,0.0200,0.0000
-7.2316,44.5953,-2.5395,-0.0829,0.0000,0.1200,0.0000,0.0000,0.0000,0.1235,-0.3846,-0.0039,996,1502,1500,1500,1000,1000,1505,1000,1000,1586,1005,1000,1014,-0.0896,-0.0698,0.1260,-0.0217,-0.0022,1.0072,0.5043,0.2650,-0.5120,-0.2572,0.8627,0.2400,0.1321,0.8627,0.2400,0.1321,0.3000,0.0600,0.0002,0,-2.4822,-3.5000,-0.0010,-2.4822,-3.5000,-0.0010,44.8545,-8.0059,0.0200,0.0000
-7.2219,44.5579,-2.5313,-0.0829,0.0000,0.1200,0.0000,0.0000,0.0000,0.1235,-0.3842,-0.0039,996,1502,1500,1500,1000,1000,1505,1000,1000,1586,1005,1000,1014,-0.1340,-0.1243,0.1303,-0.0202,-0.0025,1.0108,0.5038,0.2646,-0.5117,-0.2568,0.8627,0.2400,0.1321,0.8627,0.2400,0.1321,0.3000,0.0600,0.0002,0,-2.4822,-3.5000,-0.0010,-2.4822,-3.5000,-0.0010,44.8200,-7.9980,0.0200,0.0000
-7.2123,44.5208,-2.5223,-0.0829,0.0000,0.1800,0.0000,0.0000,0.0000,0.1239,-0.3840,-0.0049,996,1502,1500,1500,1000,1000,1505,1000,1000,1586,1005,1000,1014,-0.1259,-0.0723,0.1678,-0.0193,-0.0028,1.0065,0.5030,0.2650,-0.5129,-0.2551,0.8627,0.2400,0.1321,0.8627,0.2400,0.1321,0.3000,0.0600,0.0002,0,-2.4822,-3.5000,-0.0010,-2.4822,-3.5000,-0.0010,44.7849,-7.9894,0.0300,0.0000
-7.2027,44.4840,-2.5137,-0.0000,0.0000,0.1200,0.0000,0.0000,0.0000,0.1233,-0.3837,-0.0039,996,1502,1500,1500,1000,1000,1505,1000,1000,1586,1005,1000,1014,-0.1128,-0.0570,0.1428,-0.0200,-0.0016,1.0087,0.5031,0.2643,-0.5109,-0.2565,0.8627,0.2400,0.1321,0.8627,0.2400,0.1321,0.3000,0.0600,0.0002,0,-2.4822,-3.5000,-0.0010,-2.4822,-3.5000,-0.0010,44.7498,-7.9811,0.0200,0.0000
-7.1923,44.4472,-2.5044,-0.1657,-0.0821,0.1200,0.0000,0.0000,0.0000,0.1231,-0.3835,-0.0041,996,1502,1500,1500,1000,1000,1505,1000,1000,1586,1005,1000,1014,-0.0400,0.0303,0.2050,-0.0226,0.0017,1.0048,0.5025,0.2645,-0.5107,-0.2562,0.8627,0.2400,0.1321,0.8627,0.2400,0.1321,0.3000,0.0600,0.0002,0,-2.4822,-3.5000,-0.0010,-2.4822,-3.5000,-0.0010,44.7152,-7.9737,0.0200,0.0000
-7.1818,44.4103,-2.4953,-0.0000,0.0000,0.1200,0.0000,0.0000,0.0000,0.1230,-0.3830,-0.0039,996,1502,1500,1500,1000,1000,1505,1000,1000,1586,1005,1000,1014,-0.0423,-0.0766,0.1271,-0.0230,-0.0026,1.0086,0.5022,0.2638,-0.5099,-0.2561,0.8627,0.2400,0.1321,0.8627,0.2400,0.1321,0.3000,0.0600,0.0002,0,-2.4822,-3.5000,-0.0010,-2.4822,-3.5000,-0.0010,44.6803,-7.9662,0.0200,0.0000
-7.1711,44.3730,-2.4865,-0.0829,0.0000,0.1200,0.0000,0.0000,0.0000,0.1230,-0.3827,-0.0040,996,1502,1500,1500,1000,1000,1505,1000,1000,1586,1005,1000,1014,-0.0483,-0.0488,0.1553,-0.0239,-0.0017,1.0053,0.5017,0.2637,-0.5097,-0.2558,0.8627,0.2400,0.1321,0.8627,0.2400,0.1321,0.3000,0.0600,0.0002,0,-2.4822,-3.5000,-0.0010,-2.4822,-3.5000,-0.0010,44.6447,-7.9583,0.0200,0.0000
-7.1613,44.3359,-2.4783,-0.1657,0.0821,0.1200,0.0000,0.0000,0.0000,0.1229,-0.3824,-0.0037,996,1502,1500,1500,1000,1000,1505,1000,1000,1586,1005,1000,1014,-0.0685,-0.0418,0.0833,-0.0201,-0.0040,1.0014,0.5016,0.2632,-0.5091,-0.2558,0.8627,0.2400,0.1321,0.8627,0.2400,0.1321,0.3000,0.0600,0.0002,0,-2.4822,-3.5000,-0.0010,-2.4822,-3.5000,-0.0010,44.6094,-7.9503,0.0200,0.0000
-7.1512,44.2990,-2.4697,-0.0000,0.0000,0.1800,0.0000,0.0000,0.0000,0.1233,-0.3821,-0.0049,996,1502,1500,1500,1000,1000,1505,1000,1000,1586,1005,1000,1014,-0.0497,-0.0795,0.1569,-0.0199,-0.0031,1.0047,0.5005,0.2636,-0.5103,-0.2539,0.8627,0.2400,0.1321,0.8627,0.2400,0.1321,0.3000,0.0600,0.0002,0,-2.4822,-3.5000,-0.0010,-2.4822,-3.5000,-0.0010,44.5742,-7.9424,0.0300,0.0000
-7.1414,44.2616,-2.4615,-0.0000,0.0000,0.1200,0.0000,0.0000,0.0000,0.1227,-0.3817,-0.0038,996,1502,1500,1500,1000,1000,1505,1000,1000,1586,1005,1000,1014,-0.0671,-0.0987,0.0931,-0.0197,-0.0005,1.0096,0.5007,0.2627,-0.5082,-0.2552,0.8627,0.2400,0.1321,0.8627,0.2400,0.1321,0.3000,0.0600,0.0002,0,-2.4822,-3.5000,-0.0010,-2.4822,-3.5000,-0.0010,44.5394,-7.9341,0.0200,0.0000
-7.1318,44.2242,-2.4535,-0.0000,0.0821,0.1200,0.0000,0.0000,0.0000,0.1227,-0.3814,-0.0036,996,1502,1500,1500,1000,1000,1505,1000,1000,1586,1005,1000,1014,-0.1000,-0.0879,0.0560,-0.0200,0.0000,1.0029,0.5005,0.2623,-0.5077,-0.2551,0.8627,0.2400,0.1321,0.8627,0.2400,0.1321,0.3000,0.0600,0.0002,0,-2.4822,-3.5000,-0.0010,-2.4822,-3.5000,-0.0010,44.5047,-7.9261,0.0200,0.0000
-7.1219,44.1871,-2.4452,-0.0829,0.0821,0.1200,0.0000,0.0000,0.0000,0.1225,-0.3811,-0.0039,996,1502,1500,1500,1000,1000,1505,1000,1000,1586,1005,1000,1014,-0.0553,-0.0693,0.1324,-0.0205,-0.0018,1.0049,0.4997,0.2625,-0.5076,-0.2546,0.8627,0.2400,0.1321,0.8627,0.2400,0.1321,0.3000,0.0600,0.0002,0,-2.4822,-3.5000,-0.0010,-2.4822,-3.5000,-0.0010,44.4698,-7.9180,0.0200,0.0000
-7.1116,44.1492,-2.4366,-0.0829,0.0821,0.1200,0.0000,0.0000,0.0000,0.1224,-0.3808,-0.0037,996,1502,1500,1500,1000,1000,1505,1000,1000,1586,1005,1000,1014,-0.0182,-0.0793,0.0747,-0.0197,-0.0026,1.0018,0.4995,0.2620,-0.5069,-0.2547,0.8627,0.2400,0.1321,0.8627,0.2400,0.1321,0.3000,0.0600,0.0002,0,-2.4822,-3.5000,-0.0010,-2.4822,-3.5000,-0.0010,44.4346,-7.9102,0.0200,0.0000
-7.1020,44.1122,-2.4284,-0.0829,0.0821,0.1200,0.0000,0.0000,0.0000,0.1224,-0.3806,-0.0040,996,1502,1500,1500,1000,1000,1505,1000,1000,1586,1005,1000,1014,-0.0970,0.0106,0.1651,-0.0232,0.0009,1.0056,0.4990,0.2621,-0.5070,-0.2542,0.8627,0.2400,0.1321,0.8627,0.2400,0.1321,0.3000,0.0600,0.0002,0,-2.4822,-3.5000,-0.0010,-2.4822,-3.5000,-0.0010,44.3992,-7.9028,0.0200,0.0000
-7.0929,44.0752,-2.4206,-0.1657,0.0821,0.1800,0.0000,0.0000,0.0000,0.1229,-0.3801,-0.0044,996,1502,1500,1500,1000,1000,1505,1000,1000,1586,1005,1000,1014,-0.1102,-0.0681,-0.0121,-0.0232,0.0001,1.0101,0.4986,0.2616,-0.5074,-0.2529,0.8627,0.2400,0.1321,0.8627,0.2400,0.1321,0.3000,0.0600,0.0002,0,-2.4822,-3.5000,-0.0010,-2.4822,-3.5000,-0.0010,44.3637,-7.8950,0.0300,0.0000
-7.0841,44.0380,-2.4135,-0.0829,0.0821,0.1200,0.0000,0.0000,0.0000,0.1222,-0.3799,-0.0037,996,1502,1500,1500,1000,1000,1505,1000,1000,1586,1005,1000,1014,-0.0442,-0.0153,0.0909,-0.0212,-0.0001,1.0087,0.4984,0.2614,-0.5058,-0.2540,0.8627,0.2400,0.1321,0.8627,0.2400,0.1321,0.3000,0.0600,0.0002,0,-2.4822,-3.5000,-0.0010,-2.4822,-3.5000,-0.0010,44.3284,-7.8867,0.0200,0.0000
-7.0742,44.0010,-2.4052,-0.0000,0.0821,0.1200,0.0000,0.0000,0.0000,0.1222,-0.3795,-0.0038,996,1502,1500,1500,1000,1000,1505,1000,1000,1586,1005,1000,1014,-0.1026,-0.0678,0.0956,-0.0223,-0.0012,1.0054,0.4979,0.2611,-0.5055,-0.2535,0.8627,0.2400,0.1321,0.8627,0.2400,0.1321,0.3000,0.0600,0.0002,0,-2.4822,-3.5000,-0.0010,-2.4822,-3.5000,-0.0010,44.2928,-7.8786,0.0200,0.0000
-7.0650,43.9634,-2.3974,-0.0829,0.0821,0.1200,0.0000,0.0000,0.0000,0.1221,-0.3792,-0.0038,996,1502,1500,1500,1000,1000,1505,1000,1000,1586,1005,1000,1014,-0.0900,-0.0653,0.0967,-0.0216,-0.0048,1.0073,0.4975,0.2609,-0.5051,-0.2533,0.8627,0.2400,0.1321,0.8627,0.2400,0.1321,0.3000,0.0600,0.0002,0,-2.4822,-3.5000,-0.0010,-2.4822,-3.5000,-0.0010,44.2579,-7.8711,0.0200,0.0000
-7.0553,43.9260,-2.3889,-0.0000,0.0000,0.1200,0.0000,0.0000,0.0000,0.1220,-0.3788,-0.0038,996,1502,1500,1500,1000,1000,1505,1000,1000,1586,1005,1000,1014,-0.1086,-0.1108,0.1335,-0.0221,-0.0052,1.0065,0.4970,0.2606,-0.5047,-0.2529,0.8627,0.2400,0.1321,0.8627,0.2400,0.1321,0.3000,0.0600,0.0002,0,-2.4822,-3.5000,-0.0010,-2.4822,-3.5000,-0.0010,44.2226,-7.8632,0.0200,0.0000
-7.0457,43.8886,-2.3807,-0.0000,0.0821,0.1200,0.0000,0.0000,0.0000,0.1219,-0.3786,-0.0038,996,1502,1500,1500,1000,1000,1505,1000,1000,1586,1005,1000,1014,-0.0578,-0.0437,0.1051,-0.0218,-0.0011,1.0068,0.4967,0.2605,-0.5043,-0.2529,0.8627,0.2400,0.1321,0.8627,0.2400,0.1321,0.3000,0.0600,0.0002,0,-2.4822,-3.5000,-0.0010,-2.4822,-3.5000,-0.0010,44.1872,-7.8551,0.0200,0.0000
-7.0366,43.8509,-2.3733,-0.0000,0.0821,0.1800,0.0000,0.0000,0.0000,0.1223,-0.3781,-0.0047,996,1502,1500,1500,1000,1000,1505,1000,1000,1586,1005,1000,1014,-0.0326,-0.1259,0.0909,-0.0215,-0.0025,1.0064,0.4957,0.2606,-0.5052,-0.2511,0.8627,0.2400,0.1321,0.8627,0.2400,0.1321,0.3000,0.0600,0.0002,0,-2.4822,-3.5000,-0.0010,-2.4822,-3.5000,-0.0010,44.1522,-7.8474,0.0300,0.0000
-7.0275,43.8133,-2.3659,-0.0000,0.1642,0.1200,0.0000,0.0000,0.0000,0.1218,-0.3778,-0.0037,996,1502,1500,1500,1000,1000,1505,1000,1000,1586,1005,1000,1014,-0.0983,-0.1047,0.0692,-0.0236,-0.0049,1.0058,0.4959,0.2598,-0.5034,-0.2523,0.8627,0.2400,0.1321,0.8627,0.2400,0.1321,0.3000,0.0600,0.0002,0,-2.4822,-3.5000,-0.0010,-2.4822,-3.5000,-0.0010,44.1167,-7.8398,0.0200,0.0000
-7.0180,43.7758,-2.3580,-0.0000,0.0821,0.1200,0.0000,0.0000,0.0000,0.1217,-0.3775,-0.0039,996,1502,1500,1500,1000,1000,1505,1000,1000,1586,1005,1000,1014,-0.0751,-0.0930,0.1304,-0.0209,-0.0022,1.0023,0.4953,0.2597,-0.5031,-0.2520,0.8627,0.2400,0.1321,0.8627,0.2400,0.1321,0.3000,0.0600,0.0002,0,-2.4822,-3.5000,-0.0010,-2.4822,-3.5000,-0.0010,44.0811,-7.8321,0.0200,0.0000
-7.0089,43.7386,-2.3502,-0.1657,-0.0821,0.1200,0.0000,0.0000,0.0000,0.1216,-0.3773,-0.0037,996,1502,1500,1500,1000,1000,1505,1000,1000,1586,1005,1000,1014,-0.1036,-0.0524,0.0829,-0.0222,-0.0023,1.0062,0.4952,0.2594,-0.5026,-0.2519,0.8627,0.2400,0.1321,0.8627,0.2400,0.1321,0.3000,0.0600,0.0002,0,-2.4822,-3.5000,-0.0010,-2.4822,-3.5000,-0.0010,44.0457,-7.8238,0.0200,0.0000
-6.9998,43.7012,-2.3424,-0.0829,0.0000,0.1200,0.0000,0.0000,0.0000,0.1215,-0.3769,-0.0038,996,1502,1500,1500,1000,1000,1505,1000,1000,1586,1005,1000,1014,-0.0895,-0.0991,0.0986,-0.0217,0.0004,1.0048,0.4946,0.2591,-0.5022,-0.2515,0.8627,0.2400,0.1321,0.8627,0.2400,0.1321,0.3000,0.0600,0.0002,0,-2.4822,-3.5000,-0.0010,-2.4822,-3.5000,-0.0010,44.0103,-7.8153,0.0200,0.0000
-6.9903,43.6640,-2.3344,-0.1657,-0.2462,0.1200,0.0000,0.0000,0.0000,0.1215,-0.3767,-0.0039,996,1502,1500,1500,1000,1000,1505,1000,1000,1586,1005,1000,1014,-0.0873,0.0154,0.1392,-0.0198,-0.0028,1.0049,0.4942,0.2592,-0.5021,-0.2513,0.8627,0.2400,0.1321,0.8627,0.2400,0.1321,0.3000,0.0600,0.0002,0,-2.4822,-3.5000,-0.0010,-2.4822,-3.5000,-0.0010,43.9747,-7.8074,0.0200,0.0000
-6.9801,43.6268,-2.3256,-0.0000,0.0821,0.1800,0.0000,0.0000,0.0000,0.1219,-0.3763,-0.0041,996,1502,1500,1500,1000,1000,1505,1000,1000,1586,1005,1000,1014,-0.0900,-0.0774,0.2159,-0.0235,0.0000,1.0066,0.4940,0.2585,-0.5023,-0.2502,0.8627,0.2400,0.1321,0.8627,0.2400,0.1321,0.3000,0.0600,0.0002,0,-2.4822,-3.5000,-0.0010,-2.4822,-3.5000,-0.0010,43.9392,-7.7994,0.0300,0.0000
-6.9698,43.5894,-2.3169,-0.0829,0.0821,0.1200,0.0000,0.0000,0.0000,0.1212,-0.3760,-0.0039,996,1502,1500,1500,1000,1000,1505,1000,1000,1586,1005,1000,1014,0.0050,-0.0642,0.1474,-0.0221,-0.0023,1.0037,0.4932,0.2588,-0.5011,-0.2509,0.8627,0.2400,0.1321,0.8627,0.2400,0.1321,0.3000,0.0600,0.0002,0,-2.4822,-3.5000,-0.0010,-2.4822,-3.5000,-0.0010,43.9037,-7.7914,0.0200,0.0000
-6.9596,43.5518,-2.3086,-0.0000,0.0821,0.1200,0.0000,0.0000,0.0000,0.1212,-0.3756,-0.0040,996,1502,1500,1500,1000,1000,1505,1000,1000,1586,1005,1000,1014,-0.0649,-0.0775,0.1780,-0.0215,-0.0023,1.0053,0.4927,0.2585,-0.5008,-0.2504,0.8627,0.2400,0.1321,0.8627,0.2400,0.1321,0.3000,0.0600,0.0002,0,-2.4822,-3.5000,-0.0010,-2.4822,-3.5000,-0.0010,43.8682,-7.7834,0.0200,0.0000
-6.9499,43.5143,-2.3002,-0.0000,0.0000,0.1200,0.0000,0.0000,0.0000,0.1211,-0.3753,-0.0037,996,1502,1500,1500,1000,1000,1505,1000,1000,1586,1005,1000,1014,-0.1176,-0.0419,0.0840,-0.0228,-0.0050,1.0057,0.4928,0.2579,-0.5002,-0.2505,0.8627,0.2400,0.1321,0.8627,0.2400,0.1321,0.3000,0.0600,0.0002,0,-2.4822,-3.5000,-0.0010,-2.4822,-3.5000,-0.0010,43.8328,-7.7755,0.0200,0.0000
-6.9407,43.4771,-2.2924,-0.0829,0.0000,0.1200,0.0000,0.0000,0.0000,0.1210,-0.3750,-0.0041,996,1502,1500,1500,1000,1000,1505,1000,1000,1586,1005,1000,1014,-0.0762,-0.0257,0.1872,-0.0221,-0.0028,1.0043,0.4920,0.2581,-0.5001,-0.2500,0.8627,0.2400,0.1321,0.8627,0.2400,0.1321,0.3000,0.0600,0.0002,0,-2.4822,-3.5000,-0.0010,-2.4822,-3.5000,-0.0010,43.7978,-7.7676,0.0200,0.0000
-6.9317,43.4397,-2.2848,-0.0829,0.0821,0.1200,0.0000,0.0000,0.0000,0.1210,-0.3747,-0.0036,996,1502,1500,1500,1000,1000,1505,1000,1000,1586,1005,1000,1014,-0.0933,-0.0138,0.0683,-0.0221,-0.0028,1.0048,0.4921,0.2574,-0.4993,-0.2501,0.8627,0.2400,0.1321,0.8627,0.2400,0.1321,0.3000,0.0600,0.0002,0,-2.4822,-3.5000,-0.0010,-2.4822,-3.5000,-0.0010,43.7621,-7.7597,0.0200,0.0000
-6.9227,43.4033,-2.2770,-0.0000,0.0821,0.1800,0.0000,0.0000,0.0000,0.1215,-0.3745,-0.0050,996,1502,1500,1500,1000,1000,1505,1000,1000,1586,1005,1000,1014,-0.1479,0.0143,0.1594,-0.0224,-0.0024,1.0059,0.4910,0.2579,-0.5009,-0.2480,0.8627,0.2400,0.1321,0.8627,0.2400,0.1321,0.3000,0.0600,0.0002,0,-2.4822,-3.5000,-0.0010,-2.4822,-3.5000,-0.0010,43.7263,-7.7511,0.0300,0.0000
-6.9135,43.3657,-2.2694,-0.0829,0.0821,0.1200,0.0000,0.0000,0.0000,0.1207,-0.3740,-0.0037,996,1502,1500,1500,1000,1000,1505,1000,1000,1586,1005,1000,1014,-0.0438,-0.0543,0.0544,-0.0199,-0.0026,1.0056,0.4911,0.2570,-0.4984,-0.2497,0.8627,0.2400,0.1321,0.8627,0.2400,0.1321,0.3000,0.0600,0.0002,0,-2.4822,-3.5000,-0.0010,-2.4822,-3.5000,-0.0010,43.6907,-7.7424,0.0200,0.0000
-6.9041,43.3279,-2.2618,-0.0000,0.0821,0.1200,0.0000,0.0000,0.0000,0.1206,-0.3737,-0.0037,996,1502,1500,1500,1000,1000,1505,1000,1000,1586,1005,1000,1014,-0.0396,-0.1027,0.0678,-0.0245,-0.0009,1.0062,0.4906,0.2567,-0.4980,-0.2493,0.8627,0.2400,0.1321,0.8627,0.2400,0.1321,0.3000,0.0600,0.0002,0,-2.4822,-3.5000,-0.0010,-2.4822,-3.5000,-0.0010,43.6550,-7.7337,0.0200,0.0000
-6.8940,43.2897,-2.2540,-0.0829,0.0000,0.1200,0.0000,0.0000,0.0000,0.1206,-0.3734,-0.0038,996,1502,1500,1500,1000,1000,1505,1000,1000,1586,1005,1000,1014,-0.0447,-0.0778,0.0967,-0.0223,-0.0034,1.0081,0.4901,0.2566,-0.4977,-0.2490,0.8627,0.2400,0.1321,0.8627,0.2400,0.1321,0.3000,0.0600,0.0002,0,-2.4822,-3.5000,-0.0010,-2.4822,-3.5000,-0.0010,43.6193,-7.7246,0.0200,0.0000
-6.8844,43.2527,-2.2460,-0.0000,0.0000,0.1200,0.0000,0.0000,0.0000,0.1205,-0.3731,-0.0037,996,1502,1500,1500,1000,1000,1505,1000,1000,1586,1005,1000,1014,-0.0388,0.0005,0.1004,-0.0246,-0.0019,1.0056,0.4899,0.2564,-0.4973,-0.2490,0.8627,0.2400,0.1321,0.8627,0.2400,0.1321,0.3000,0.0600,0.0002,0,-2.4822,-3.5000,-0.0010,-2.4822,-3.5000,-0.0010,43.5837,-7.7161,0.0200,0.0000
-6.8756,43.2153,-2.2390,-0.0000,0.0000,0.1200,0.0000,0.0000,0.0000,0.1205,-0.3727,-0.0035,996,1502,1500,1500,1000,1000,1505,1000,1000,1586,1005,1000,1014,-0.1399,-0.0949,0.0339,-0.0221,-0.0018,1.0054,0.4897,0.2557,-0.4968,-0.2486,0.8627,0.2400,0.1321,0.8627,0.2400,0.1321,0.3000,0.0600,0.0002,0,-2.4822,-3.5000,-0.0010,-2.4822,-3.5000,-0.0010,43.5478,-7.7076,0.0200,0.0000
-6.8670,43.1776,-2.2320,-0.0000,0.0821,0.1800,0.0000,0.0000,0.0000,0.1209,-0.3724,-0.0047,996,1502,1500,1500,1000,1000,1505,1000,1000,1586,1005,1000,1014,-0.1145,-0.0613,0.0706,-0.0199,-0.0051,1.0029,0.4887,0.2561,-0.4980,-0.2468,0.8627,0.2400,0.1321,0.8627,0.2400,0.1321,0.3000,0.0600,0.0002,0,-2.4822,-3.5000,-0.0010,-2.4822,-3.5000,-0.0010,43.5119,-7.6996,0.0300,0.0000
-6.8580,43.1403,-2.2244,-0.0000,0.0000,0.1200,0.0000,0.0000,0.0000,0.1204,-0.3721,-0.0036,996,1502,1500,1500,1000,1000,1505,1000,1000,1586,1005,1000,1014,-0.1326,-0.0465,0.0670,-0.0232,-0.0019,1.0049,0.4889,0.2554,-0.4961,-0.2481,0.8627,0.2400,0.1321,0.8627,0.2400,0.1321,0.3000,0.0600,0.0002,0,-2.4822,-3.5000,-0.0010,-2.4822,-3.5000,-0.0010,43.4764,-7.6915,0.0200,0.0000
-6.8488,43.1026,-2.2165,-0.0000,0.0821,0.1200,0.0000,0.0000,0.0000,0.1203,-0.3717,-0.0038,996,1502,1500,1500,1000,1000,1505,1000,1000,1586,1005,1000,1014,-0.1133,-0.0990,0.1130,-0.0238,-0.0012,1.0050,0.4882,0.2553,-0.4958,-0.2476,0.8627,0.2400,0.1321,0.8627,0.2400,0.1321,0.3000,0.0600,0.0002,0,-2.4822,-3.5000,-0.0010,-2.4822,-3.5000,-0.0010,43.4406,-7.6837,0.0200,0.0000
-6.8389,43.0645,-2.2082,-0.0829,0.0821,0.1200,0.0000,0.0000,0.0000,0.1201,-0.3714,-0.0038,996,1502,1500,1500,1000,1000,1505,1000,1000,1586,1005,1000,1014,-0.0573,-0.0800,0.0894,-0.0227,-0.0033,1.0069,0.4877,0.2551,-0.4953,-0.2475,0.8627,0.2400,0.1321,0.8627,0.2400,0.1321,0.3000,0.0600,0.0002,0,-2.4822,-3.5000,-0.0010,-2.4822,-3.5000,-0.0010,43.4049,-7.6755,0.0200,0.0000
-6.8291,43.0265,-2.2001,-0.0000,-0.0821,0.1200,0.0000,0.0000,0.0000,0.1201,-0.3711,-0.0037,996,1502,1500,1500,1000,1000,1505,1000,1000,1586,1005,1000,1014,-0.1070,-0.0451,0.0808,-0.0221,-0.0013,1.0047,0.4875,0.2548,-0.4950,-0.2473,0.8627,0.2400,0.1321,0.8627,0.2400,0.1321,0.3000,0.0600,0.0002,0,-2.4822,-3.5000,-0.0010,-2.4822,-3.5000,-0.0010,43.3691,-7.6673,0.0200,0.0000
-6.8199,42.9889,-2.1919,-0.0000,-0.0821,0.1200,0.0000,0.0000,0.0000,0.1200,-0.3707,-0.0040,996,1502,1500,1500,1000,1000,1505,1000,1000,1586,1005,1000,1014,-0.0908,-0.0958,0.1800,-0.0233,-0.0019,1.0114,0.4867,0.2548,-0.4948,-0.2467,0.8627,0.2400,0.1321,0.8627,0.2400,0.1321,0.3000,0.0600,0.0002,0,-2.4822,-3.5000,-0.0010,-2.4822,-3.5000,-0.0010,43.3335,-7.6593,0.0200,0.0000
-6.8100,42.9509,-2.1828,-0.1657,0.0000,0.1800,0.0000,0.0000,0.0000,0.1204,-0.3705,-0.0050,996,1502,1500,1500,1000,1000,1505,1000,1000,1586,1005,1000,1014,-0.0656,-0.0528,0.1671,-0.0201,-0.0036,1.0073,0.4859,0.2550,-0.4958,-0.2451,0.8627,0.2400,0.1321,0.8627,0.2400,0.1321,0.3000,0.0600,0.0002,0,-2.4822,-3.5000,-0.0010,-2.4822,-3.5000,-0.0010,43.2982,-7.6520,0.0300,0.0000
-6.8007,42.9134,-2.1750,-0.0000,0.0821,0.1200,0.0000,0.0000,0.0000,0.1198,-0.3701,-0.0038,996,1502,1500,1500,1000,1000,1505,1000,1000,1586,1005,1000,1014,-0.0869,-0.0564,0.0954,-0.0223,-0.0010,1.0087,0.4862,0.2541,-0.4938,-0.2465,0.8627,0.2400,0.1321,0.8627,0.2400,0.1321,0.3000,0.0600,0.0002,0,-2.4822,-3.5000,-0.0010,-2.4822,-3.5000,-0.0010,43.2625,-7.6437,0.0200,0.0000
-6.7915,42.8762,-2.1671,-0.1657,-0.1642,0.1200,0.0000,0.0000,0.0000,0.1198,-0.3699,-0.0038,996,1502,1500,1500,1000,1000,1505,1000,1000,1586,1005,1000,1014,-0.0956,-0.0318,0.1088,-0.0215,-0.0013,1.0075,0.4858,0.2539,-0.4934,-0.2463,0.8627,0.2400,0.1321,0.8627,0.2400,0.1321,0.3000,0.0600,0.0002,0,-2.4822,-3.5000,-0.0010,-2.4822,-3.5000,-0.0010,43.2262,-7.6355,0.0200,0.0000
-6.7827,42.8388,-2.1594,-0.0829,0.0000,0.1200,0.0000,0.0000,0.0000,0.1197,-0.3695,-0.0038,996,1502,1500,1500,1000,1000,1505,1000,1000,1586,1005,1000,1014,-0.1440,-0.0269,0.1084,-0.0224,-0.0012,1.0048,0.4855,0.2536,-0.4931,-0.2460,0.8627,0.2400,0.1321,0.8627,0.2400,0.1321,0.3000,0.0600,0.0002,0,-2.4822,-3.5000,-0.0010,-2.4822,-3.5000,-0.0010,43.1905,-7.6273,0.0200,0.0000
-6.7738,42.8009,-2.1518,-0.0000,0.0821,0.1200,0.0000,0.0000,0.0000,0.1196,-0.3692,-0.0040,996,1502,1500,1500,1000,1000,1505,1000,1000,1586,1005,1000,1014,-0.0780,-0.0576,0.1679,-0.0207,-0.0025,1.0087,0.4847,0.2536,-0.4928,-0.2456,0.8627,0.2400,0.1321,0.8627,0.2400,0.1321,0.3000,0.0600,0.0002,0,-2.4822,-3.5000,-0.0010,-2.4822,-3.5000,-0.0010,43.1548,-7.6188,0.0200,0.0000
-6.7646,42.7633,-2.1441,-0.0000,0.0000,0.1200,0.0000,0.0000,0.0000,0.1195,-0.3689,-0.0038,996,1502,1500,1500,1000,1000,1505,1000,1000,1586,1005,1000,1014,-0.0851,-0.0427,0.1091,-0.0188,-0.0015,1.0052,0.4846,0.2532,-0.4922,-0.2455,0.8627,0.2400,0.1321,0.8627,0.2400,0.1321,0.3000,0.0600,0.0002,0,-2.4822,-3.5000,-0.0010,-2.4822,-3.5000,-0.0010,43.1191,-7.6104,0.0200,0.0000
-6.7549,42.7260,-2.1364,-0.0829,0.0821,0.1800,0.0000,0.0000,0.0000,0.1198,-0.3686,-0.0046,996,1502,1500,1500,1000,1000,1505,1000,1000,1586,1005,1000,1014,-0.0088,-0.0197,0.0770,-0.0258,-0.0035,1.0057,0.4838,0.2533,-0.4930,-0.2441,0.8627,0.2400,0.1321,0.8627,0.2400,0.1321,0.3000,0.0600,0.0002,0,-2.4822,-3.5000,-0.0010,-2.4822,-3.5000,-0.0010,43.0833,-7.6027,0.0300,0.0000
-6.7454,42.6879,-2.1288,0.0829,0.0000,0.1200,0.0000,0.0000,0.0000,0.1194,-0.3681,-0.0038,996,1502,1500,1500,1000,1000,1505,1000,1000,1586,1005,1000,1014,-0.1113,-0.0936,0.1101,-0.0216,-0.0022,1.0106,0.4837,0.2526,-0.4913,-0.2450,0.8627,0.2400,0.1321,0.8627,0.2400,0.1321,0.3000,0.0600,0.0002,0,-2.4822,-3.5000,-0.0010,-2.4822,-3.5000,-0.0010,43.0474,-7.5945,0.0200,0.0000
-6.7369,42.6497,-2.1217,-0.0829,0.0821,0.1200,0.0000,0.0000,0.0000,0.1193,-0.3679,-0.0038,996,1502,1500,1500,1000,1000,1505,1000,1000,1586,1005,1000,1014,-0.1475,-0.0020,0.0953,-0.0238,-0.0011,1.0064,0.4835,0.2524,-0.4911,-0.2448,0.8627,0.2400,0.1321,0.8627,0.2400,0.1321,0.3000,0.0600,0.0002,0,-2.4822,-3.5000,-0.0010,-2.4822,-3.5000,-0.0010,43.0113,-7.5863,0.0200,0.0000
-6.7282,42.6128,-2.1143,-0.0829,0.0821,0.1200,0.0000,0.0000,0.0000,0.1192,-0.3676,-0.0038,996,1502,1500,1500,1000,1000,1505,1000,1000,1586,1005,1000,1014,-0.0834,0.0208,0.1036,-0.0229,-0.0016,1.0059,0.4830,0.2523,-0.4906,-0.2447,0.8627,0.2400,0.1321,0.8627,0.2400,0.1321,0.3000,0.0600,0.0002,0,-2.4822,-3.5000,-0.0010,-2.4822,-3.5000,-0.0010,42.9752,-7.5784,0.0200,0.0000
-6.7194,42.5754,-2.1071,-0.0000,0.0821,0.1200,0.0000,0.0000,0.0000,0.1192,-0.3672,-0.0038,996,1502,1500,1500,1000,1000,1505,1000,1000,1586,1005,1000,1014,-0.1211,-0.0955,0.0860,-0.0229,-0.0028,1.0074,0.4826,0.2518,-0.4901,-0.2442,0.8627,0.2400,0.1321,0.8627,0.2400,0.1321,0.3000,0.0600,0.0002,0,-2.4822,-3.5000,-0.0010,-2.4822,-3.5000,-0.0010,42.9391,-7.5703,0.0200,0.0000
-6.7099,42.5375,-2.0989,-0.0000,0.0821,0.1200,0.0000,0.0000,0.0000,0.1191,-0.3668,-0.0038,996,1502,1500,1500,1000,1000,1505,1000,1000,1586,1005,1000,1014,-0.1137,-0.1090,0.1228,-0.0227,-0.0031,1.0061,0.4821,0.2516,-0.4897,-0.2439,0.8627,0.2400,0.1321,0.8627,0.2400,0.1321,0.3000,0.0600,0.0002,0,-2.4822,-3.5000,-0.0010,-2.4822,-3.5000,-0.0010,42.9029,-7.5619,0.0200,0.0000
-6.7005,42.4993,-2.0906,-0.0000,0.0821,0.1800,0.0000,0.0000,0.0000,0.1194,-0.3665,-0.0048,996,1502,1500,1500,1000,1000,1505,1000,1000,1586,1005,1000,1014,-0.0529,-0.0864,0.1073,-0.0214,-0.0024,1.0083,0.4812,0.2519,-0.4907,-0.2423,0.8627,0.2400,0.1321,0.8627,0.2400,0.1321,0.3000,0.0600,0.0002,0,-2.4822,-3.5000,-0.0010,-2.4822,-3.5000,-0.0010,42.8677,-7.5537,0.0300,0.0000
-6.6920,42.4613,-2.0835,-0.0000,0.0000,0.1200,0.0000,0.0000,0.0000,0.1189,-0.3663,-0.0039,996,1502,1500,1500,1000,1000,1505,1000,1000,1586,1005,1000,1014,-0.1159,-0.0258,0.1176,-0.0228,-0.0034,1.0051,0.4813,0.2512,-0.4891,-0.2435,0.8627,0.2400,0.1321,0.8627,0.2400,0.1321,0.3000,0.0600,0.0002,0,-2.4822,-3.5000,-0.0010,-2.4822,-3.5000,-0.0010,42.8324,-7.5453,0.0200,0.0000
-6.6822,42.4235,-2.0746,-0.0829,0.0000,0.1200,0.0000,0.0000,0.0000,0.1188,-0.3659,-0.0042,996,1502,1500,1500,1000,1000,1505,1000,1000,1586,1005,1000,1014,-0.0693,-0.0885,0.2310,-0.0236,-0.0014,1.0090,0.4805,0.2513,-0.4888,-0.2429,0.8627,0.2400,0.1321,0.8627,0.2400,0.1321,0.3000,0.0600,0.0002,0,-2.4822,-3.5000,-0.0010,-2.4822,-3.5000,-0.0010,42.7965,-7.5366,0.0200,0.0000
-6.6723,42.3861,-2.0662,-0.0000,0.0000,0.1200,0.0000,0.0000,0.0000,0.1187,-0.3657,-0.0039,996,1502,1500,1500,1000,1000,1505,1000,1000,1586,1005,1000,1014,-0.0628,0.0281,0.1286,-0.0219,-0.0035,1.0079,0.4805,0.2509,-0.4883,-0.2431,0.8627,0.2400,0.1321,0.8627,0.2400,0.1321,0.3000,0.0600,0.0002,0,-2.4822,-3.5000,-0.0010,-2.4822,-3.5000,-0.0010,42.7600,-7.5279,0.0200,0.0000
-6.6635,42.3487,-2.0593,-0.0829,0.0821,0.1200,0.0000,0.0000,0.0000,0.1186,-0.3653,-0.0036,996,1502,1500,1500,1000,1000,1505,1000,1000,1586,1005,1000,1014,-0.0633,-0.0349,0.0234,-0.0224,-0.0004,1.0028,0.4803,0.2503,-0.4875,-0.2431,0.8627,0.2400,0.1321,0.8627,0.2400,0.1321,0.3000,0.0600,0.0002,0,-2.4822,-3.5000,-0.0010,-2.4822,-3.5000,-0.0010,42.7236,-7.5202,0.0200,0.0000
-6.6546,42.3108,-2.0520,-0.0000,0.0000,0.1200,0.0000,0.0000,0.0000,0.1186,-0.3649,-0.0037,996,1502,1500,1500,1000,1000,1505,1000,1000,1586,1005,1000,1014,-0.0982,-0.0763,0.0672,-0.0219,-0.0024,1.0079,0.4798,0.2500,-0.4872,-0.2427,0.8627,0.2400,0.1321,0.8627,0.2400,0.1321,0.3000,0.0600,0.0002,0,-2.4822,-3.5000,-0.0010,-2.4822,-3.5000,-0.0010,42.6871,-7.5121,0.0200,0.0000
-6.6459,42.2726,-2.0450,-0.0829,0.0000,0.1800,0.0000,0.0000,0.0000,0.1190,-0.3646,-0.0048,996,1502,1500,1500,1000,1000,1505,1000,1000,1586,1005,1000,1014,-0.0480,-0.0984,0.1076,-0.0195,-0.0022,1.0048,0.4787,0.2504,-0.4883,-0.2408,0.8627,0.2400,0.1321,0.8627,0.2400,0.1321,0.3000,0.0600,0.0002,0,-2.4822,-3.5000,-0.0010,-2.4822,-3.5000,-0.0010,42.6511,-7.5034,0.0300,0.0000
-6.6364,42.2342,-2.0368,-0.1657,-0.0821,0.1200,0.0000,0.0000,0.0000,0.1184,-0.3641,-0.0038,996,1502,1500,1500,1000,1000,1505,1000,1000,1586,1005,1000,1014,-0.0512,-0.1583,0.1068,-0.0219,-0.0026,1.0063,0.4787,0.2496,-0.4863,-0.2420,0.8627,0.2400,0.1321,0.8627,0.2400,0.1321,0.3000,0.0600,0.0002,0,-2.4822,-3.5000,-0.0010,-2.4822,-3.5000,-0.0010,42.6151,-7.4956,0.0200,0.0000
-6.6270,42.1959,-2.0291,-0.0829,0.0821,0.1200,0.0000,0.0000,0.0000,0.1183,-0.3640,-0.0041,996,1502,1500,1500,1000,1000,1505,1000,1000,1586,1005,1000,1014,-0.0382,-0.0481,0.1895,-0.0213,-0.0013,1.0072,0.4781,0.2498,-0.4863,-0.2416,0.8627,0.2400,0.1321,0.8627,0.2400,0.1321,0.3000,0.0600,0.0002,0,-2.4822,-3.5000,-0.0010,-2.4822,-3.5000,-0.0010,42.5787,-7.4880,0.0200,0.0000
-6.6172,42.1582,-2.0207,-0.1657,-0.0821,0.1200,0.0000,0.0000,0.0000,0.1182,-0.3636,-0.0041,996,1502,1500,1500,1000,1000,1505,1000,1000,1586,1005,1000,1014,-0.0499,-0.0941,0.1670,-0.0240,-0.0035,1.0008,0.4777,0.2494,-0.4858,-0.2413,0.8627,0.2400,0.1321,0.8627,0.2400,0.1321,0.3000,0.0600,0.0002,0,-2.4822,-3.5000,-0.0010,-2.4822,-3.5000,-0.0010,42.5431,-7.4801,0.0200,0.0000
-6.6085,42.1198,-2.0132,-0.0829,0.0821,0.1200,0.0000,0.0000,0.0000,0.1182,-0.3633,-0.0039,996,1502,1500,1500,1000,1000,1505,1000,1000,1586,1005,1000,1014,-0.1063,-0.0744,0.1040,-0.0232,-0.0031,1.0051,0.4776,0.2490,-0.4854,-0.2412,0.8627,0.2400,0.1321,0.8627,0.2400,0.1321,0.3000,0.0600,0.0002,0,-2.4822,-3.5000,-0.0010,-2.4822,-3.5000,-0.0010,42.5077,-7.4718,0.0200,0.0000
-6.5993,42.0813,-2.0056,-0.0829,0.0821,0.1200,0.0000,0.0000,0.0000,0.1181,-0.3629,-0.0040,996,1502,1500,1500,1000,1000,1505,1000,1000,1586,1005,1000,1014,-0.0733,-0.1206,0.1377,-0.0249,-0.0036,1.0107,0.4770,0.2488,-0.4849,-0.2409,0.8627,0.2400,0.1321,0.8627,0.2400,0.1321,0.3000,0.0600,0.0002,0,-2.4822,-3.5000,-0.0010,-2.4822,-3.5000,-0.0010,42.4717,-7.4639,0.0200,0.0000
-6.5898,42.0427,-1.9977,-0.0000,0.0821,0.1800,0.0000,0.0000,0.0000,0.1185,-0.3626,-0.0037,996,1502,1500,1500,1000,1000,1505,1000,1000,1586,1005,1000,1014,-0.0710,-0.1108,0.0887,-0.0214,-0.0044,1.0083,0.4773,0.2478,-0.4848,-0.2403,0.8627,0.2400,0.1321,0.8627,0.2400,0.1321,0.3000,0.0600,0.0002,0,-2.4822,-3.5000,-0.0010,-2.4822,-3.5000,-0.0010,42.4355,-7.4555,0.0300,0.0000
-6.5809,42.0045,-1.9904,-0.0000,0.0000,0.1200,0.0000,0.0000,0.0000,0.1179,-0.3623,-0.0038,996,1502,1500,1500,1000,1000,1505,1000,1000,1586,1005,1000,1014,-0.0957,-0.0528,0.1115,-0.0216,-0.0020,1.0060,0.4764,0.2482,-0.4841,-0.2405,0.8627,0.2400,0.1321,0.8627,0.2400,0.1321,0.3000,0.0600,0.0002,0,-2.4822,-3.5000,-0.0010,-2.4822,-3.5000,-0.0010,42.3997,-7.4467,0.0200,0.0000
-6.5719,41.9668,-1.9828,-0.0829,0.0821,0.1200,0.0000,0.0000,0.0000,0.1178,-0.3619,-0.0040,996,1502,1500,1500,1000,1000,1505,1000,1000,1586,1005,1000,1014,-0.0441,-0.0773,0.1557,-0.0211,-0.0022,1.0043,0.4758,0.2481,-0.4837,-0.2402,0.8627,0.2400,0.1321,0.8627,0.2400,0.1321,0.3000,0.0600,0.0002,0,-2.4822,-3.5000,-0.0010,-2.4822,-3.5000,-0.0010,42.3635,-7.4383,0.0200,0.0000
-6.5627,41.9287,-1.9749,-0.0829,0.0821,0.1200,0.0000,0.0000,0.0000,0.1178,-0.3615,-0.0040,996,1502,1500,1500,1000,1000,1505,1000,1000,1586,1005,1000,1014,-0.1012,-0.1347,0.1754,-0.0220,-0.0013,1.0038,0.4753,0.2478,-0.4834,-0.2397,0.8627,0.2400,0.1321,0.8627,0.2400,0.1321,0.3000,0.0600,0.0002,0,-2.4822,-3.5000,-0.0010,-2.4822,-3.5000,-0.0010,42.3277,-7.4292,0.0200,0.0000
-6.5537,41.8903,-1.9672,-0.0829,0.0821,0.1200,0.0000,0.0000,0.0000,0.1177,-0.3613,-0.0039,996,1502,1500,1500,1000,1000,1505,1000,1000,1586,1005,1000,1014,-0.0932,-0.0722,0.1302,-0.0215,-0.0005,1.0101,0.4751,0.2475,-0.4829,-0.2397,0.8627,0.2400,0.1321,0.8627,0.2400,0.1321,0.3000,0.0600,0.0002,0,-2.4822,-3.5000,-0.0010,-2.4822,-3.5000,-0.0010,42.2913,-7.4210,0.0200,0.0000
-6.5451,41.8519,-1.9601,-0.0000,0.0821,0.1200,0.0000,0.0000,0.0000,0.1176,-0.3609,-0.0037,996,1502,1500,1500,1000,1000,1505,1000,1000,1586,1005,1000,1014,-0.0927,-0.1272,0.0646,-0.0235,0.0002,1.0073,0.4749,0.2469,-0.4822,-0.2396,0.8627,0.2400,0.1321,0.8627,0.2400,0.1321,0.3000,0.0600,0.0002,0,-2.4822,-3.5000,-0.0010,-2.4822,-3.5000,-0.0010,42.2551,-7.4132,0.0200,0.0000
-6.5364,41.8133,-1.9528,-0.0000,0.0821,0.1800,0.0000,0.0000,0.0000,0.1180,-0.3606,-0.0049,996,1502,1500,1500,1000,1000,1505,1000,1000,1586,1005,1000,1014,-0.0529,-0.1011,0.1329,-0.0224,-0.0013,1.0064,0.4737,0.2474,-0.4835,-0.2377,0.8627,0.2400,0.1321,0.8627,0.2400,0.1321,0.3000,0.0600,0.0002,0,-2.4822,-3.5000,-0.0010,-2.4822,-3.5000,-0.0010,42.2193,-7.4047,0.0300,0.0000
-6.5272,41.7753,-1.9450,-0.0829,0.0821,0.1200,0.0000,0.0000,0.0000,0.1175,-0.3603,-0.0038,996,1502,1500,1500,1000,1000,1505,1000,1000,1586,1005,1000,1014,-0.0863,-0.0868,0.0928,-0.0210,-0.0046,1.0079,0.4739,0.2466,-0.4815,-0.2390,0.8627,0.2400,0.1321,0.8627,0.2400,0.1321,0.3000,0.0600,0.0002,0,-2.4822,-3.5000,-0.0010,-2.4822,-3.5000,-0.0010,42.1830,-7.3962,0.0200,0.0000
-6.5190,41.7370,-1.9384,-0.0000,0.0821,0.1200,0.0000,0.0000,0.0000,0.1174,-0.3600,-0.0038,996,1502,1500,1500,1000,1000,1505,1000,1000,1586,1005,1000,1014,-0.0850,-0.0643,0.0808,-0.0246,-0.0027,1.0054,0.4736,0.2464,-0.4812,-0.2388,0.8627,0.2400,0.1321,0.8627,0.2400,0.1321,0.3000,0.0600,0.0002,0,-2.4822,-3.5000,-0.0010,-2.4822,-3.5000,-0.0010,42.1465,-7.3880,0.0200,0.0000
-6.5104,41.6987,-1.9311,-0.0829,-0.0821,0.1200,0.0000,0.0000,0.0000,0.1173,-0.3597,-0.0039,996,1502,1500,1500,1000,1000,1505,1000,1000,1586,1005,1000,1014,-0.0906,-0.0069,0.1144,-0.0239,-0.0018,1.0097,0.4732,0.2463,-0.4809,-0.2385,0.8627,0.2400,0.1321,0.8627,0.2400,0.1321,0.3000,0.0600,0.0002,0,-2.4822,-3.5000,-0.0010,-2.4822,-3.5000,-0.0010,42.1105,-7.3789,0.0200,0.0000
-6.5016,41.6606,-1.9236,-0.0829,0.0000,0.1200,0.0000,0.0000,0.0000,0.1173,-0.3593,-0.0040,996,1502,1500,1500,1000,1000,1505,1000,1000,1586,1005,1000,1014,-0.1021,-0.1090,0.1264,-0.0205,-0.0005,1.0068,0.4726,0.2460,-0.4805,-0.2381,0.8627,0.2400,0.1321,0.8627,0.2400,0.1321,0.3000,0.0600,0.0002,0,-2.4822,-3.5000,-0.0010,-2.4822,-3.5000,-0.0010,42.0742,-7.3705,0.0200,0.0000
-6.4922,41.6224,-1.9152,-0.0829,0.0821,0.1200,0.0000,0.0000,0.0000,0.1172,-0.3589,-0.0039,996,1502,1500,1500,1000,1000,1505,1000,1000,1586,1005,1000,1014,-0.1076,-0.0966,0.1357,-0.0225,0.0027,1.0085,0.4722,0.2457,-0.4800,-0.2379,0.8627,0.2400,0.1321,0.8627,0.2400,0.1321,0.3000,0.0600,0.0002,0,-2.4822,-3.5000,-0.0010,-2.4822,-3.5000,-0.0010,42.0377,-7.3619,0.0200,0.0000
-6.4831,41.5844,-1.9075,-0.0000,0.0821,0.1800,0.0000,0.0000,0.0000,0.1176,-0.3587,-0.0048,996,1502,1500,1500,1000,1000,1505,1000,1000,1586,1005,1000,1014,-0.0583,-0.0084,0.0977,-0.0184,-0.0053,1.0080,0.4715,0.2459,-0.4811,-0.2364,0.8627,0.2400,0.1321,0.8627,0.2400,0.1321,0.3000,0.0600,0.0002,0,-2.4822,-3.5000,-0.0010,-2.4822,-3.5000,-0.0010,42.0014,-7.3535,0.0300,0.0000
-6.4744,41.5468,-1.9006,-0.0000,0.0821,0.1200,0.0000,0.0000,0.0000,0.1169,-0.3584,-0.0038,996,1502,1500,1500,1000,1000,1505,1000,1000,1586,1005,1000,1014,-0.0276,-0.0386,0.0960,-0.0208,-0.0052,1.0054,0.4715,0.2453,-0.4791,-0.2376,0.8627,0.2400,0.1321,0.8627,0.2400,0.1321,0.3000,0.0600,0.0002,0,-2.4822,-3.5000,-0.0010,-2.4822,-3.5000,-0.0010,41.9652,-7.3450,0.0200,0.0000
-6.4652,41.5088,-1.8935,-0.0829,0.0000,0.1200,0.0000,0.0000,0.0000,0.1169,-0.3580,-0.0039,996,1502,1500,1500,1000,1000,1505,1000,1000,1586,1005,1000,1014,-0.0578,-0.0565,0.1114,-0.0210,-0.0030,1.0082,0.4710,0.2450,-0.4788,-0.2373,0.8627,0.2400,0.1321,0.8627,0.2400,0.1321,0.3000,0.0600,0.0002,0,-2.4822,-3.5000,-0.0010,-2.4822,-3.5000,-0.0010,41.9292,-7.3370,0.0200,0.0000
-6.4557,41.4705,-1.8858,0.0829,0.0000,0.1200,0.0000,0.0000,0.0000,0.1168,-0.3578,-0.0039,996,1502,1500,1500,1000,1000,1505,1000,1000,1586,1005,1000,1014,-0.0581,-0.0076,0.1278,-0.0220,-0.0004,1.0071,0.4706,0.2449,-0.4785,-0.2370,0.8627,0.2400,0.1321,0.8627,0.2400,0.1321,0.3000,0.0600,0.0002,0,-2.4822,-3.5000,-0.0010,-2.4822,-3.5000,-0.0010,41.8932,-7.3288,0.0200,0.0000
-6.4467,41.4324,-1.8784,-0.2486,-0.1642,0.1200,0.0000,0.0000,0.0000,0.1168,-0.3574,-0.0038,996,1502,1500,1500,1000,1000,1505,1000,1000,1586,1005,1000,1014,-0.0826,-0.0634,0.1109,-0.0202,0.0003,1.0041,0.4703,0.2444,-0.4780,-0.2368,0.8627,0.2400,0.1321,0.8627,0.2400,0.1321,0.3000,0.0600,0.0002,0,-2.4822,-3.5000,-0.0010,-2.4822,-3.5000,-0.0010,41.8572,-7.3203,0.0200,0.0000
-6.4378,41.3941,-1.8708,0.0829,0.0821,0.1200,0.0000,0.0000,0.0000,0.1167,-0.3571,-0.0038,996,1502,1500,1500,1000,1000,1505,1000,1000,1586,1005,1000,1014,-0.1003,-0.0192,0.1051,-0.0223,-0.0001,1.0053,0.4700,0.2442,-0.4776,-0.2365,0.8627,0.2400,0.1321,0.8627,0.2400,0.1321,0.3000,0.0600,0.0002,0,-2.4822,-3.5000,-0.0010,-2.4822,-3.5000,-0.0010,41.8210,-7.3119,0.0200,0.0000
-6.4296,41.3563,-1.8640,-0.1657,-0.1642,0.1800,0.0000,0.0000,0.0000,0.1172,-0.3568,-0.0048,996,1502,1500,1500,1000,1000,1505,1000,1000,1586,1005,1000,1014,-0.1258,-0.0074,0.0881,-0.0208,-0.0018,1.0065,0.4692,0.2444,-0.4787,-0.2348,0.8627,0.2400,0.1321,0.8627,0.2400,0.1321,0.3000,0.0600,0.0002,0,-2.4822,-3.5000,-0.0010,-2.4822,-3.5000,-0.0010,41.7847,-7.3031,0.0300,0.0000
-6.4209,41.3182,-1.8569,-0.0829,0.0821,0.1200,0.0000,0.0000,0.0000,0.1166,-0.3563,-0.0040,996,1502,1500,1500,1000,1000,1505,1000,1000,1586,1005,1000,1014,-0.1045,-0.1056,0.1424,-0.0222,-0.0024,1.0036,0.4689,0.2437,-0.4769,-0.2358,0.8627,0.2400,0.1321,0.8627,0.2400,0.1321,0.3000,0.0600,0.0002,0,-2.4822,-3.5000,-0.0010,-2.4822,-3.5000,-0.0010,41.7487,-7.2950,0.0200,0.0000
-6.4119,41.2795,-1.8493,-0.0000,0.0821,0.1200,0.0000,0.0000,0.0000,0.1165,-0.3560,-0.0038,996,1502,1500,1500,1000,1000,1505,1000,1000,1586,1005,1000,1014,-0.1168,-0.1118,0.0956,-0.0183,-0.0008,1.0047,0.4686,0.2433,-0.4763,-0.2356,0.8627,0.2400,0.1321,0.8627,0.2400,0.1321,0.3000,0.0600,0.0002,0,-2.4822,-3.5000,-0.0010,-2.4822,-3.5000,-0.0010,41.7127,-7.2868,0.0200,0.0000
-6.4029,41.2405,-1.8417,-0.0000,0.0000,0.1200,0.0000,0.0000,0.0000,0.1163,-0.3556,-0.0040,996,1502,1500,1500,1000,1000,1505,1000,1000,1586,1005,1000,1014,-0.0284,-0.1555,0.1444,-0.0236,-0.0025,1.0141,0.4679,0.2432,-0.4759,-0.2353,0.8627,0.2400,0.1321,0.8627,0.2400,0.1321,0.3000,0.0600,0.0002,0,-2.4822,-3.5000,-0.0010,-2.4822,-3.5000,-0.0010,41.6764,-7.2783,0.0200,0.0000
-6.3939,41.2019,-1.8345,-0.0829,0.1642,0.1200,0.0000,0.0000,0.0000,0.1163,-0.3554,-0.0041,996,1502,1500,1500,1000,1000,1505,1000,1000,1586,1005,1000,1014,-0.0785,-0.0726,0.1615,-0.0218,-0.0035,1.0088,0.4676,0.2431,-0.4757,-0.2350,0.8627,0.2400,0.1321,0.8627,0.2400,0.1321,0.3000,0.0600,0.0002,0,-2.4822,-3.5000,-0.0010,-2.4822,-3.5000,-0.0010,41.6405,-7.2694,0.0200,0.0000
-6.3843,41.1632,-1.8264,-0.0829,0.0821,0.1200,0.0000,0.0000,0.0000,0.1162,-0.3549,-0.0039,996,1502,1500,1500,1000,1000,1505,1000,1000,1586,1005,1000,1014,-0.0752,-0.1248,0.1367,-0.0219,-0.0020,1.0003,0.4673,0.2426,-0.4751,-0.2348,0.8627,0.2400,0.1321,0.8627,0.2400,0.1321,0.3000,0.0600,0.0002,0,-2.4822,-3.5000,-0.0010,-2.4822,-3.5000,-0.0010,41.6044,-7.2609,0.0200,0.0000
-6.3752,41.1247,-1.8187,-0.0000,0.0000,0.1800,0.0000,0.0000,0.0000,0.1166,-0.3547,-0.0039,996,1502,1500,1500,1000,1000,1505,1000,1000,1586,1005,1000,1014,-0.0568,-0.0563,0.1208,-0.0220,-0.0017,1.0059,0.4674,0.2420,-0.4753,-0.2342,0.8627,0.2400,0.1321,0.8627,0.2400,0.1321,0.3000,0.0600,0.0002,0,-2.4822,-3.5000,-0.0010,-2.4822,-3.5000,-0.0010,41.5688,-7.2522,0.0300,0.0000
-6.3658,41.0859,-1.8111,-0.0829,0.0000,0.1200,0.0000,0.0000,0.0000,0.1160,-0.3543,-0.0038,996,1502,1500,1500,1000,1000,1505,1000,1000,1586,1005,1000,1014,-0.0444,-0.0954,0.1031,-0.0228,-0.0025,1.0071,0.4665,0.2421,-0.4742,-0.2345,0.8627,0.2400,0.1321,0.8627,0.2400,0.1321,0.3000,0.0600,0.0002,0,-2.4822,-3.5000,-0.0010,-2.4822,-3.5000,-0.0010,41.5325,-7.2438,0.0200,0.0000
-6.3571,41.0474,-1.8041,-0.0829,0.0000,0.1200,0.0000,0.0000,0.0000,0.1160,-0.3540,-0.0038,996,1502,1500,1500,1000,1000,1505,1000,1000,1586,1005,1000,1014,-0.0567,-0.0820,0.1089,-0.0210,-0.0048,1.0098,0.4661,0.2419,-0.4738,-0.2342,0.8627,0.2400,0.1321,0.8627,0.2400,0.1321,0.3000,0.0600,0.0002,0,-2.4822,-3.5000,-0.0010,-2.4822,-3.5000,-0.0010,41.4963,-7.2353,0.0200,0.0000
-6.3487,41.0092,-1.7973,-0.0829,0.0821,0.1200,0.0000,0.0000,0.0000,0.1159,-0.3537,-0.0036,996,1502,1500,1500,1000,1000,1505,1000,1000,1586,1005,1000,1014,-0.0918,-0.0580,0.0419,-0.0218,-0.0001,1.0070,0.4660,0.2414,-0.4732,-0.2342,0.8627,0.2400,0.1321,0.8627,0.2400,0.1321,0.3000,0.0600,0.0002,0,-2.4822,-3.5000,-0.0010,-2.4822,-3.5000,-0.0010,41.4606,-7.2269,0.0200,0.0000
-6.3404,40.9708,-1.7907,-0.0000,0.0000,0.1200,0.0000,0.0000,0.0000,0.1158,-0.3533,-0.0037,996,1502,1500,1500,1000,1000,1505,1000,1000,1586,1005,1000,1014,-0.0847,-0.1100,0.0666,-0.0221,-0.0048,1.0049,0.4655,0.2412,-0.4728,-0.2338,0.8627,0.2400,0.1321,0.8627,0.2400,0.1321,0.3000,0.0600,0.0002,0,-2.4822,-3.5000,-0.0010,-2.4822,-3.5000,-0.0010,41.4241,-7.2182,0.0200,0.0000
-6.3313,40.9311,-1.7831,-0.0829,0.0821,0.1200,0.0000,0.0000,0.0000,0.1158,-0.3529,-0.0039,996,1502,1500,1500,1000,1000,1505,1000,1000,1586,1005,1000,1014,-0.1044,-0.1643,0.1227,-0.0240,-0.0032,1.0030,0.4648,0.2410,-0.4726,-0.2332,0.8627,0.2400,0.1321,0.8627,0.2400,0.1321,0.3000,0.0600,0.0002,0,-2.4822,-3.5000,-0.0010,-2.4822,-3.5000,-0.0010,41.3880,-7.2095,0.0200,0.0000
-6.3229,40.8920,-1.7761,-0.0000,0.0000,0.1800,0.0000,0.0000,0.0000,0.1162,-0.3527,-0.0047,996,1502,1500,1500,1000,1000,1505,1000,1000,1586,1005,1000,1014,-0.1087,-0.0817,0.1016,-0.0263,-0.0055,1.0063,0.4642,0.2412,-0.4737,-0.2317,0.8627,0.2400,0.1321,0.8627,0.2400,0.1321,0.3000,0.0600,0.0002,0,-2.4822,-3.5000,-0.0010,-2.4822,-3.5000,-0.0010,41.3515,-7.2006,0.0300,0.0000
-6.3146,40.8530,-1.7691,-0.0829,0.0821,0.1200,0.0000,0.0000,0.0000,0.1157,-0.3523,-0.0038,996,1502,1500,1500,1000,1000,1505,1000,1000,1586,1005,1000,1014,-0.1334,-0.0906,0.0829,-0.0218,-0.0067,1.0056,0.4642,0.2404,-0.4718,-0.2328,0.8627,0.2400,0.1321,0.8627,0.2400,0.1321,0.3000,0.0600,0.0002,0,-2.4822,-3.5000,-0.0010,-2.4822,-3.5000,-0.0010,41.3152,-7.1921,0.0200,0.0000
-6.3060,40.8147,-1.7620,-0.0000,0.0000,0.1200,0.0000,0.0000,0.0000,0.1155,-0.3520,-0.0039,996,1502,1500,1500,1000,1000,1505,1000,1000,1586,1005,1000,1014,-0.0392,-0.0509,0.1090,-0.0208,-0.0038,1.0062,0.4636,0.2404,-0.4714,-0.2327,0.8627,0.2400,0.1321,0.8627,0.2400,0.1321,0.3000,0.0600,0.0002,0,-2.4822,-3.5000,-0.0010,-2.4822,-3.5000,-0.0010,41.2790,-7.1837,0.0200,0.0000
-6.2974,40.7765,-1.7549,-0.0000,0.0821,0.1200,0.0000,0.0000,0.0000,0.1155,-0.3518,-0.0038,996,1502,1500,1500,1000,1000,1505,1000,1000,1586,1005,1000,1014,-0.0800,0.0256,0.1044,-0.0229,-0.0061,1.0081,0.4634,0.2402,-0.4711,-0.2325,0.8627,0.2400,0.1321,0.8627,0.2400,0.1321,0.3000,0.0600,0.0002,0,-2.4822,-3.5000,-0.0010,-2.4822,-3.5000,-0.0010,41.2428,-7.1758,0.0200,0.0000
-6.2889,40.7386,-1.7479,-0.0829,0.0000,0.1200,0.0000,0.0000,0.0000,0.1155,-0.3513,-0.0037,996,1502,1500,1500,1000,1000,1505,1000,1000,1586,1005,1000,1014,-0.1371,-0.0981,0.0603,-0.0236,-0.0016,1.0080,0.4631,0.2396,-0.4705,-0.2321,0.8627,0.2400,0.1321,0.8627,0.2400,0.1321,0.3000,0.0600,0.0002,0,-2.4822,-3.5000,-0.0010,-2.4822,-3.5000,-0.0010,41.2062,-7.1672,0.0200,0.0000
-6.2805,40.7000,-1.7412,-0.1657,-0.1642,0.1200,0.0000,0.0000,0.0000,0.1153,-0.3510,-0.0039,996,1502,1500,1500,1000,1000,1505,1000,1000,1586,1005,1000,1014,-0.0769,-0.0787,0.1009,-0.0204,0.0019,1.0071,0.4624,0.2396,-0.4702,-0.2318,0.8627,0.2400,0.1321,0.8627,0.2400,0.1321,0.3000,0.0600,0.0002,0,-2.4822,-3.5000,-0.0010,-2.4822,-3.5000,-0.0010,41.1701,-7.1587,0.0200,0.0000
-6.2722,40.6607,-1.7339,-0.0000,0.0821,0.1800,0.0000,0.0000,0.0000,0.1158,-0.3505,-0.0048,996,1502,1500,1500,1000,1000,1505,1000,1000,1586,1005,1000,1014,-0.1344,-0.1952,0.1072,-0.0241,-0.0024,1.0073,0.4615,0.2395,-0.4712,-0.2299,0.8627,0.2400,0.1321,0.8627,0.2400,0.1321,0.3000,0.0600,0.0002,0,-2.4822,-3.5000,-0.0010,-2.4822,-3.5000,-0.0010,41.1335,-7.1498,0.0300,0.0000
-6.2636,40.6215,-1.7262,-0.1657,-0.1642,0.1200,0.0000,0.0000,0.0000,0.1152,-0.3504,-0.0041,996,1502,1500,1500,1000,1000,1505,1000,1000,1586,1005,1000,1014,-0.0767,-0.0505,0.1774,-0.0222,-0.0039,1.0038,0.4615,0.2393,-0.4696,-0.2311,0.8627,0.2400,0.1321,0.8627,0.2400,0.1321,0.3000,0.0600,0.0002,0,-2.4822,-3.5000,-0.0010,-2.4822,-3.5000,-0.0010,41.0972,-7.1412,0.0200,0.0000
-6.2548,40.5829,-1.7190,-0.0829,0.0000,0.1200,0.0000,0.0000,0.0000,0.1150,-0.3501,-0.0036,996,1502,1500,1500,1000,1000,1505,1000,1000,1586,1005,1000,1014,-0.0404,-0.0103,0.0458,-0.0224,-0.0027,1.0068,0.4615,0.2387,-0.4688,-0.2314,0.8627,0.2400,0.1321,0.8627,0.2400,0.1321,0.3000,0.0600,0.0002,0,-2.4822,-3.5000,-0.0010,-2.4822,-3.5000,-0.0010,41.0609,-7.1325,0.0200,0.0000
-6.2464,40.5445,-1.7124,-0.0829,0.0821,0.1200,0.0000,0.0000,0.0000,0.1150,-0.3497,-0.0038,996,1502,1500,1500,1000,1000,1505,1000,1000,1586,1005,1000,1014,-0.0825,-0.0462,0.0861,-0.0245,-0.0019,1.0086,0.4609,0.2385,-0.4686,-0.2309,0.8627,0.2400,0.1321,0.8627,0.2400,0.1321,0.3000,0.0600,0.0002,0,-2.4822,-3.5000,-0.0010,-2.4822,-3.5000,-0.0010,41.0240,-7.1239,0.0200,0.0000
-6.2383,40.5062,-1.7051,-0.0000,0.0000,0.1200,0.0000,0.0000,0.0000,0.1151,-0.3493,-0.0040,996,1502,1500,1500,1000,1000,1505,1000,1000,1586,1005,1000,1014,-0.1589,-0.1136,0.1479,-0.0222,-0.0012,1.0086,0.4604,0.2382,-0.4683,-0.2303,0.8627,0.2400,0.1321,0.8627,0.2400,0.1321,0.3000,0.0600,0.0002,0,-2.4822,-3.5000,-0.0010,-2.4822,-3.5000,-0.0010,40.9878,-7.1157,0.0200,0.0000
-6.2300,40.4675,-1.6977,-0.0000,0.0821,0.1200,0.0000,0.0000,0.0000,0.1149,-0.3491,-0.0039,996,1502,1500,1500,1000,1000,1505,1000,1000,1586,1005,1000,1014,-0.1132,-0.0307,0.1056,-0.0209,-0.0029,1.0078,0.4601,0.2380,-0.4679,-0.2303,0.8627,0.2400,0.1321,0.8627,0.2400,0.1321,0.3000,0.0600,0.0002,0,-2.4822,-3.5000,-0.0010,-2.4822,-3.5000,-0.0010,40.9518,-7.1074,0.0200,0.0000
-6.2213,40.4288,-1.6902,-0.0829,0.0821,0.1800,0.0000,0.0000,0.0000,0.1153,-0.3486,-0.0050,996,1502,1500,1500,1000,1000,1505,1000,1000,1586,1005,1000,1014,-0.0705,-0.1347,0.1661,-0.0209,-0.0041,1.0053,0.4589,0.2383,-0.4689,-0.2283,0.8627,0.2400,0.1321,0.8627,0.2400,0.1321,0.3000,0.0600,0.0002,0,-2.4822,-3.5000,-0.0010,-2.4822,-3.5000,-0.0010,40.9153,-7.0988,0.0300,0.0000
-6.2122,40.3899,-1.6826,-0.0000,0.0821,0.1200,0.0000,0.0000,0.0000,0.1147,-0.3484,-0.0040,996,1502,1500,1500,1000,1000,1505,1000,1000,1586,1005,1000,1014,-0.0806,-0.0373,0.1672,-0.0230,-0.0065,1.0102,0.4591,0.2377,-0.4671,-0.2296,0.8627,0.2400,0.1321,0.8627,0.2400,0.1321,0.3000,0.0600,0.0002,0,-2.4822,-3.5000,-0.0010,-2.4822,-3.5000,-0.0010,40.8788,-7.0907,0.0200,0.0000
-6.2036,40.3515,-1.6755,-0.0829,0.0821,0.1200,0.0000,0.0000,0.0000,0.1147,-0.3480,-0.0039,996,1502,1500,1500,1000,1000,1505,1000,1000,1586,1005,1000,1014,-0.0859,-0.0575,0.1188,-0.0222,-0.0031,1.0068,0.4588,0.2373,-0.4666,-0.2295,0.8627,0.2400,0.1321,0.8627,0.2400,0.1321,0.3000,0.0600,0.0002,0,-2.4822,-3.5000,-0.0010,-2.4822,-3.5000,-0.0010,40.8423,-7.0830,0.0200,0.0000
-6.1947,40.3129,-1.6676,-0.0000,0.0821,0.1200,0.0000,0.0000,0.0000,0.1145,-0.3477,-0.0040,996,1502,1500,1500,1000,1000,1505,1000,1000,1586,1005,1000,1014,-0.0463,-0.0685,0.1683,-0.0213,-0.0017,1.0079,0.4582,0.2372,-0.4663,-0.2291,0.8627,0.2400,0.1321,0.8627,0.2400,0.1321,0.3000,0.0600,0.0002,0,-2.4822,-3.5000,-0.0010,-2.4822,-3.5000,-0.0010,40.8054,-7.0749,0.0200,0.0000
-6.1853,40.2745,-1.6598,-0.0000,0.0821,0.1200,0.0000,0.0000,0.0000,0.1145,-0.3474,-0.0039,996,1502,1500,1500,1000,1000,1505,1000,1000,1586,1005,1000,1014,-0.0516,-0.0302,0.1284,-0.0207,-0.0029,1.0050,0.4580,0.2368,-0.4658,-0.2290,0.8627,0.2400,0.1321,0.8627,0.2400,0.1321,0.3000,0.0600,0.0002,0,-2.4822,-3.5000,-0.0010,-2.4822,-3.5000,-0.0010,40.7686,-7.0664,0.0200,0.0000
-6.1767,40.2357,-1.6532,-0.0000,0.0821,0.1200,0.0000,0.0000,0.0000,0.1144,-0.3470,-0.0037,996,1502,1500,1500,1000,1000,1505,1000,1000,1586,1005,1000,1014,-0.0691,-0.1173,0.0413,-0.0204,0.0008,1.0057,0.4577,0.2362,-0.4651,-0.2289,0.8627,0.2400,0.1321,0.8627,0.2400,0.1321,0.3000,0.0600,0.0002,0,-2.4822,-3.5000,-0.0010,-2.4822,-3.5000,-0.0010,40.7315,-7.0576,0.0200,0.0000
-6.1675,40.1966,-1.6467,-0.0000,0.0821,0.1800,0.0000,0.0000,0.0000,0.1147,-0.3466,-0.0037,996,1502,1500,1500,1000,1000,1505,1000,1000,1586,1005,1000,1014,0.0346,-0.0962,0.0559,-0.0215,-0.0009,1.0080,0.4577,0.2356,-0.4651,-0.2282,0.8627,0.2400,0.1321,0.8627,0.2400,0.1321,0.3000,0.0600,0.0002,0,-2.4822,-3.5000,-0.0010,-2.4822,-3.5000,-0.0010,40.6946,-7.0494,0.0300,0.0000
-6.1585,40.1578,-1.6399,-0.0829,0.0821,0.1200,0.0000,0.0000,0.0000,0.1144,-0.3463,-0.0041,996,1502,1500,1500,1000,1000,1505,1000,1000,1586,1005,1000,1014,-0.1437,-0.0955,0.1840,-0.0222,0.0006,1.0071,0.4566,0.2361,-0.4648,-0.2278,0.8627,0.2400,0.1321,0.8627,0.2400,0.1321,0.3000,0.0600,0.0002,0,-2.4822,-3.5000,-0.0010,-2.4822,-3.5000,-0.0010,40.6585,-7.0404,0.0200,0.0000
-6.1500,40.1195,-1.6325,-0.0829,0.0000,0.1200,0.0000,0.0000,0.0000,0.1143,-0.3461,-0.0038,996,1502,1500,1500,1000,1000,1505,1000,1000,1586,1005,1000,1014,-0.1352,-0.0147,0.1001,-0.0236,-0.0014,1.0029,0.4565,0.2357,-0.4642,-0.2280,0.8627,0.2400,0.1321,0.8627,0.2400,0.1321,0.3000,0.0600,0.0002,0,-2.4822,-3.5000,-0.0010,-2.4822,-3.5000,-0.0010,40.6225,-7.0312,0.0200,0.0000
-6.1418,40.0807,-1.6256,-0.0829,0.0000,0.1200,0.0000,0.0000,0.0000,0.1141,-0.3456,-0.0039,996,1502,1500,1500,1000,1000,1505,1000,1000,1586,1005,1000,1014,-0.0742,-0.1024,0.1130,-0.0196,0.0006,1.0070,0.4559,0.2354,-0.4636,-0.2276,0.8627,0.2400,0.1321,0.8627,0.2400,0.1321,0.3000,0.0600,0.0002,0,-2.4822,-3.5000,-0.0010,-2.4822,-3.5000,-0.0010,40.5855,-7.0220,0.0200,0.0000
-6.1327,40.0416,-1.6183,-0.0829,0.0821,0.1200,0.0000,0.0000,0.0000,0.1140,-0.3453,-0.0040,996,1502,1500,1500,1000,1000,1505,1000,1000,1586,1005,1000,1014,-0.0743,-0.1176,0.1409,-0.0247,-0.0025,1.0042,0.4554,0.2352,-0.4633,-0.2273,0.8627,0.2400,0.1321,0.8627,0.2400,0.1321,0.3000,0.0600,0.0002,0,-2.4822,-3.5000,-0.0010,-2.4822,-3.5000,-0.0010,40.5489,-7.0129,0.0200,0.0000
-6.1241,40.0022,-1.6111,-0.0829,0.0821,0.1200,0.0000,0.0000,0.0000,0.1140,-0.3450,-0.0038,996,1502,1500,1500,1000,1000,1505,1000,1000,1586,1005,1000,1014,-0.0854,-0.1040,0.0851,-0.0231,-0.0020,1.0020,0.4552,0.2348,-0.4627,-0.2272,0.8627,0.2400,0.1321,0.8627,0.2400,0.1321,0.3000,0.0600,0.0002,0,-2.4822,-3.5000,-0.0010,-2.4822,-3.5000,-0.0010,40.5123,-7.0032,0.0200,0.0000
-6.1158,39.9629,-1.6046,-0.1657,-0.0821,0.1800,0.0000,0.0000,0.0000,0.1144,-0.3447,-0.0038,996,1502,1500,1500,1000,1000,1505,1000,1000,1586,1005,1000,1014,-0.0757,-0.0205,0.0736,-0.0218,-0.0030,1.0065,0.4553,0.2341,-0.4630,-0.2265,0.8627,0.2400,0.1321,0.8627,0.2400,0.1321,0.3000,0.0600,0.0002,0,-2.4822,-3.5000,-0.0010,-2.4822,-3.5000,-0.0010,40.4755,-6.9940,0.0300,0.0000
-6.1073,39.9244,-1.5973,-0.0829,0.0821,0.1200,0.0000,0.0000,0.0000,0.1138,-0.3443,-0.0043,996,1502,1500,1500,1000,1000,1505,1000,1000,1586,1005,1000,1014,-0.0712,-0.0631,0.2375,-0.0227,-0.0031,1.0052,0.4539,0.2348,-0.4624,-0.2263,0.8627,0.2400,0.1321,0.8627,0.2400,0.1321,0.3000,0.0600,0.0002,0,-2.4822,-3.5000,-0.0010,-2.4822,-3.5000,-0.0010,40.4390,-6.9856,0.0200,0.0000
-6.0984,39.8861,-1.5902,-0.2486,-0.1642,0.1200,0.0000,0.0000,0.0000,0.1137,-0.3440,-0.0039,996,1502,1500,1500,1000,1000,1505,1000,1000,1586,1005,1000,1014,-0.0769,-0.0566,0.1033,-0.0210,-0.0012,1.0028,0.4539,0.2341,-0.4616,-0.2264,0.8627,0.2400,0.1321,0.8627,0.2400,0.1321,0.3000,0.0600,0.0002,0,-2.4822,-3.5000,-0.0010,-2.4822,-3.5000,-0.0010,40.4024,-6.9766,0.0200,0.0000
-6.0896,39.8471,-1.5831,-0.0000,-0.1642,0.1200,0.0000,0.0000,0.0000,0.1136,-0.3436,-0.0039,996,1502,1500,1500,1000,1000,1505,1000,1000,1586,1005,1000,1014,-0.0420,-0.1293,0.1220,-0.0217,-0.0014,1.0076,0.4533,0.2339,-0.4612,-0.2260,0.8627,0.2400,0.1321,0.8627,0.2400,0.1321,0.3000,0.0600,0.0002,0,-2.4822,-3.5000,-0.0010,-2.4822,-3.5000,-0.0010,40.3660,-6.9681,0.0200,0.0000
-6.0807,39.8082,-1.5761,-0.1657,-0.1642,0.1200,0.0000,0.0000,0.0000,0.1136,-0.3434,-0.0040,996,1502,1500,1500,1000,1000,1505,1000,1000,1586,1005,1000,1014,-0.0868,-0.0388,0.1474,-0.0239,0.0013,1.0080,0.4530,0.2338,-0.4610,-0.2258,0.8627,0.2400,0.1321,0.8627,0.2400,0.1321,0.3000,0.0600,0.0002,0,-2.4822,-3.5000,-0.0010,-2.4822,-3.5000,-0.0010,40.3293,-6.9600,0.0200,0.0000
-6.0714,39.7690,-1.5684,-0.0000,0.0000,0.1200,0.0000,0.0000,0.0000,0.1135,-0.3430,-0.0040,996,1502,1500,1500,1000,1000,1505,1000,1000,1586,1005,1000,1014,-0.0301,-0.0918,0.1460,-0.0236,-0.0013,1.0059,0.4524,0.2335,-0.4604,-0.2255,0.8627,0.2400,0.1321,0.8627,0.2400,0.1321,0.3000,0.0600,0.0002,0,-2.4822,-3.5000,-0.0010,-2.4822,-3.5000,-0.0010,40.2928,-6.9517,0.0200,0.0000
-6.0626,39.7292,-1.5616,-0.1657,0.0821,0.1800,0.0000,0.0000,0.0000,0.1140,-0.3425,-0.0047,996,1502,1500,1500,1000,1000,1505,1000,1000,1586,1005,1000,1014,-0.0999,-0.1593,0.0671,-0.0216,-0.0010,1.0020,0.4518,0.2333,-0.4612,-0.2238,0.8627,0.2400,0.1321,0.8627,0.2400,0.1321,0.3000,0.0600,0.0002,0,-2.4822,-3.5000,-0.0010,-2.4822,-3.5000,-0.0010,40.2560,-6.9436,0.0300,0.0000
-6.0548,39.6900,-1.5552,-0.0000,0.0000,0.1200,0.0000,0.0000,0.0000,0.1135,-0.3423,-0.0037,996,1502,1500,1500,1000,1000,1505,1000,1000,1586,1005,1000,1014,-0.1394,-0.0980,0.0676,-0.0239,-0.0009,1.0059,0.4520,0.2326,-0.4595,-0.2251,0.8627,0.2400,0.1321,0.8627,0.2400,0.1321,0.3000,0.0600,0.0002,0,-2.4822,-3.5000,-0.0010,-2.4822,-3.5000,-0.0010,40.2195,-6.9349,0.0200,0.0000
-6.0466,39.6512,-1.5486,-0.0000,0.0821,0.1200,0.0000,0.0000,0.0000,0.1133,-0.3420,-0.0040,996,1502,1500,1500,1000,1000,1505,1000,1000,1586,1005,1000,1014,-0.0793,-0.0586,0.1361,-0.0222,-0.0035,1.0047,0.4513,0.2327,-0.4593,-0.2247,0.8627,0.2400,0.1321,0.8627,0.2400,0.1321,0.3000,0.0600,0.0002,0,-2.4822,-3.5000,-0.0010,-2.4822,-3.5000,-0.0010,40.1827,-6.9257,0.0200,0.0000
-6.0379,39.6117,-1.5413,0.0829,0.0000,0.1200,0.0000,0.0000,0.0000,0.1132,-0.3416,-0.0039,996,1502,1500,1500,1000,1000,1505,1000,1000,1586,1005,1000,1014,-0.0893,-0.0788,0.1114,-0.0235,-0.0033,1.0042,0.4510,0.2322,-0.4587,-0.2245,0.8627,0.2400,0.1321,0.8627,0.2400,0.1321,0.3000,0.0600,0.0002,0,-2.4822,-3.5000,-0.0010,-2.4822,-3.5000,-0.0010,40.1460,-6.9167,0.0200,0.0000
-6.0297,39.5724,-1.5346,-0.0829,0.0821,0.1200,0.0000,0.0000,0.0000,0.1132,-0.3413,-0.0040,996,1502,1500,1500,1000,1000,1505,1000,1000,1586,1005,1000,1014,-0.0917,-0.0962,0.1613,-0.0212,-0.0014,1.0081,0.4504,0.2321,-0.4585,-0.2241,0.8627,0.2400,0.1321,0.8627,0.2400,0.1321,0.3000,0.0600,0.0002,0,-2.4822,-3.5000,-0.0010,-2.4822,-3.5000,-0.0010,40.1098,-6.9080,0.0200,0.0000
-6.0205,39.5336,-1.5272,-0.0000,0.0821,0.1200,0.0000,0.0000,0.0000,0.1130,-0.3410,-0.0040,996,1502,1500,1500,1000,1000,1505,1000,1000,1586,1005,1000,1014,-0.0089,-0.0687,0.1538,-0.0199,-0.0030,1.0041,0.4499,0.2320,-0.4580,-0.2240,0.8627,0.2400,0.1321,0.8627,0.2400,0.1321,0.3000,0.0600,0.0002,0,-2.4822,-3.5000,-0.0010,-2.4822,-3.5000,-0.0010,40.0736,-6.8997,0.0200,0.0000
-6.0111,39.4950,-1.5194,-0.0000,0.0821,0.1800,0.0000,0.0000,0.0000,0.1135,-0.3407,-0.0048,996,1502,1500,1500,1000,1000,1505,1000,1000,1586,1005,1000,1014,-0.0597,-0.0402,0.1161,-0.0229,-0.0028,1.0040,0.4493,0.2320,-0.4590,-0.2224,0.8627,0.2400,0.1321,0.8627,0.2400,0.1321,0.3000,0.0600,0.0002,0,-2.4822,-3.5000,-0.0010,-2.4822,-3.5000,-0.0010,40.0369,-6.8916,0.0300,0.0000
-6.0026,39.4554,-1.5125,-0.0000,0.0000,0.1200,0.0000,0.0000,0.0000,0.1129,-0.3402,-0.0038,996,1502,1500,1500,1000,1000,1505,1000,1000,1586,1005,1000,1014,-0.0557,-0.1353,0.0663,-0.0250,-0.0026,1.0047,0.4493,0.2311,-0.4568,-0.2236,0.8627,0.2400,0.1321,0.8627,0.2400,0.1321,0.3000,0.0600,0.0002,0,-2.4822,-3.5000,-0.0010,-2.4822,-3.5000,-0.0010,40.0003,-6.8826,0.0200,0.0000
-5.9937,39.4164,-1.5051,-0.0829,0.0821,0.1200,0.0000,0.0000,0.0000,0.1128,-0.3400,-0.0041,996,1502,1500,1500,1000,1000,1505,1000,1000,1586,1005,1000,1014,-0.0800,-0.0406,0.1869,-0.0253,-0.0037,1.0067,0.4487,0.2313,-0.4570,-0.2230,0.8627,0.2400,0.1321,0.8627,0.2400,0.1321,0.3000,0.0600,0.0002,0,-2.4822,-3.5000,-0.0010,-2.4822,-3.5000,-0.0010,39.9636,-6.8741,0.0200,0.0000
-5.9849,39.3767,-1.4977,-0.0000,0.0000,0.1200,0.0000,0.0000,0.0000,0.1128,-0.3396,-0.0040,996,1502,1500,1500,1000,1000,1505,1000,1000,1586,1005,1000,1014,-0.0858,-0.0969,0.1404,-0.0213,-0.0004,1.0041,0.4484,0.2308,-0.4563,-0.2228,0.8627,0.2400,0.1321,0.8627,0.2400,0.1321,0.3000,0.0600,0.0002,0,-2.4822,-3.5000,-0.0010,-2.4822,-3.5000,-0.0010,39.9264,-6.8656,0.0200,0.0000
-5.9766,39.3379,-1.4908,-0.0000,0.0000,0.1200,0.0000,0.0000,0.0000,0.1128,-0.3394,-0.0039,996,1502,1500,1500,1000,1000,1505,1000,1000,1586,1005,1000,1014,-0.1184,-0.0091,0.1140,-0.0264,-0.0021,1.0074,0.4482,0.2305,-0.4560,-0.2227,0.8627,0.2400,0.1321,0.8627,0.2400,0.1321,0.3000,0.0600,0.0002,0,-2.4822,-3.5000,-0.0010,-2.4822,-3.5000,-0.0010,39.8896,-6.8567,0.0200,0.0000
-5.9685,39.2994,-1.4841,-0.0829,0.0000,0.1200,0.0000,0.0000,0.0000,0.1126,-0.3391,-0.0038,996,1502,1500,1500,1000,1000,1505,1000,1000,1586,1005,1000,1014,-0.0699,0.0435,0.0630,-0.0215,-0.0008,1.0057,0.4480,0.2302,-0.4555,-0.2227,0.8627,0.2400,0.1321,0.8627,0.2400,0.1321,0.3000,0.0600,0.0002,0,-2.4822,-3.5000,-0.0010,-2.4822,-3.5000,-0.0010,39.8532,-6.8485,0.0200,0.0000
-5.9601,39.2612,-1.4778,-0.0000,0.0821,0.1800,0.0000,0.0000,0.0000,0.1130,-0.3386,-0.0047,996,1502,1500,1500,1000,1000,1505,1000,1000,1586,1005,1000,1014,-0.0407,-0.0893,0.0857,-0.0242,-0.0014,1.0056,0.4469,0.2303,-0.4563,-0.2208,0.8627,0.2400,0.1321,0.8627,0.2400,0.1321,0.3000,0.0600,0.0002,0,-2.4822,-3.5000,-0.0010,-2.4822,-3.5000,-0.0010,39.8165,-6.8399,0.0300,0.0000
-5.9517,39.2223,-1.4713,-0.0000,0.0821,0.1200,0.0000,0.0000,0.0000,0.1125,-0.3383,-0.0039,996,1502,1500,1500,1000,1000,1505,1000,1000,1586,1005,1000,1014,-0.0958,-0.0181,0.1245,-0.0201,-0.0020,1.0061,0.4469,0.2298,-0.4548,-0.2219,0.8627,0.2400,0.1321,0.8627,0.2400,0.1321,0.3000,0.0600,0.0002,0,-2.4822,-3.5000,-0.0010,-2.4822,-3.5000,-0.0010,39.7797,-6.8311,0.0200,0.0000
-5.9435,39.1836,-1.4647,-0.0000,0.0821,0.1200,0.0000,0.0000,0.0000,0.1124,-0.3380,-0.0039,996,1502,1500,1500,1000,1000,1505,1000,1000,1586,1005,1000,1014,-0.0832,-0.0275,0.1039,-0.0193,-0.0025,1.0066,0.4466,0.2294,-0.4543,-0.2217,0.8627,0.2400,0.1321,0.8627,0.2400,0.1321,0.3000,0.0600,0.0002,0,-2.4822,-3.5000,-0.0010,-2.4822,-3.5000,-0.0010,39.7430,-6.8222,0.0200,0.0000
-5.9352,39.1441,-1.4582,-0.1657,-0.0821,0.1200,0.0000,0.0000,0.0000,0.1123,-0.3375,-0.0039,996,1502,1500,1500,1000,1000,1505,1000,1000,1586,1005,1000,1014,-0.0562,-0.1159,0.1163,-0.0162,-0.0035,1.0062,0.4459,0.2291,-0.4538,-0.2213,0.8627,0.2400,0.1321,0.8627,0.2400,0.1321,0.3000,0.0600,0.0002,0,-2.4822,-3.5000,-0.0010,-2.4822,-3.5000,-0.0010,39.7059,-6.8135,0.0200,0.0000
-5.9269,39.1045,-1.4518,-0.1657,0.0821,0.1200,0.0000,0.0000,0.0000,0.1122,-0.3373,-0.0040,996,1502,1500,1500,1000,1000,1505,1000,1000,1586,1005,1000,1014,-0.0552,-0.0766,0.1338,-0.0230,-0.0006,1.0033,0.4455,0.2290,-0.4535,-0.2210,0.8627,0.2400,0.1321,0.8627,0.2400,0.1321,0.3000,0.0600,0.0002,0,-2.4822,-3.5000,-0.0010,-2.4822,-3.5000,-0.0010,39.6692,-6.8046,0.0200,0.0000
-5.9183,39.0648,-1.4451,-0.1657,-0.0821,0.1200,0.0000,0.0000,0.0000,0.1121,-0.3369,-0.0038,996,1502,1500,1500,1000,1000,1505,1000,1000,1586,1005,1000,1014,-0.0207,-0.1221,0.0739,-0.0203,0.0002,1.0023,0.4452,0.2285,-0.4527,-0.2210,0.8627,0.2400,0.1321,0.8627,0.2400,0.1321,0.3000,0.0600,0.0002,0,-2.4822,-3.5000,-0.0010,-2.4822,-3.5000,-0.0010,39.6329,-6.7955,0.0200,0.0000
-5.9102,39.0254,-1.4386,-0.1657,-0.0821,0.1800,0.0000,0.0000,0.0000,0.1127,-0.3366,-0.0039,996,1502,1500,1500,1000,1000,1505,1000,1000,1586,1005,1000,1014,-0.1035,-0.0440,0.1113,-0.0204,-0.0019,1.0056,0.4454,0.2278,-0.4532,-0.2200,0.8627,0.2400,0.1321,0.8627,0.2400,0.1321,0.3000,0.0600,0.0002,0,-2.4822,-3.5000,-0.0010,-2.4822,-3.5000,-0.0010,39.5965,-6.7866,0.0300,0.0000
-5.9018,38.9869,-1.4319,-0.0000,0.0821,0.1200,0.0000,0.0000,0.0000,0.1120,-0.3364,-0.0040,996,1502,1500,1500,1000,1000,1505,1000,1000,1586,1005,1000,1014,-0.0544,0.0338,0.1255,-0.0249,-0.0004,1.0043,0.4444,0.2283,-0.4524,-0.2204,0.8627,0.2400,0.1321,0.8627,0.2400,0.1321,0.3000,0.0600,0.0002,0,-2.4822,-3.5000,-0.0010,-2.4822,-3.5000,-0.0010,39.5595,-6.7774,0.0200,0.0000
-5.8935,38.9482,-1.4252,-0.0829,0.0000,0.1200,0.0000,0.0000,0.0000,0.1120,-0.3359,-0.0037,996,1502,1500,1500,1000,1000,1505,1000,1000,1586,1005,1000,1014,-0.1245,-0.0648,0.0627,-0.0217,0.0010,1.0056,0.4442,0.2276,-0.4517,-0.2202,0.8627,0.2400,0.1321,0.8627,0.2400,0.1321,0.3000,0.0600,0.0002,0,-2.4822,-3.5000,-0.0010,-2.4822,-3.5000,-0.0010,39.5232,-6.7685,0.0200,0.0000
-5.8859,38.9096,-1.4195,-0.0000,0.0000,0.1200,0.0000,0.0000,0.0000,0.1119,-0.3357,-0.0037,996,1502,1500,1500,1000,1000,1505,1000,1000,1586,1005,1000,1014,-0.0566,-0.0070,0.0385,-0.0172,-0.0024,1.0034,0.4438,0.2275,-0.4513,-0.2201,0.8627,0.2400,0.1321,0.8627,0.2400,0.1321,0.3000,0.0600,0.0002,0,-2.4822,-3.5000,-0.0010,-2.4822,-3.5000,-0.0010,39.4862,-6.7605,0.0200,0.0000
-5.8774,38.8705,-1.4133,-0.0000,0.0821,0.1200,0.0000,0.0000,0.0000,0.1118,-0.3352,-0.0039,996,1502,1500,1500,1000,1000,1505,1000,1000,1586,1005,1000,1014,-0.0478,-0.0862,0.1053,-0.0202,-0.0036,1.0031,0.4431,0.2273,-0.4510,-0.2195,0.8627,0.2400,0.1321,0.8627,0.2400,0.1321,0.3000,0.0600,0.0002,0,-2.4822,-3.5000,-0.0010,-2.4822,-3.5000,-0.0010,39.4490,-6.7520,0.0200,0.0000
-5.8697,38.8310,-1.4072,-0.0000,0.0821,0.1200,0.0000,0.0000,0.0000,0.1118,-0.3349,-0.0036,996,1502,1500,1500,1000,1000,1505,1000,1000,1586,1005,1000,1014,-0.0846,-0.0837,0.0212,-0.0214,-0.0033,1.0016,0.4431,0.2267,-0.4503,-0.2195,0.8627,0.2400,0.1321,0.8627,0.2400,0.1321,0.3000,0.0600,0.0002,0,-2.4822,-3.5000,-0.0010,-2.4822,-3.5000,-0.0010,39.4123,-6.7436,0.0200,0.0000
-5.8618,38.7911,-1.4011,-0.0000,0.0821,0.1800,0.0000,0.0000,0.0000,0.1123,-0.3345,-0.0047,996,1502,1500,1500,1000,1000,1505,1000,1000,1586,1005,1000,1014,-0.1219,-0.1371,0.0681,-0.0224,-0.0026,1.0043,0.4420,0.2269,-0.4515,-0.2175,0.8627,0.2400,0.1321,0.8627,0.2400,0.1321,0.3000,0.0600,0.0002,0,-2.4822,-3.5000,-0.0010,-2.4822,-3.5000,-0.0010,39.3752,-6.7345,0.0300,0.0000
-5.8541,38.7510,-1.3948,-0.0829,0.0000,0.1200,0.0000,0.0000,0.0000,0.1117,-0.3341,-0.0039,996,1502,1500,1500,1000,1000,1505,1000,1000,1586,1005,1000,1014,-0.0989,-0.1471,0.1038,-0.0212,-0.0056,1.0015,0.4419,0.2263,-0.4496,-0.2186,0.8627,0.2400,0.1321,0.8627,0.2400,0.1321,0.3000,0.0600,0.0002,0,-2.4822,-3.5000,-0.0010,-2.4822,-3.5000,-0.0010,39.3384,-6.7255,0.0200,0.0000
-5.8458,38.7105,-1.3878,-0.0829,0.0000,0.1200,0.0000,0.0000,0.0000,0.1116,-0.3338,-0.0039,996,1502,1500,1500,1000,1000,1505,1000,1000,1586,1005,1000,1014,-0.1296,-0.1223,0.1254,-0.0233,-0.0008,1.0037,0.4415,0.2261,-0.4494,-0.2182,0.8627,0.2400,0.1321,0.8627,0.2400,0.1321,0.3000,0.0600,0.0002,0,-2.4822,-3.5000,-0.0010,-2.4822,-3.5000,-0.0010,39.3012,-6.7160,0.0200,0.0000
-5.8375,38.6712,-1.3807,-0.0829,0.0821,0.1200,0.0000,0.0000,0.0000,0.1115,-0.3336,-0.0040,996,1502,1500,1500,1000,1000,1505,1000,1000,1586,1005,1000,1014,-0.0957,-0.0124,0.1705,-0.0265,-0.0044,1.0074,0.4411,0.2261,-0.4492,-0.2180,0.8627,0.2400,0.1321,0.8627,0.2400,0.1321,0.3000,0.0600,0.0002,0,-2.4822,-3.5000,-0.0010,-2.4822,-3.5000,-0.0010,39.2641,-6.7068,0.0200,0.0000
-5.8295,38.6320,-1.3742,-0.0000,0.0000,0.1200,0.0000,0.0000,0.0000,0.1115,-0.3333,-0.0039,996,1502,1500,1500,1000,1000,1505,1000,1000,1586,1005,1000,1014,-0.1492,0.0211,0.1012,-0.0237,-0.0034,1.0102,0.4410,0.2257,-0.4487,-0.2179,0.8627,0.2400,0.1321,0.8627,0.2400,0.1321,0.3000,0.0600,0.0002,0,-2.4822,-3.5000,-0.0010,-2.4822,-3.5000,-0.0010,39.2272,-6.6981,0.0200,0.0000
-5.8213,38.5934,-1.3672,-0.0000,0.0821,0.1200,0.0000,0.0000,0.0000,0.1114,-0.3330,-0.0040,996,1502,1500,1500,1000,1000,1505,1000,1000,1586,1005,1000,1014,-0.1130,0.0136,0.1379,-0.0199,-0.0035,1.0044,0.4404,0.2255,-0.4483,-0.2176,0.8627,0.2400,0.1321,0.8627,0.2400,0.1321,0.3000,0.0600,0.0002,0,-2.4822,-3.5000,-0.0010,-2.4822,-3.5000,-0.0010,39.1902,-6.6889,0.0200,0.0000
-5.8137,38.5544,-1.3609,-0.0000,0.0821,0.1800,0.0000,0.0000,0.0000,0.1118,-0.3326,-0.0048,996,1502,1500,1500,1000,1000,1505,1000,1000,1586,1005,1000,1014,-0.0966,0.0053,0.0616,-0.0225,-0.0035,1.0065,0.4397,0.2255,-0.4492,-0.2160,0.8627,0.2400,0.1321,0.8627,0.2400,0.1321,0.3000,0.0600,0.0002,0,-2.4822,-3.5000,-0.0010,-2.4822,-3.5000,-0.0010,39.1529,-6.6799,0.0300,0.0000
-5.8050,38.5153,-1.3543,-0.0829,0.0821,0.1200,0.0000,0.0000,0.0000,0.1111,-0.3322,-0.0040,996,1502,1500,1500,1000,1000,1505,1000,1000,1586,1005,1000,1014,0.0241,-0.0769,0.1491,-0.0221,-0.0038,1.0075,0.4392,0.2251,-0.4473,-0.2171,0.8627,0.2400,0.1321,0.8627,0.2400,0.1321,0.3000,0.0600,0.0002,0,-2.4822,-3.5000,-0.0010,-2.4822,-3.5000,-0.0010,39.1157,-6.6709,0.0200,0.0000
-5.7961,38.4754,-1.3475,-0.0000,0.0000,0.1200,0.0000,0.0000,0.0000,0.1111,-0.3317,-0.0038,996,1502,1500,1500,1000,1000,1505,1000,1000,1586,1005,1000,1014,-0.0603,-0.1707,0.0948,-0.0199,-0.0005,1.0076,0.4390,0.2244,-0.4467,-0.2167,0.8627,0.2400,0.1321,0.8627,0.2400,0.1321,0.3000,0.0600,0.0002,0,-2.4822,-3.5000,-0.0010,-2.4822,-3.5000,-0.0010,39.0786,-6.6618,0.0200,0.0000
-5.7880,38.4356,-1.3417,-0.0000,0.0821,0.1200,0.0000,0.0000,0.0000,0.1111,-0.3315,-0.0038,996,1502,1500,1500,1000,1000,1505,1000,1000,1586,1005,1000,1014,-0.0618,-0.0478,0.0840,-0.0244,-0.0044,1.0049,0.4387,0.2243,-0.4464,-0.2166,0.8627,0.2400,0.1321,0.8627,0.2400,0.1321,0.3000,0.0600,0.0002,0,-2.4822,-3.5000,-0.0010,-2.4822,-3.5000,-0.0010,39.0415,-6.6528,0.0200,0.0000
-5.7806,38.3964,-1.3362,-0.0829,0.0000,0.1200,0.0000,0.0000,0.0000,0.1110,-0.3312,-0.0036,996,1502,1500,1500,1000,1000,1505,1000,1000,1586,1005,1000,1014,-0.0672,-0.0329,0.0121,-0.0204,-0.0033,1.0067,0.4386,0.2238,-0.4458,-0.2166,0.8627,0.2400,0.1321,0.8627,0.2400,0.1321,0.3000,0.0600,0.0002,0,-2.4822,-3.5000,-0.0010,-2.4822,-3.5000,-0.0010,39.0045,-6.6438,0.0200,0.0000
-5.7732,38.3569,-1.3301,-0.0000,0.0000,0.1200,0.0000,0.0000,0.0000,0.1110,-0.3308,-0.0037,996,1502,1500,1500,1000,1000,1505,1000,1000,1586,1005,1000,1014,-0.1275,-0.0497,0.0704,-0.0215,-0.0013,1.0045,0.4381,0.2236,-0.4456,-0.2161,0.8627,0.2400,0.1321,0.8627,0.2400,0.1321,0.3000,0.0600,0.0002,0,-2.4822,-3.5000,-0.0010,-2.4822,-3.5000,-0.0010,38.9677,-6.6346,0.0200,0.0000
-5.7657,38.3175,-1.3243,-0.1657,0.0000,0.1800,0.0000,0.0000,0.0000,0.1115,-0.3305,-0.0037,996,1502,1500,1500,1000,1000,1505,1000,1000,1586,1005,1000,1014,-0.1250,-0.0489,0.0375,-0.0231,-0.0031,1.0109,0.4383,0.2227,-0.4456,-0.2154,0.8627,0.2400,0.1321,0.8627,0.2400,0.1321,0.3000,0.0600,0.0002,0,-2.4822,-3.5000,-0.0010,-2.4822,-3.5000,-0.0010,38.9304,-6.6254,0.0300,0.0000
-5.7580,38.2780,-1.3180,-0.0000,0.0821,0.1200,0.0000,0.0000,0.0000,0.1109,-0.3302,-0.0039,996,1502,1500,1500,1000,1000,1505,1000,1000,1586,1005,1000,1014,-0.1373,-0.0364,0.1195,-0.0229,-0.0007,1.0106,0.4371,0.2232,-0.4450,-0.2153,0.8627,0.2400,0.1321,0.8627,0.2400,0.1321,0.3000,0.0600,0.0002,0,-2.4822,-3.5000,-0.0010,-2.4822,-3.5000,-0.0010,38.8933,-6.6163,0.0200,0.0000
-5.7500,38.2386,-1.3116,-0.0000,-0.0821,0.1200,0.0000,0.0000,0.0000,0.1107,-0.3298,-0.0038,996,1502,1500,1500,1000,1000,1505,1000,1000,1586,1005,1000,1014,-0.0674,-0.0670,0.0763,-0.0227,-0.0031,1.0061,0.4367,0.2229,-0.4444,-0.2152,0.8627,0.2400,0.1321,0.8627,0.2400,0.1321,0.3000,0.0600,0.0002,0,-2.4822,-3.5000,-0.0010,-2.4822,-3.5000,-0.0010,38.8566,-6.6068,0.0200,0.0000
-5.7421,38.1993,-1.3058,-0.0829,0.0821,0.1200,0.0000,0.0000,0.0000,0.1107,-0.3295,-0.0037,996,1502,1500,1500,1000,1000,1505,1000,1000,1586,1005,1000,1014,-0.0899,-0.0558,0.0518,-0.0212,-0.0018,1.0030,0.4364,0.2225,-0.4439,-0.2150,0.8627,0.2400,0.1321,0.8627,0.2400,0.1321,0.3000,0.0600,0.0002,0,-2.4822,-3.5000,-0.0010,-2.4822,-3.5000,-0.0010,38.8196,-6.5977,0.0200,0.0000
-5.7335,38.1601,-1.2997,-0.1657,0.0000,0.1200,0.0000,0.0000,0.0000,0.1104,-0.3291,-0.0039,996,1502,1500,1500,1000,1000,1505,1000,1000,1586,1005,1000,1014,0.0367,-0.0550,0.0886,-0.0206,-0.0025,1.0040,0.4357,0.2225,-0.4434,-0.2148,0.8627,0.2400,0.1321,0.8627,0.2400,0.1321,0.3000,0.0600,0.0002,0,-2.4822,-3.5000,-0.0010,-2.4822,-3.5000,-0.0010,38.7828,-6.5887,0.0200,0.0000
-5.7245,38.1203,-1.2928,-0.0829,0.0821,0.1200,0.0000,0.0000,0.0000,0.1105,-0.3287,-0.0038,996,1502,1500,1500,1000,1000,1505,1000,1000,1586,1005,1000,1014,-0.0710,-0.1100,0.0917,-0.0249,-0.0035,1.0061,0.4354,0.2220,-0.4431,-0.2144,0.8627,0.2400,0.1321,0.8627,0.2400,0.1321,0.3000,0.0600,0.0002,0,-2.4822,-3.5000,-0.0010,-2.4822,-3.5000,-0.0010,38.7455,-6.5796,0.0200,0.0000
-5.7164,38.0804,-1.2864,-0.0829,0.0000,0.1800,0.0000,0.0000,0.0000,0.1109,-0.3285,-0.0049,996,1502,1500,1500,1000,1000,1505,1000,1000,1586,1005,1000,1014,-0.0538,-0.0272,0.1200,-0.0241,-0.0048,1.0059,0.4345,0.2224,-0.4443,-0.2126,0.8627,0.2400,0.1321,0.8627,0.2400,0.1321,0.3000,0.0600,0.0002,0,-2.4822,-3.5000,-0.0010,-2.4822,-3.5000,-0.0010,38.7084,-6.5705,0.0300,0.0000
-5.7084,38.0410,-1.2798,-0.0829,0.0821,0.1200,0.0000,0.0000,0.0000,0.1104,-0.3281,-0.0040,996,1502,1500,1500,1000,1000,1505,1000,1000,1586,1005,1000,1014,-0.1208,-0.0630,0.1448,-0.0212,-0.0010,1.0043,0.4346,0.2216,-0.4425,-0.2137,0.8627,0.2400,0.1321,0.8627,0.2400,0.1321,0.3000,0.0600,0.0002,0,-2.4822,-3.5000,-0.0010,-2.4822,-3.5000,-0.0010,38.6716,-6.5623,0.0200,0.0000
-5.7005,38.0016,-1.2732,-0.0829,0.0821,0.1200,0.0000,0.0000,0.0000,0.1104,-0.3278,-0.0040,996,1502,1500,1500,1000,1000,1505,1000,1000,1586,1005,1000,1014,-0.1074,0.0047,0.1280,-0.0237,-0.0041,1.0074,0.4342,0.2215,-0.4422,-0.2135,0.8627,0.2400,0.1321,0.8627,0.2400,0.1321,0.3000,0.0600,0.0002,0,-2.4822,-3.5000,-0.0010,-2.4822,-3.5000,-0.0010,38.6349,-6.5540,0.0200,0.0000
-5.6928,37.9624,-1.2668,-0.0000,0.0821,0.1200,0.0000,0.0000,0.0000,0.1103,-0.3274,-0.0038,996,1502,1500,1500,1000,1000,1505,1000,1000,1586,1005,1000,1014,-0.1162,-0.0433,0.0962,-0.0246,-0.0027,1.0071,0.4339,0.2210,-0.4416,-0.2133,0.8627,0.2400,0.1321,0.8627,0.2400,0.1321,0.3000,0.0600,0.0002,0,-2.4822,-3.5000,-0.0010,-2.4822,-3.5000,-0.0010,38.5976,-6.5447,0.0200,0.0000
-5.6846,37.9228,-1.2599,-0.0829,0.0821,0.1200,0.0000,0.0000,0.0000,0.1102,-0.3270,-0.0040,996,1502,1500,1500,1000,1000,1505,1000,1000,1586,1005,1000,1014,-0.1227,-0.0914,0.1369,-0.0220,0.0012,1.0078,0.4333,0.2208,-0.4413,-0.2128,0.8627,0.2400,0.1321,0.8627,0.2400,0.1321,0.3000,0.0600,0.0002,0,-2.4822,-3.5000,-0.0010,-2.4822,-3.5000,-0.0010,38.5601,-6.5356,0.0200,0.0000
-5.6759,37.8829,-1.2530,-0.0000,0.0000,0.1200,0.0000,0.0000,0.0000,0.1100,-0.3267,-0.0039,996,1502,1500,1500,1000,1000,1505,1000,1000,1586,1005,1000,1014,-0.0023,-0.0557,0.0973,-0.0238,-0.0018,1.0074,0.4329,0.2206,-0.4406,-0.2129,0.8627,0.2400,0.1321,0.8627,0.2400,0.1321,0.3000,0.0600,0.0002,0,-2.4822,-3.5000,-0.0010,-2.4822,-3.5000,-0.0010,38.5227,-6.5259,0.0200,0.0000
-5.6669,37.8434,-1.2461,-0.0829,0.0000,0.1800,0.0000,0.0000,0.0000,0.1105,-0.3264,-0.0051,996,1502,1500,1500,1000,1000,1505,1000,1000,1586,1005,1000,1014,-0.0394,-0.0475,0.1915,-0.0224,-0.0024,1.0091,0.4318,0.2210,-0.4420,-0.2108,0.8627,0.2400,0.1321,0.8627,0.2400,0.1321,0.3000,0.0600,0.0002,0,-2.4822,-3.5000,-0.0010,-2.4822,-3.5000,-0.0010,38.4858,-6.5166,0.0300,0.0000
-5.6588,37.8035,-1.2397,-0.0829,0.0821,0.1200,0.0000,0.0000,0.0000,0.1100,-0.3261,-0.0038,996,1502,1500,1500,1000,1000,1505,1000,1000,1586,1005,1000,1014,-0.0753,-0.0579,0.0741,-0.0211,-0.0044,0.9998,0.4322,0.2199,-0.4398,-0.2123,0.8627,0.2400,0.1321,0.8627,0.2400,0.1321,0.3000,0.0600,0.0002,0,-2.4822,-3.5000,-0.0010,-2.4822,-3.5000,-0.0010,38.4482,-6.5078,0.0200,0.0000
-5.6507,37.7646,-1.2335,-0.0829,0.0821,0.1200,0.0000,0.0000,0.0000,0.1099,-0.3258,-0.0038,996,1502,1500,1500,1000,1000,1505,1000,1000,1586,1005,1000,1014,-0.0850,-0.0043,0.0899,-0.0221,-0.0042,1.0082,0.4319,0.2197,-0.4395,-0.2121,0.8627,0.2400,0.1321,0.8627,0.2400,0.1321,0.3000,0.0600,0.0002,0,-2.4822,-3.5000,-0.0010,-2.4822,-3.5000,-0.0010,38.4106,-6.4990,0.0200,0.0000
-5.6430,37.7253,-1.2270,-0.0829,0.0821,0.1200,0.0000,0.0000,0.0000,0.1099,-0.3254,-0.0039,996,1502,1500,1500,1000,1000,1505,1000,1000,1586,1005,1000,1014,-0.1393,-0.0069,0.1012,-0.0209,-0.0018,1.0086,0.4315,0.2194,-0.4392,-0.2116,0.8627,0.2400,0.1321,0.8627,0.2400,0.1321,0.3000,0.0600,0.0002,0,-2.4822,-3.5000,-0.0010,-2.4822,-3.5000,-0.0010,38.3731,-6.4902,0.0200,0.0000
-5.6351,37.6861,-1.2205,-0.0829,0.0000,0.1200,0.0000,0.0000,0.0000,0.1098,-0.3250,-0.0036,996,1502,1500,1500,1000,1000,1505,1000,1000,1586,1005,1000,1014,-0.1079,-0.0745,0.0333,-0.0232,-0.0027,1.0040,0.4312,0.2188,-0.4384,-0.2116,0.8627,0.2400,0.1321,0.8627,0.2400,0.1321,0.3000,0.0600,0.0002,0,-2.4822,-3.5000,-0.0010,-2.4822,-3.5000,-0.0010,38.3359,-6.4810,0.0200,0.0000
-5.6277,37.6458,-1.2148,-0.0000,0.0821,0.1200,0.0000,0.0000,0.0000,0.1098,-0.3246,-0.0038,996,1502,1500,1500,1000,1000,1505,1000,1000,1586,1005,1000,1014,-0.1391,-0.0926,0.0842,-0.0218,-0.0051,1.0096,0.4306,0.2187,-0.4382,-0.2111,0.8627,0.2400,0.1321,0.8627,0.2400,0.1321,0.3000,0.0600,0.0002,0,-2.4822,-3.5000,-0.0010,-2.4822,-3.5000,-0.0010,38.2987,-6.4714,0.0200,0.0000
-5.6199,37.6059,-1.2086,-0.0829,0.0821,0.1800,0.0000,0.0000,0.0000,0.1101,-0.3244,-0.0049,996,1502,1500,1500,1000,1000,1505,1000,1000,1586,1005,1000,1014,-0.0851,-0.0481,0.1228,-0.0201,-0.0050,1.0072,0.4296,0.2191,-0.4394,-0.2093,0.8627,0.2400,0.1321,0.8627,0.2400,0.1321,0.3000,0.0600,0.0002,0,-2.4822,-3.5000,-0.0010,-2.4822,-3.5000,-0.0010,38.2615,-6.4627,0.0300,0.0000
-5.6115,37.5664,-1.2024,-0.1657,-0.0821,0.1200,0.0000,0.0000,0.0000,0.1095,-0.3241,-0.0038,996,1502,1500,1500,1000,1000,1505,1000,1000,1586,1005,1000,1014,-0.0143,0.0098,0.0730,-0.0206,-0.0015,1.0102,0.4298,0.2184,-0.4374,-0.2108,0.8627,0.2400,0.1321,0.8627,0.2400,0.1321,0.3000,0.0600,0.0002,0,-2.4822,-3.5000,-0.0010,-2.4822,-3.5000,-0.0010,38.2247,-6.4534,0.0200,0.0000
-5.6033,37.5265,-1.1964,-0.0829,0.0821,0.1200,0.0000,0.0000,0.0000,0.1095,-0.3236,-0.0037,996,1502,1500,1500,1000,1000,1505,1000,1000,1586,1005,1000,1014,-0.0714,-0.1028,0.0604,-0.0270,-0.0052,1.0031,0.4293,0.2179,-0.4368,-0.2104,0.8627,0.2400,0.1321,0.8627,0.2400,0.1321,0.3000,0.0600,0.0002,0,-2.4822,-3.5000,-0.0010,-2.4822,-3.5000,-0.0010,38.1875,-6.4440,0.0200,0.0000
-5.5954,37.4865,-1.1902,-0.1657,-0.1642,0.1200,0.0000,0.0000,0.0000,0.1094,-0.3233,-0.0038,996,1502,1500,1500,1000,1000,1505,1000,1000,1586,1005,1000,1014,-0.0576,-0.0888,0.0847,-0.0224,0.0002,1.0096,0.4288,0.2177,-0.4365,-0.2101,0.8627,0.2400,0.1321,0.8627,0.2400,0.1321,0.3000,0.0600,0.0002,0,-2.4822,-3.5000,-0.0010,-2.4822,-3.5000,-0.0010,38.1502,-6.4345,0.0200,0.0000
-5.5874,37.4465,-1.1838,-0.0829,0.0000,0.1200,0.0000,0.0000,0.0000,0.1094,-0.3230,-0.0039,996,1502,1500,1500,1000,1000,1505,1000,1000,1586,1005,1000,1014,-0.0947,-0.0629,0.1085,-0.0242,-0.0032,1.0041,0.4284,0.2175,-0.4363,-0.2097,0.8627,0.2400,0.1321,0.8627,0.2400,0.1321,0.3000,0.0600,0.0002,0,-2.4822,-3.5000,-0.0010,-2.4822,-3.5000,-0.0010,38.1129,-6.4249,0.0200,0.0000
-5.5797,37.4070,-1.1776,-0.0000,0.0821,0.1200,0.0000,0.0000,0.0000,0.1093,-0.3227,-0.0038,996,1502,1500,1500,1000,1000,1505,1000,1000,1586,1005,1000,1014,-0.1047,-0.0301,0.0773,-0.0238,-0.0037,1.0090,0.4282,0.2172,-0.4358,-0.2095,0.8627,0.2400,0.1321,0.8627,0.2400,0.1321,0.3000,0.0600,0.0002,0,-2.4822,-3.5000,-0.0010,-2.4822,-3.5000,-0.0010,38.0757,-6.4162,0.0200,0.0000
-5.5717,37.3675,-1.1712,-0.0000,0.0000,0.1800,0.0000,0.0000,0.0000,0.1098,-0.3223,-0.0050,996,1502,1500,1500,1000,1000,1505,1000,1000,1586,1005,1000,1014,-0.1136,-0.0559,0.1452,-0.0184,-0.0010,1.0052,0.4271,0.2175,-0.4371,-0.2075,0.8627,0.2400,0.1321,0.8627,0.2400,0.1321,0.3000,0.0600,0.0002,0,-2.4822,-3.5000,-0.0010,-2.4822,-3.5000,-0.0010,38.0386,-6.4074,0.0300,0.0000
-5.5645,37.3283,-1.1651,-0.0000,0.0821,0.1200,0.0000,0.0000,0.0000,0.1093,-0.3220,-0.0037,996,1502,1500,1500,1000,1000,1505,1000,1000,1586,1005,1000,1014,-0.1888,-0.0133,0.0332,-0.0213,-0.0013,1.0054,0.4276,0.2164,-0.4350,-0.2090,0.8627,0.2400,0.1321,0.8627,0.2400,0.1321,0.3000,0.0600,0.0002,0,-2.4822,-3.5000,-0.0010,-2.4822,-3.5000,-0.0010,38.0013,-6.3982,0.0200,0.0000
-5.5569,37.2886,-1.1587,-0.0000,0.0821,0.1200,0.0000,0.0000,0.0000,0.1091,-0.3216,-0.0042,996,1502,1500,1500,1000,1000,1505,1000,1000,1586,1005,1000,1014,-0.1160,-0.1045,0.1665,-0.0209,-0.0054,1.0022,0.4265,0.2166,-0.4348,-0.2083,0.8627,0.2400,0.1321,0.8627,0.2400,0.1321,0.3000,0.0600,0.0002,0,-2.4822,-3.5000,-0.0010,-2.4822,-3.5000,-0.0010,37.9642,-6.3894,0.0200,0.0000
-5.5485,37.2486,-1.1523,-0.0829,0.0821,0.1200,0.0000,0.0000,0.0000,0.1089,-0.3212,-0.0038,996,1502,1500,1500,1000,1000,1505,1000,1000,1586,1005,1000,1014,-0.0128,-0.0957,0.0649,-0.0199,-0.0033,1.0061,0.4264,0.2161,-0.4339,-0.2085,0.8627,0.2400,0.1321,0.8627,0.2400,0.1321,0.3000,0.0600,0.0002,0,-2.4822,-3.5000,-0.0010,-2.4822,-3.5000,-0.0010,37.9271,-6.3805,0.0200,0.0000
-5.5403,37.2074,-1.1468,0.0829,0.0821,0.1200,0.0000,0.0000,0.0000,0.1089,-0.3208,-0.0038,996,1502,1500,1500,1000,1000,1505,1000,1000,1586,1005,1000,1014,-0.0345,-0.1768,0.0804,-0.0218,-0.0043,1.0024,0.4258,0.2157,-0.4335,-0.2080,0.8627,0.2400,0.1321,0.8627,0.2400,0.1321,0.3000,0.0600,0.0002,0,-2.4822,-3.5000,-0.0010,-2.4822,-3.5000,-0.0010,37.8889,-6.3717,0.0200,0.0000
-5.5322,37.1669,-1.1408,-0.0829,0.0821,0.1200,0.0000,0.0000,0.0000,0.1088,-0.3205,-0.0039,996,1502,1500,1500,1000,1000,1505,1000,1000,1586,1005,1000,1014,-0.0442,-0.0759,0.1112,-0.0236,-0.0025,1.0093,0.4254,0.2156,-0.4333,-0.2078,0.8627,0.2400,0.1321,0.8627,0.2400,0.1321,0.3000,0.0600,0.0002,0,-2.4822,-3.5000,-0.0010,-2.4822,-3.5000,-0.0010,37.8512,-6.3623,0.0200,0.0000
-5.5239,37.1270,-1.1346,-0.0000,0.0000,0.1800,0.0000,0.0000,0.0000,0.1093,-0.3202,-0.0049,996,1502,1500,1500,1000,1000,1505,1000,1000,1586,1005,1000,1014,-0.0649,-0.0950,0.1151,-0.0244,0.0002,1.0070,0.4246,0.2158,-0.4344,-0.2060,0.8627,0.2400,0.1321,0.8627,0.2400,0.1321,0.3000,0.0600,0.0002,0,-2.4822,-3.5000,-0.0010,-2.4822,-3.5000,-0.0010,37.8138,-6.3530,0.0300,0.0000
-5.5160,37.0878,-1.1279,-0.0000,0.0821,0.1200,0.0000,0.0000,0.0000,0.1088,-0.3200,-0.0042,996,1502,1500,1500,1000,1000,1505,1000,1000,1586,1005,1000,1014,-0.1489,0.0046,0.1824,-0.0255,0.0001,1.0067,0.4246,0.2153,-0.4329,-0.2070,0.8627,0.2400,0.1321,0.8627,0.2400,0.1321,0.3000,0.0600,0.0002,0,-2.4822,-3.5000,-0.0010,-2.4822,-3.5000,-0.0010,37.7765,-6.3441,0.0200,0.0000
-5.5080,37.0486,-1.1212,-0.0829,0.0821,0.1200,0.0000,0.0000,0.0000,0.1087,-0.3196,-0.0042,996,1502,1500,1500,1000,1000,1505,1000,1000,1586,1005,1000,1014,-0.0735,-0.0363,0.1860,-0.0223,-0.0025,1.0031,0.4241,0.2151,-0.4324,-0.2068,0.8627,0.2400,0.1321,0.8627,0.2400,0.1321,0.3000,0.0600,0.0002,0,-2.4822,-3.5000,-0.0010,-2.4822,-3.5000,-0.0010,37.7390,-6.3354,0.0200,0.0000
-5.4997,37.0092,-1.1140,-0.0829,0.0821,0.1200,0.0000,0.0000,0.0000,0.1086,-0.3192,-0.0041,996,1502,1500,1500,1000,1000,1505,1000,1000,1586,1005,1000,1014,-0.0745,-0.0486,0.1873,-0.0212,-0.0048,1.0029,0.4237,0.2148,-0.4319,-0.2065,0.8627,0.2400,0.1321,0.8627,0.2400,0.1321,0.3000,0.0600,0.0002,0,-2.4822,-3.5000,-0.0010,-2.4822,-3.5000,-0.0010,37.7016,-6.3260,0.0200,0.0000
-5.4914,36.9692,-1.1077,-0.0829,0.0821,0.1200,0.0000,0.0000,0.0000,0.1086,-0.3189,-0.0040,996,1502,1500,1500,1000,1000,1505,1000,1000,1586,1005,1000,1014,-0.1132,-0.0270,0.1182,-0.0239,-0.0008,1.0034,0.4235,0.2143,-0.4314,-0.2064,0.8627,0.2400,0.1321,0.8627,0.2400,0.1321,0.3000,0.0600,0.0002,0,-2.4822,-3.5000,-0.0010,-2.4822,-3.5000,-0.0010,37.6642,-6.3172,0.0200,0.0000
-5.4830,36.9295,-1.1010,-0.0000,0.0000,0.1200,0.0000,0.0000,0.0000,0.1084,-0.3185,-0.0040,996,1502,1500,1500,1000,1000,1505,1000,1000,1586,1005,1000,1014,-0.0556,-0.1031,0.1686,-0.0227,-0.0011,1.0072,0.4228,0.2141,-0.4309,-0.2060,0.8627,0.2400,0.1321,0.8627,0.2400,0.1321,0.3000,0.0600,0.0002,0,-2.4822,-3.5000,-0.0010,-2.4822,-3.5000,-0.0010,37.6267,-6.3083,0.0200,0.0000
-5.4748,36.8900,-1.0945,-0.0000,0.0000,0.1800,0.0000,0.0000,0.0000,0.1089,-0.3182,-0.0049,996,1502,1500,1500,1000,1000,1505,1000,1000,1586,1005,1000,1014,-0.0905,-0.0282,0.1249,-0.0232,-0.0011,1.0027,0.4222,0.2142,-0.4321,-0.2044,0.8627,0.2400,0.1321,0.8627,0.2400,0.1321,0.3000,0.0600,0.0002,0,-2.4822,-3.5000,-0.0010,-2.4822,-3.5000,-0.0010,37.5890,-6.2990,0.0300,0.0000
-5.4663,36.8498,-1.0870,-0.0829,0.0821,0.1200,0.0000,0.0000,0.0000,0.1083,-0.3178,-0.0042,996,1502,1500,1500,1000,1000,1505,1000,1000,1586,1005,1000,1014,-0.0873,-0.0845,0.2008,-0.0196,-0.0024,1.0068,0.4219,0.2137,-0.4303,-0.2053,0.8627,0.2400,0.1321,0.8627,0.2400,0.1321,0.3000,0.0600,0.0002,0,-2.4822,-3.5000,-0.0010,-2.4822,-3.5000,-0.0010,37.5516,-6.2895,0.0200,0.0000
-5.4577,36.8100,-1.0800,-0.0829,-0.0821,0.1200,0.0000,0.0000,0.0000,0.1082,-0.3175,-0.0039,996,1502,1500,1500,1000,1000,1505,1000,1000,1586,1005,1000,1014,-0.0637,-0.0380,0.1084,-0.0261,-0.0029,1.0052,0.4218,0.2132,-0.4296,-0.2054,0.8627,0.2400,0.1321,0.8627,0.2400,0.1321,0.3000,0.0600,0.0002,0,-2.4822,-3.5000,-0.0010,-2.4822,-3.5000,-0.0010,37.5141,-6.2806,0.0200,0.0000
-5.4490,36.7698,-1.0733,-0.0829,0.0821,0.1200,0.0000,0.0000,0.0000,0.1081,-0.3171,-0.0040,996,1502,1500,1500,1000,1000,1505,1000,1000,1586,1005,1000,1014,-0.0235,-0.0634,0.1342,-0.0240,-0.0014,1.0062,0.4212,0.2131,-0.4292,-0.2050,0.8627,0.2400,0.1321,0.8627,0.2400,0.1321,0.3000,0.0600,0.0002,0,-2.4822,-3.5000,-0.0010,-2.4822,-3.5000,-0.0010,37.4767,-6.2716,0.0200,0.0000
-5.4405,36.7303,-1.0669,-0.1657,-0.1642,0.1200,0.0000,0.0000,0.0000,0.1080,-0.3168,-0.0040,996,1502,1500,1500,1000,1000,1505,1000,1000,1586,1005,1000,1014,-0.0395,-0.0344,0.1287,-0.0203,-0.0032,1.0086,0.4209,0.2128,-0.4288,-0.2048,0.8627,0.2400,0.1321,0.8627,0.2400,0.1321,0.3000,0.0600,0.0002,0,-2.4822,-3.5000,-0.0010,-2.4822,-3.5000,-0.0010,37.4392,-6.2621,0.0200,0.0000
-5.4325,36.6901,-1.0605,-0.0829,0.0000,0.1200,0.0000,0.0000,0.0000,0.1080,-0.3164,-0.0039,996,1502,1500,1500,1000,1000,1505,1000,1000,1586,1005,1000,1014,-0.1007,-0.1081,0.1054,-0.0213,-0.0038,1.0084,0.4205,0.2123,-0.4283,-0.2044,0.8627,0.2400,0.1321,0.8627,0.2400,0.1321,0.3000,0.0600,0.0002,0,-2.4822,-3.5000,-0.0010,-2.4822,-3.5000,-0.0010,37.4019,-6.2529,0.0200,0.0000
-5.4247,36.6505,-1.0544,-0.1657,-0.1642,0.1800,0.0000,0.0000,0.0000,0.1085,-0.3161,-0.0048,996,1502,1500,1500,1000,1000,1505,1000,1000,1586,1005,1000,1014,-0.0752,-0.0365,0.0776,-0.0213,-0.0009,0.9998,0.4198,0.2125,-0.4294,-0.2029,0.8627,0.2400,0.1321,0.8627,0.2400,0.1321,0.3000,0.0600,0.0002,0,-2.4822,-3.5000,-0.0010,-2.4822,-3.5000,-0.0010,37.3645,-6.2436,0.0300,0.0000
-5.4173,36.6102,-1.0492,-0.0829,0.0000,0.1200,0.0000,0.0000,0.0000,0.1079,-0.3156,-0.0037,996,1502,1500,1500,1000,1000,1505,1000,1000,1586,1005,1000,1014,-0.0831,-0.1434,0.0032,-0.0241,-0.0031,1.0043,0.4199,0.2114,-0.4272,-0.2041,0.8627,0.2400,0.1321,0.8627,0.2400,0.1321,0.3000,0.0600,0.0002,0,-2.4822,-3.5000,-0.0010,-2.4822,-3.5000,-0.0010,37.3271,-6.2345,0.0200,0.0000
