roll_imu,pitch_imu,yaw_imu,alpha,beta,roll_des,pitch_des,yaw_des,throttle_des,roll_pid,pitch_pid,yaw_pid,radio_ch1,radio_ch2,radio_ch3,radio_ch4,radio_ch5,radio_ch6,radio_ch7,radio_ch8,radio_ch9,radio_ch10,radio_ch11,radio_ch12,radio_ch13,GyroX,GyroY,GyroZ,AccX,AccY,AccZ,s1_command,s2_command,s3_command,s4_command,kp_roll,ki_roll,kd_roll,kp_pitch,ki_pitch,kd_pitch,kp_yaw,ki_yaw,kd_yaw,failsafeTriggered,kp_alphaRoll,ki_alphaRoll,kd_alphaRoll,kp_betaPitch,ki_betaPitch,kd_betaPitch,ripIMU_roll,ripIMU_pitch,ripRoll_des,ripPitch_des
0.0000,0.0000,0.0000,1.4088,5.9508,0.0000,0.0000,0.0000,0.0000,0.0000,0.0000,0.0000,1000,1500,1500,1500,2000,1000,1000,1000,1500,1500,1500,1500,1500,0.0000,0.0000,0.0000,0.0000,0.0000,0.0000,0.0000,0.0000,0.0000,0.0000,0.8627,0.2400,0.1321,0.8627,0.2400,0.1321,0.3000,0.0600,0.0002,0,-0.3000,-100.0000,-0.0010,-0.3000,-100.0000,-0.0010,0.0000,0.0000,0.0000,0.0000
-20.6378,35.8834,-6.6719,-0.0000,-0.1642,-7.8600,-8.0400,-42.8800,0.0000,0.1703,-0.3789,-0.2574,910,1369,1366,1366,2008,1000,1505,1000,1000,1505,1005,1000,1014,-0.0317,-0.0374,0.0127,-0.0073,-0.0015,0.3659,0.2918,0.4660,-0.8065,0.0488,0.8627,0.2400,0.1321,0.8627,0.2400,0.1321,0.3000,0.0600,0.0002,0,-2.2635,-3.5000,-0.0010,-2.2635,-3.5000,-0.0010,36.1812,-20.1251,-1.3100,-1.3400
-20.3170,35.4699,-6.4789,-0.0829,0.0000,-2.3400,-2.3400,-12.4800,0.0000,0.2152,-0.3260,-0.0409,971,1461,1461,1461,2008,1000,1505,1000,1000,1505,1005,1000,1014,-0.0523,-0.1231,0.0404,-0.0186,-0.0034,0.9735,0.5003,0.1517,-0.5820,-0.0700,0.8627,0.2400,0.1321,0.8627,0.2400,0.1321,0.3000,0.0600,0.0002,0,-2.2635,-3.5000,-0.0010,-2.2635,-3.5000,-0.0010,35.7138,-19.8990,-0.3900,-0.3900
-20.2907,35.4369,-6.4631,-0.0000,-0.0821,-0.6000,-0.7800,-4.1600,0.0000,0.2299,-0.3124,-0.0159,991,1490,1487,1487,2008,1000,1505,1000,1000,1505,1005,1000,1014,-0.0215,-0.0563,0.0432,-0.0209,-0.0015,1.0065,0.5263,0.0984,-0.5582,-0.0665,0.8627,0.2400,0.1321,0.8627,0.2400,0.1321,0.3000,0.0600,0.0002,0,-2.2635,-3.5000,-0.0010,-2.2635,-3.5000,-0.0010,35.6768,-19.8779,-0.1000,-0.1300
-20.2639,35.4036,-6.4469,-0.0829,0.0000,0.0000,-0.1800,-0.9600,0.0000,0.2349,-0.3069,-0.0065,996,1500,1497,1497,2008,1000,1505,1000,1000,1505,1005,1000,1014,-0.0432,-0.0667,0.0765,-0.0188,0.0008,1.0078,0.5353,0.0785,-0.5482,-0.0656,0.8627,0.2400,0.1321,0.8627,0.2400,0.1321,0.3000,0.0600,0.0002,0,-2.2635,-3.5000,-0.0010,-2.2635,-3.5000,-0.0010,35.6399,-19.8567,0.0000,-0.0300
-20.2375,35.3703,-6.4303,-0.0000,-0.0821,0.1200,0.0000,0.0000,0.0000,0.2358,-0.3050,-0.0036,996,1502,1500,1500,2008,1000,1505,1000,1000,1505,1005,1000,1014,-0.0987,-0.1325,0.0991,-0.0200,-0.0006,1.0002,0.5371,0.0728,-0.5443,-0.0656,0.8627,0.2400,0.1321,0.8627,0.2400,0.1321,0.3000,0.0600,0.0002,0,-2.2635,-3.5000,-0.0010,-2.2635,-3.5000,-0.0010,35.6028,-19.8359,0.0200,0.0000
-20.2108,35.3372,-6.4135,-0.0000,0.0000,0.1200,0.0000,0.0000,0.0000,0.2355,-0.3047,-0.0035,996,1502,1500,1500,2008,1000,1505,1000,1000,1505,1005,1000,1014,-0.0497,-0.1189,0.0587,-0.0241,0.0031,1.0019,0.5366,0.0728,-0.5437,-0.0657,0.8627,0.2400,0.1321,0.8627,0.2400,0.1321,0.3000,0.0600,0.0002,0,-2.2635,-3.5000,-0.0010,-2.2635,-3.5000,-0.0010,35.5657,-19.8152,0.0200,0.0000
-20.1845,35.3036,-6.3969,-0.0000,0.0000,0.1200,0.0000,0.0000,0.0000,0.2353,-0.3044,-0.0036,996,1502,1500,1500,2008,1000,1505,1000,1000,1505,1005,1000,1014,-0.0934,-0.1569,0.1046,-0.0233,-0.0041,1.0026,0.5360,0.0727,-0.5433,-0.0654,0.8627,0.2400,0.1321,0.8627,0.2400,0.1321,0.3000,0.0600,0.0002,0,-2.2635,-3.5000,-0.0010,-2.2635,-3.5000,-0.0010,35.5287,-19.7945,0.0200,0.0000
-20.1577,35.2699,-6.3796,-0.0829,0.0821,0.1800,0.0000,0.0000,0.0000,0.2355,-0.3041,-0.0046,996,1502,1500,1500,2008,1000,1505,1000,1000,1505,1005,1000,1014,-0.0007,-0.0961,0.1009,-0.0219,-0.0021,1.0053,0.5350,0.0733,-0.5442,-0.0641,0.8627,0.2400,0.1321,0.8627,0.2400,0.1321,0.3000,0.0600,0.0002,0,-2.2635,-3.5000,-0.0010,-2.2635,-3.5000,-0.0010,35.4912,-19.7739,0.0300,0.0000
-20.1312,35.2368,-6.3631,-0.0000,-0.0821,0.1200,0.0000,0.0000,0.0000,0.2348,-0.3040,-0.0036,996,1502,1500,1500,2008,1000,1505,1000,1000,1505,1005,1000,1014,-0.0348,-0.0237,0.0925,-0.0177,-0.0027,1.0135,0.5351,0.0728,-0.5423,-0.0656,0.8627,0.2400,0.1321,0.8627,0.2400,0.1321,0.3000,0.0600,0.0002,0,-2.2635,-3.5000,-0.0010,-2.2635,-3.5000,-0.0010,35.4534,-19.7543,0.0200,0.0000
-20.1053,35.2039,-6.3473,-0.0829,0.0000,0.1200,0.0000,0.0000,0.0000,0.2345,-0.3037,-0.0034,996,1502,1500,1500,2008,1000,1505,1000,1000,1505,1005,1000,1014,-0.0385,-0.0287,0.0244,-0.0194,-0.0010,1.0056,0.5348,0.0725,-0.5416,-0.0657,0.8627,0.2400,0.1321,0.8627,0.2400,0.1321,0.3000,0.0600,0.0002,0,-2.2635,-3.5000,-0.0010,-2.2635,-3.5000,-0.0010,35.4168,-19.7353,0.0200,0.0000
-20.0791,35.1701,-6.3304,-0.0829,-0.3283,0.1200,0.0000,0.0000,0.0000,0.2344,-0.3032,-0.0037,996,1502,1500,1500,2008,1000,1505,1000,1000,1505,1005,1000,1014,-0.1085,-0.1789,0.1280,-0.0157,-0.0027,1.0056,0.5338,0.0725,-0.5413,-0.0650,0.8627,0.2400,0.1321,0.8627,0.2400,0.1321,0.3000,0.0600,0.0002,0,-2.2635,-3.5000,-0.0010,-2.2635,-3.5000,-0.0010,35.3796,-19.7168,0.0200,0.0000
-20.0526,35.1360,-6.3127,-0.0829,-0.0821,0.1200,0.0000,0.0000,0.0000,0.2342,-0.3028,-0.0039,996,1502,1500,1500,2008,1000,1505,1000,1000,1505,1005,1000,1014,-0.0953,-0.2603,0.1805,-0.0199,-0.0021,1.0027,0.5330,0.0725,-0.5408,-0.0647,0.8627,0.2400,0.1321,0.8627,0.2400,0.1321,0.3000,0.0600,0.0002,0,-2.2635,-3.5000,-0.0010,-2.2635,-3.5000,-0.0010,35.3430,-19.6983,0.0200,0.0000
-20.0248,35.1009,-6.2943,-0.1657,-0.2462,0.1200,0.0000,0.0000,0.0000,0.2337,-0.3024,-0.0037,996,1502,1500,1500,2008,1000,1505,1000,1000,1505,1005,1000,1014,0.0453,-0.3006,0.1234,-0.0315,-0.0036,1.0005,0.5324,0.0724,-0.5399,-0.0650,0.8627,0.2400,0.1321,0.8627,0.2400,0.1321,0.3000,0.0600,0.0002,0,-2.2635,-3.5000,-0.0010,-2.2635,-3.5000,-0.0010,35.3062,-19.6794,0.0200,0.0000
-19.9967,35.0656,-6.2761,-0.0829,-0.0821,0.1800,0.0000,0.0000,0.0000,0.2340,-0.3019,-0.0047,996,1502,1500,1500,2008,1000,1505,1000,1000,1505,1005,1000,1014,0.0167,-0.4251,0.1286,-0.0312,-0.0045,1.0046,0.5313,0.0726,-0.5407,-0.0632,0.8627,0.2400,0.1321,0.8627,0.2400,0.1321,0.3000,0.0600,0.0002,0,-2.2635,-3.5000,-0.0010,-2.2635,-3.5000,-0.0010,35.2690,-19.6587,0.0300,0.0000
-19.9687,35.0306,-6.2578,-0.1657,-0.2462,0.1200,0.0000,0.0000,0.0000,0.2333,-0.3020,-0.0038,996,1502,1500,1500,2008,1000,1505,1000,1000,1505,1005,1000,1014,-0.0188,-0.1409,0.1533,-0.0283,-0.0028,1.0073,0.5315,0.0725,-0.5392,-0.0649,0.8627,0.2400,0.1321,0.8627,0.2400,0.1321,0.3000,0.0600,0.0002,0,-2.2635,-3.5000,-0.0010,-2.2635,-3.5000,-0.0010,35.2324,-19.6379,0.0200,0.0000
-19.9424,34.9990,-6.2413,-0.0829,-0.0821,0.1200,0.0000,0.0000,0.0000,0.2331,-0.3022,-0.0036,996,1502,1500,1500,2008,1000,1505,1000,1000,1505,1005,1000,1014,-0.0398,0.2119,0.1177,-0.0203,-0.0033,1.0073,0.5317,0.0727,-0.5390,-0.0654,0.8627,0.2400,0.1321,0.8627,0.2400,0.1321,0.3000,0.0600,0.0002,0,-2.2635,-3.5000,-0.0010,-2.2635,-3.5000,-0.0010,35.1959,-19.6180,0.0200,0.0000
-19.9181,34.9699,-6.2268,-0.0000,-0.0821,0.1200,0.0000,0.0000,0.0000,0.2331,-0.3022,-0.0036,996,1502,1500,1500,2008,1000,1505,1000,1000,1505,1005,1000,1014,-0.2005,0.4173,0.0712,-0.0189,-0.0043,0.9996,0.5318,0.0727,-0.5389,-0.0655,0.8627,0.2400,0.1321,0.8627,0.2400,0.1321,0.3000,0.0600,0.0002,0,-2.2635,-3.5000,-0.0010,-2.2635,-3.5000,-0.0010,35.1590,-19.5982,0.0200,0.0000
-19.8946,34.9415,-6.2124,-0.0000,-0.0821,0.1200,0.0000,0.0000,0.0000,0.2329,-0.3019,-0.0035,996,1502,1500,1500,2008,1000,1505,1000,1000,1505,1005,1000,1014,-0.1515,0.3174,0.0747,-0.0084,-0.0024,1.0053,0.5312,0.0725,-0.5383,-0.0654,0.8627,0.2400,0.1321,0.8627,0.2400,0.1321,0.3000,0.0600,0.0002,0,-2.2635,-3.5000,-0.0010,-2.2635,-3.5000,-0.0010,35.1220,-19.5783,0.0200,0.0000
-19.8704,34.9111,-6.1974,-0.0829,0.0000,0.1200,0.0000,0.0000,0.0000,0.2326,-0.3013,-0.0039,996,1502,1500,1500,2008,1000,1505,1000,1000,1505,1005,1000,1014,-0.0944,0.0617,0.1751,-0.0066,0.0002,1.0050,0.5299,0.0726,-0.5377,-0.0648,0.8627,0.2400,0.1321,0.8627,0.2400,0.1321,0.3000,0.0600,0.0002,0,-2.2635,-3.5000,-0.0010,-2.2635,-3.5000,-0.0010,35.0847,-19.5580,0.0200,0.0000
-19.8439,34.8765,-6.1805,-0.0000,0.0000,0.1800,0.0000,0.0000,0.0000,0.2327,-0.3003,-0.0047,996,1502,1500,1500,2008,1000,1505,1000,1000,1505,1005,1000,1014,0.0173,-0.4555,0.1149,-0.0094,0.0029,1.0031,0.5283,0.0722,-0.5377,-0.0629,0.8627,0.2400,0.1321,0.8627,0.2400,0.1321,0.3000,0.0600,0.0002,0,-2.2635,-3.5000,-0.0010,-2.2635,-3.5000,-0.0010,35.0466,-19.5364,0.0300,0.0000
-19.8153,34.8387,-6.1618,-0.0829,0.0000,0.1200,0.0000,0.0000,0.0000,0.2319,-0.2997,-0.0035,996,1502,1500,1500,2008,1000,1505,1000,1000,1505,1005,1000,1014,0.0970,-0.6291,0.0746,-0.0267,-0.0048,1.0045,0.5280,0.0714,-0.5351,-0.0643,0.8627,0.2400,0.1321,0.8627,0.2400,0.1321,0.3000,0.0600,0.0002,0,-2.2635,-3.5000,-0.0010,-2.2635,-3.5000,-0.0010,35.0086,-19.5133,0.0200,0.0000
-19.7854,34.7989,-6.1425,-0.0829,0.0000,0.1200,0.0000,0.0000,0.0000,0.2315,-0.2993,-0.0035,996,1502,1500,1500,2008,1000,1505,1000,1000,1505,1005,1000,1014,0.1383,-0.7154,0.0572,-0.0368,-0.0044,1.0056,0.5273,0.0712,-0.5343,-0.0642,0.8627,0.2400,0.1321,0.8627,0.2400,0.1321,0.3000,0.0600,0.0002,0,-2.2635,-3.5000,-0.0010,-2.2635,-3.5000,-0.0010,34.9717,-19.4895,0.0200,0.0000
-19.7571,34.7618,-6.1252,-0.0829,0.0000,0.1200,0.0000,0.0000,0.0000,0.2315,-0.2997,-0.0035,996,1502,1500,1500,2008,1000,1505,1000,1000,1505,1005,1000,1014,0.0028,-0.1736,0.0477,-0.0379,-0.0041,1.0109,0.5276,0.0717,-0.5347,-0.0647,0.8627,0.2400,0.1321,0.8627,0.2400,0.1321,0.3000,0.0600,0.0002,0,-2.2635,-3.5000,-0.0010,-2.2635,-3.5000,-0.0010,34.9352,-19.4662,0.0200,0.0000
-19.7315,34.7305,-6.1099,-0.0829,-0.0821,0.1200,0.0000,0.0000,0.0000,0.2314,-0.3001,-0.0035,996,1502,1500,1500,2008,1000,1505,1000,1000,1505,1005,1000,1014,-0.1341,0.3537,0.0382,-0.0415,-0.0010,1.0047,0.5281,0.0721,-0.5350,-0.0652,0.8627,0.2400,0.1321,0.8627,0.2400,0.1321,0.3000,0.0600,0.0002,0,-2.2635,-3.5000,-0.0010,-2.2635,-3.5000,-0.0010,34.8991,-19.4428,0.0200,0.0000
-19.7083,34.7033,-6.0975,-0.0829,-0.0821,0.1200,0.0000,0.0000,0.0000,0.2313,-0.3003,-0.0034,996,1502,1500,1500,2008,1000,1505,1000,1000,1505,1005,1000,1014,-0.2131,0.7290,0.0102,-0.0255,-0.0017,1.0007,0.5283,0.0724,-0.5351,-0.0656,0.8627,0.2400,0.1321,0.8627,0.2400,0.1321,0.3000,0.0600,0.0002,0,-2.2635,-3.5000,-0.0010,-2.2635,-3.5000,-0.0010,34.8630,-19.4195,0.0200,0.0000
-19.6863,34.6779,-6.0860,-0.0000,-0.1642,0.1800,0.0000,0.0000,0.0000,0.2316,-0.3002,-0.0044,996,1502,1500,1500,2008,1000,1505,1000,1000,1505,1005,1000,1014,-0.1596,0.7668,0.0065,-0.0104,-0.0014,1.0053,0.5274,0.0729,-0.5361,-0.0642,0.8627,0.2400,0.1321,0.8627,0.2400,0.1321,0.3000,0.0600,0.0002,0,-2.2635,-3.5000,-0.0010,-2.2635,-3.5000,-0.0010,34.8264,-19.3973,0.0300,0.0000
-19.6635,34.6517,-6.0739,-0.0000,0.0000,0.1200,0.0000,0.0000,0.0000,0.2307,-0.2996,-0.0036,996,1502,1500,1500,2008,1000,1505,1000,1000,1505,1005,1000,1014,-0.0420,0.4718,0.1041,-0.0016,-0.0009,1.0040,0.5267,0.0725,-0.5339,-0.0652,0.8627,0.2400,0.1321,0.8627,0.2400,0.1321,0.3000,0.0600,0.0002,0,-2.2635,-3.5000,-0.0010,-2.2635,-3.5000,-0.0010,34.7894,-19.3762,0.0200,0.0000
-19.6384,34.6212,-6.0596,-0.0000,0.0000,0.1200,0.0000,0.0000,0.0000,0.2303,-0.2987,-0.0038,996,1502,1500,1500,2008,1000,1505,1000,1000,1505,1005,1000,1014,0.1227,0.0118,0.1333,0.0005,-0.0050,1.0062,0.5252,0.0722,-0.5328,-0.0646,0.8627,0.2400,0.1321,0.8627,0.2400,0.1321,0.3000,0.0600,0.0002,0,-2.2635,-3.5000,-0.0010,-2.2635,-3.5000,-0.0010,34.7518,-19.3551,0.0200,0.0000
-19.6097,34.5856,-6.0421,-0.0829,-0.0821,0.1200,0.0000,0.0000,0.0000,0.2300,-0.2977,-0.0037,996,1502,1500,1500,2008,1000,1505,1000,1000,1505,1005,1000,1014,0.1371,-0.5304,0.1259,-0.0100,-0.0060,0.9994,0.5240,0.0714,-0.5314,-0.0639,0.8627,0.2400,0.1321,0.8627,0.2400,0.1321,0.3000,0.0600,0.0002,0,-2.2635,-3.5000,-0.0010,-2.2635,-3.5000,-0.0010,34.7144,-19.3341,0.0200,0.0000
-19.5802,34.5457,-6.0229,-0.0000,-0.1642,0.1200,0.0000,0.0000,0.0000,0.2298,-0.2969,-0.0036,996,1502,1500,1500,2008,1000,1505,1000,1000,1505,1005,1000,1014,0.1091,-0.8493,0.0968,-0.0232,-0.0045,1.0015,0.5231,0.0707,-0.5303,-0.0635,0.8627,0.2400,0.1321,0.8627,0.2400,0.1321,0.3000,0.0600,0.0002,0,-2.2635,-3.5000,-0.0010,-2.2635,-3.5000,-0.0010,34.6768,-19.3120,0.0200,0.0000
-19.5516,34.5060,-6.0038,-0.0829,-0.0821,0.1200,0.0000,0.0000,0.0000,0.2298,-0.2969,-0.0038,996,1502,1500,1500,2008,1000,1505,1000,1000,1505,1005,1000,1014,-0.0507,-0.5968,0.1426,-0.0387,-0.0054,1.0085,0.5228,0.0709,-0.5305,-0.0633,0.8627,0.2400,0.1321,0.8627,0.2400,0.1321,0.3000,0.0600,0.0002,0,-2.2635,-3.5000,-0.0010,-2.2635,-3.5000,-0.0010,34.6391,-19.2890,0.0200,0.0000
-19.5248,34.4698,-5.9860,-0.1657,-0.2462,0.1800,0.0000,0.0000,0.0000,0.2302,-0.2972,-0.0046,996,1502,1500,1500,2008,1000,1505,1000,1000,1505,1005,1000,1014,-0.1527,-0.1312,0.0831,-0.0420,-0.0047,1.0082,0.5228,0.0716,-0.5320,-0.0624,0.8627,0.2400,0.1321,0.8627,0.2400,0.1321,0.3000,0.0600,0.0002,0,-2.2635,-3.5000,-0.0010,-2.2635,-3.5000,-0.0010,34.6020,-19.2664,0.0300,0.0000
-19.5008,34.4393,-5.9709,-0.1657,-0.0821,0.1200,0.0000,0.0000,0.0000,0.2296,-0.2977,-0.0038,996,1502,1500,1500,2008,1000,1505,1000,1000,1505,1005,1000,1014,-0.2621,0.4835,0.1455,-0.0352,0.0034,1.0030,0.5235,0.0720,-0.5312,-0.0643,0.8627,0.2400,0.1321,0.8627,0.2400,0.1321,0.3000,0.0600,0.0002,0,-2.2635,-3.5000,-0.0010,-2.2635,-3.5000,-0.0010,34.5652,-19.2444,0.0200,0.0000
-19.4777,34.4128,-5.9574,-0.2486,-0.0821,0.1200,0.0000,0.0000,0.0000,0.2294,-0.2979,-0.0035,996,1502,1500,1500,2008,1000,1505,1000,1000,1505,1005,1000,1014,-0.2303,0.7360,0.0583,-0.0254,0.0053,1.0055,0.5237,0.0720,-0.5307,-0.0650,0.8627,0.2400,0.1321,0.8627,0.2400,0.1321,0.3000,0.0600,0.0002,0,-2.2635,-3.5000,-0.0010,-2.2635,-3.5000,-0.0010,34.5283,-19.2230,0.0200,0.0000
-19.4540,34.3873,-5.9443,-0.0000,-0.0821,0.1200,0.0000,0.0000,0.0000,0.2289,-0.2975,-0.0038,996,1502,1500,1500,2008,1000,1505,1000,1000,1505,1005,1000,1014,-0.0120,0.6707,0.1476,-0.0156,0.0049,1.0088,0.5226,0.0725,-0.5302,-0.0649,0.8627,0.2400,0.1321,0.8627,0.2400,0.1321,0.3000,0.0600,0.0002,0,-2.2635,-3.5000,-0.0010,-2.2635,-3.5000,-0.0010,34.4914,-19.2028,0.0200,0.0000
-19.4271,34.3593,-5.9296,-0.0829,-0.0821,0.1200,0.0000,0.0000,0.0000,0.2283,-0.2968,-0.0042,996,1502,1500,1500,2008,1000,1505,1000,1000,1505,1005,1000,1014,0.2210,0.2696,0.2432,-0.0075,-0.0029,1.0011,0.5210,0.0726,-0.5293,-0.0643,0.8627,0.2400,0.1321,0.8627,0.2400,0.1321,0.3000,0.0600,0.0002,0,-2.2635,-3.5000,-0.0010,-2.2635,-3.5000,-0.0010,34.4538,-19.1833,0.0200,0.0000
-19.3978,34.3269,-5.9124,-0.0000,0.0000,0.1200,0.0000,0.0000,0.0000,0.2281,-0.2959,-0.0040,996,1502,1500,1500,2008,1000,1505,1000,1000,1505,1005,1000,1014,0.2255,-0.1812,0.2482,-0.0051,-0.0068,1.0063,0.5199,0.0719,-0.5280,-0.0638,0.8627,0.2400,0.1321,0.8627,0.2400,0.1321,0.3000,0.0600,0.0002,0,-2.2635,-3.5000,-0.0010,-2.2635,-3.5000,-0.0010,34.4158,-19.1637,0.0200,0.0000
-19.3682,34.2906,-5.8943,-0.0000,-0.0821,0.1800,0.0000,0.0000,0.0000,0.2285,-0.2952,-0.0049,996,1502,1500,1500,2008,1000,1505,1000,1000,1505,1005,1000,1014,0.1201,-0.4778,0.1688,-0.0155,-0.0087,1.0041,0.5188,0.0716,-0.5285,-0.0619,0.8627,0.2400,0.1321,0.8627,0.2400,0.1321,0.3000,0.0600,0.0002,0,-2.2635,-3.5000,-0.0010,-2.2635,-3.5000,-0.0010,34.3775,-19.1433,0.0300,0.0000
-19.3408,34.2530,-5.8763,-0.0829,-0.0821,0.1200,0.0000,0.0000,0.0000,0.2280,-0.2948,-0.0038,996,1502,1500,1500,2008,1000,1505,1000,1000,1505,1005,1000,1014,-0.0956,-0.5059,0.1158,-0.0250,-0.0074,1.0006,0.5191,0.0706,-0.5266,-0.0631,0.8627,0.2400,0.1321,0.8627,0.2400,0.1321,0.3000,0.0600,0.0002,0,-2.2635,-3.5000,-0.0010,-2.2635,-3.5000,-0.0010,34.3393,-19.1215,0.0200,0.0000
-19.3159,34.2167,-5.8590,-0.0000,0.0821,0.1200,0.0000,0.0000,0.0000,0.2281,-0.2949,-0.0037,996,1502,1500,1500,2008,1000,1505,1000,1000,1505,1005,1000,1014,-0.3578,-0.2238,0.1210,-0.0326,-0.0012,1.0065,0.5193,0.0705,-0.5267,-0.0630,0.8627,0.2400,0.1321,0.8627,0.2400,0.1321,0.3000,0.0600,0.0002,0,-2.2635,-3.5000,-0.0010,-2.2635,-3.5000,-0.0010,34.3021,-19.0988,0.0200,0.0000
-19.2928,34.1829,-5.8428,-0.1657,0.0000,0.1200,0.0000,0.0000,0.0000,0.2279,-0.2949,-0.0036,996,1502,1500,1500,2008,1000,1505,1000,1000,1505,1005,1000,1014,-0.3369,0.0170,0.0744,-0.0332,0.0021,1.0056,0.5193,0.0706,-0.5264,-0.0634,0.8627,0.2400,0.1321,0.8627,0.2400,0.1321,0.3000,0.0600,0.0002,0,-2.2635,-3.5000,-0.0010,-2.2635,-3.5000,-0.0010,34.2653,-19.0755,0.0200,0.0000
-19.2696,34.1518,-5.8279,-0.0000,-0.0821,0.1200,0.0000,0.0000,0.0000,0.2276,-0.2950,-0.0037,996,1502,1500,1500,2008,1000,1505,1000,1000,1505,1005,1000,1014,-0.2141,0.2693,0.0971,-0.0249,0.0028,1.0126,0.5189,0.0711,-0.5262,-0.0638,0.8627,0.2400,0.1321,0.8627,0.2400,0.1321,0.3000,0.0600,0.0002,0,-2.2635,-3.5000,-0.0010,-2.2635,-3.5000,-0.0010,34.2283,-19.0520,0.0200,0.0000
-19.2439,34.1224,-5.8130,-0.0000,0.0000,0.1200,0.0000,0.0000,0.0000,0.2270,-0.2949,-0.0037,996,1502,1500,1500,2008,1000,1505,1000,1000,1505,1005,1000,1014,0.0564,0.3889,0.1216,-0.0204,0.0074,1.0079,0.5182,0.0716,-0.5256,-0.0642,0.8627,0.2400,0.1321,0.8627,0.2400,0.1321,0.3000,0.0600,0.0002,0,-2.2635,-3.5000,-0.0010,-2.2635,-3.5000,-0.0010,34.1916,-19.0297,0.0200,0.0000
-19.2161,34.0932,-5.7986,-0.0000,0.0000,0.1800,0.0000,0.0000,0.0000,0.2270,-0.2944,-0.0046,996,1502,1500,1500,2008,1000,1505,1000,1000,1505,1005,1000,1014,0.2866,0.2353,0.0895,-0.0194,0.0009,1.0121,0.5168,0.0721,-0.5260,-0.0629,0.8627,0.2400,0.1321,0.8627,0.2400,0.1321,0.3000,0.0600,0.0002,0,-2.2635,-3.5000,-0.0010,-2.2635,-3.5000,-0.0010,34.1544,-19.0075,0.0300,0.0000
-19.1864,34.0622,-5.7840,-0.0000,-0.0821,0.1200,0.0000,0.0000,0.0000,0.2260,-0.2940,-0.0034,996,1502,1500,1500,2008,1000,1505,1000,1000,1505,1005,1000,1014,0.4413,0.1075,0.0449,-0.0234,-0.0124,1.0079,0.5165,0.0715,-0.5234,-0.0646,0.8627,0.2400,0.1321,0.8627,0.2400,0.1321,0.3000,0.0600,0.0002,0,-2.2635,-3.5000,-0.0010,-2.2635,-3.5000,-0.0010,34.1170,-18.9851,0.0200,0.0000
-19.1574,34.0303,-5.7697,-0.0829,-0.0821,0.1200,0.0000,0.0000,0.0000,0.2260,-0.2938,-0.0037,996,1502,1500,1500,2008,1000,1505,1000,1000,1505,1005,1000,1014,0.2035,0.1908,0.1033,-0.0144,-0.0198,1.0186,0.5162,0.0715,-0.5235,-0.0641,0.8627,0.2400,0.1321,0.8627,0.2400,0.1321,0.3000,0.0600,0.0002,0,-2.2635,-3.5000,-0.0010,-2.2635,-3.5000,-0.0010,34.0790,-18.9630,0.0200,0.0000
-19.1326,33.9973,-5.7564,-0.0829,0.0000,0.1200,0.0000,0.0000,0.0000,0.2262,-0.2934,-0.0031,996,1502,1500,1500,2008,1000,1505,1000,1000,1505,1005,1000,1014,-0.1187,0.1004,-0.0923,-0.0046,-0.0129,0.9746,0.5166,0.0702,-0.5227,-0.0641,0.8627,0.2400,0.1321,0.8627,0.2400,0.1321,0.3000,0.0600,0.0002,0,-2.2635,-3.5000,-0.0010,-2.2635,-3.5000,-0.0010,34.0415,-18.9407,0.0200,0.0000
-19.1124,33.9644,-5.7445,-0.0829,-0.0821,0.1200,0.0000,0.0000,0.0000,0.2267,-0.2929,-0.0029,996,1502,1500,1500,2008,1000,1505,1000,1000,1505,1005,1000,1014,-0.5689,-0.0881,-0.1327,-0.0372,-0.0025,0.9885,0.5167,0.0691,-0.5225,-0.0633,0.8627,0.2400,0.1321,0.8627,0.2400,0.1321,0.3000,0.0600,0.0002,0,-2.2635,-3.5000,-0.0010,-2.2635,-3.5000,-0.0010,34.0042,-18.9162,0.0200,0.0000
-19.0937,33.9276,-5.7306,-0.0000,0.0000,0.1200,0.0000,0.0000,0.0000,0.2268,-0.2923,-0.0027,996,1502,1500,1500,2008,1000,1505,1000,1000,1505,1005,1000,1014,-0.7636,-0.3309,-0.1967,-0.0298,0.0046,1.0185,0.5163,0.0682,-0.5218,-0.0628,0.8627,0.2400,0.1321,0.8627,0.2400,0.1321,0.3000,0.0600,0.0002,0,-2.2635,-3.5000,-0.0010,-2.2635,-3.5000,-0.0010,33.9687,-18.8900,0.0200,0.0000
-19.0749,33.8926,-5.7157,-0.0000,-0.0821,0.1800,0.0000,0.0000,0.0000,0.2269,-0.2922,-0.0046,996,1502,1500,1500,2008,1000,1505,1000,1000,1505,1005,1000,1014,-0.5824,-0.1325,0.0949,-0.0117,0.0128,1.0291,0.5145,0.0700,-0.5237,-0.0607,0.8627,0.2400,0.1321,0.8627,0.2400,0.1321,0.3000,0.0600,0.0002,0,-2.2635,-3.5000,-0.0010,-2.2635,-3.5000,-0.0010,33.9325,-18.8642,0.0300,0.0000
-19.0507,33.8603,-5.6990,-0.0000,-0.0821,0.1200,0.0000,0.0000,0.0000,0.2254,-0.2925,-0.0039,996,1502,1500,1500,2008,1000,1505,1000,1000,1505,1005,1000,1014,0.0037,0.2865,0.1802,-0.0191,0.0203,0.9843,0.5140,0.0710,-0.5218,-0.0632,0.8627,0.2400,0.1321,0.8627,0.2400,0.1321,0.3000,0.0600,0.0002,0,-2.2635,-3.5000,-0.0010,-2.2635,-3.5000,-0.0010,33.8946,-18.8424,0.0200,0.0000
-19.0185,33.8299,-5.6819,-0.0000,0.0000,0.1200,0.0000,0.0000,0.0000,0.2242,-0.2918,-0.0042,996,1502,1500,1500,2008,1000,1505,1000,1000,1505,1005,1000,1014,0.6530,-0.0620,0.2645,-0.0461,0.0003,0.9979,0.5118,0.0717,-0.5202,-0.0633,0.8627,0.2400,0.1321,0.8627,0.2400,0.1321,0.3000,0.0600,0.0002,0,-2.2635,-3.5000,-0.0010,-2.2635,-3.5000,-0.0010,33.8584,-18.8200,0.0200,0.0000
-18.9822,33.7966,-5.6639,-0.1657,-0.1642,0.1200,0.0000,0.0000,0.0000,0.2236,-0.2915,-0.0043,996,1502,1500,1500,2008,1000,1505,1000,1000,1505,1005,1000,1014,0.9027,-0.0258,0.3260,-0.0255,-0.0191,1.0188,0.5108,0.0723,-0.5195,-0.0636,0.8627,0.2400,0.1321,0.8627,0.2400,0.1321,0.3000,0.0600,0.0002,0,-2.2635,-3.5000,-0.0010,-2.2635,-3.5000,-0.0010,33.8211,-18.7986,0.0200,0.0000
-18.9491,33.7652,-5.6465,-0.0829,0.0000,0.1200,0.0000,0.0000,0.0000,0.2241,-0.2917,-0.0044,996,1502,1500,1500,2008,1000,1505,1000,1000,1505,1005,1000,1014,0.2996,0.3462,0.3479,-0.0125,-0.0069,1.0166,0.5114,0.0721,-0.5203,-0.0632,0.8627,0.2400,0.1321,0.8627,0.2400,0.1321,0.3000,0.0600,0.0002,0,-2.2635,-3.5000,-0.0010,-2.2635,-3.5000,-0.0010,33.7831,-18.7787,0.0200,0.0000
-18.9234,33.7370,-5.6311,-0.2486,-0.1642,0.1200,0.0000,0.0000,0.0000,0.2248,-0.2917,-0.0038,996,1502,1500,1500,2008,1000,1505,1000,1000,1505,1005,1000,1014,-0.3529,0.4666,0.1557,-0.0205,-0.0014,0.9867,0.5126,0.0707,-0.5202,-0.0631,0.8627,0.2400,0.1321,0.8627,0.2400,0.1321,0.3000,0.0600,0.0002,0,-2.2635,-3.5000,-0.0010,-2.2635,-3.5000,-0.0010,33.7459,-18.7579,0.0200,0.0000
-18.9042,33.7056,-5.6170,-0.0000,-0.0821,0.1800,0.0000,0.0000,0.0000,0.2256,-0.2906,-0.0045,996,1502,1500,1500,2008,1000,1505,1000,1000,1505,1005,1000,1014,-0.7210,-0.1173,0.0623,-0.0157,-0.0132,0.9926,0.5117,0.0696,-0.5208,-0.0605,0.8627,0.2400,0.1321,0.8627,0.2400,0.1321,0.3000,0.0600,0.0002,0,-2.2635,-3.5000,-0.0010,-2.2635,-3.5000,-0.0010,33.7103,-18.7365,0.0300,0.0000
-18.8868,33.6700,-5.6012,-0.0000,-0.0821,0.1200,0.0000,0.0000,0.0000,0.2250,-0.2902,-0.0038,996,1502,1500,1500,2008,1000,1505,1000,1000,1505,1005,1000,1014,-0.7468,-0.2003,0.1468,-0.0061,-0.0015,1.0156,0.5113,0.0691,-0.5190,-0.0614,0.8627,0.2400,0.1321,0.8627,0.2400,0.1321,0.3000,0.0600,0.0002,0,-2.2635,-3.5000,-0.0010,-2.2635,-3.5000,-0.0010,33.6739,-18.7161,0.0200,0.0000
-18.8643,33.6356,-5.5839,-0.0000,-0.0821,0.1200,0.0000,0.0000,0.0000,0.2240,-0.2899,-0.0040,996,1502,1500,1500,2008,1000,1505,1000,1000,1505,1005,1000,1014,-0.1608,-0.2216,0.2107,-0.0156,0.0166,1.0057,0.5099,0.0699,-0.5179,-0.0619,0.8627,0.2400,0.1321,0.8627,0.2400,0.1321,0.3000,0.0600,0.0002,0,-2.2635,-3.5000,-0.0010,-2.2635,-3.5000,-0.0010,33.6367,-18.6958,0.0200,0.0000
-18.8338,33.6011,-5.5653,-0.0829,-0.1642,0.1200,0.0000,0.0000,0.0000,0.2230,-0.2894,-0.0043,996,1502,1500,1500,2008,1000,1505,1000,1000,1505,1005,1000,1014,0.3713,-0.3250,0.3010,-0.0309,0.0134,0.9981,0.5082,0.0707,-0.5167,-0.0622,0.8627,0.2400,0.1321,0.8627,0.2400,0.1321,0.3000,0.0600,0.0002,0,-2.2635,-3.5000,-0.0010,-2.2635,-3.5000,-0.0010,33.5993,-18.6744,0.0200,0.0000
-18.7995,33.5638,-5.5455,-0.0000,0.0000,0.1200,0.0000,0.0000,0.0000,0.2225,-0.2888,-0.0041,996,1502,1500,1500,2008,1000,1505,1000,1000,1505,1005,1000,1014,0.5293,-0.5529,0.2415,-0.0290,-0.0024,0.9944,0.5072,0.0704,-0.5155,-0.0622,0.8627,0.2400,0.1321,0.8627,0.2400,0.1321,0.3000,0.0600,0.0002,0,-2.2635,-3.5000,-0.0010,-2.2635,-3.5000,-0.0010,33.5619,-18.6529,0.0200,0.0000
-18.7666,33.5281,-5.5268,-0.0000,-0.0821,0.1200,0.0000,0.0000,0.0000,0.2226,-0.2891,-0.0043,996,1502,1500,1500,2008,1000,1505,1000,1000,1505,1005,1000,1014,0.2643,-0.1272,0.2973,-0.0232,-0.0040,1.0113,0.5074,0.0707,-0.5159,-0.0622,0.8627,0.2400,0.1321,0.8627,0.2400,0.1321,0.3000,0.0600,0.0002,0,-2.2635,-3.5000,-0.0010,-2.2635,-3.5000,-0.0010,33.5238,-18.6318,0.0200,0.0000
-18.7387,33.4972,-5.5102,-0.0829,0.0000,0.1800,0.0000,0.0000,0.0000,0.2233,-0.2895,-0.0051,996,1502,1500,1500,2008,1000,1505,1000,1000,1505,1005,1000,1014,-0.0623,0.4134,0.2839,-0.0290,-0.0041,1.0170,0.5077,0.0714,-0.5180,-0.0611,0.8627,0.2400,0.1321,0.8627,0.2400,0.1321,0.3000,0.0600,0.0002,0,-2.2635,-3.5000,-0.0010,-2.2635,-3.5000,-0.0010,33.4853,-18.6112,0.0300,0.0000
-18.7152,33.4685,-5.4966,-0.0829,-0.0821,0.1200,0.0000,0.0000,0.0000,0.2228,-0.2892,-0.0033,996,1502,1500,1500,2008,1000,1505,1000,1000,1505,1005,1000,1014,-0.2586,0.3789,0.0032,-0.0284,-0.0135,1.0028,0.5087,0.0697,-0.5154,-0.0631,0.8627,0.2400,0.1321,0.8627,0.2400,0.1321,0.3000,0.0600,0.0002,0,-2.2635,-3.5000,-0.0010,-2.2635,-3.5000,-0.0010,33.4481,-18.5896,0.0200,0.0000
-18.6942,33.4373,-5.4845,-0.0829,0.0000,0.1200,0.0000,0.0000,0.0000,0.2227,-0.2887,-0.0031,996,1502,1500,1500,2008,1000,1505,1000,1000,1505,1005,1000,1014,-0.2666,0.1432,-0.0683,-0.0199,-0.0099,0.9893,0.5082,0.0691,-0.5144,-0.0629,0.8627,0.2400,0.1321,0.8627,0.2400,0.1321,0.3000,0.0600,0.0002,0,-2.2635,-3.5000,-0.0010,-2.2635,-3.5000,-0.0010,33.4110,-18.5670,0.0200,0.0000
-18.6727,33.4028,-5.4719,-0.0000,0.0000,0.1200,0.0000,0.0000,0.0000,0.2225,-0.2879,-0.0031,996,1502,1500,1500,2008,1000,1505,1000,1000,1505,1005,1000,1014,-0.2518,-0.1692,-0.1146,-0.0151,0.0039,1.0132,0.5073,0.0685,-0.5135,-0.0624,0.8627,0.2400,0.1321,0.8627,0.2400,0.1321,0.3000,0.0600,0.0002,0,-2.2635,-3.5000,-0.0010,-2.2635,-3.5000,-0.0010,33.3737,-18.5446,0.0200,0.0000
-18.6487,33.3668,-5.4582,-0.0000,0.0000,0.1200,0.0000,0.0000,0.0000,0.2220,-0.2876,-0.0031,996,1502,1500,1500,2008,1000,1505,1000,1000,1505,1005,1000,1014,-0.0817,-0.1834,-0.0841,-0.0149,0.0061,1.0177,0.5065,0.0687,-0.5128,-0.0625,0.8627,0.2400,0.1321,0.8627,0.2400,0.1321,0.3000,0.0600,0.0002,0,-2.2635,-3.5000,-0.0010,-2.2635,-3.5000,-0.0010,33.3365,-18.5217,0.0200,0.0000
-18.6237,33.3311,-5.4444,-0.0000,-0.0821,0.1200,0.0000,0.0000,0.0000,0.2216,-0.2872,-0.0031,996,1502,1500,1500,2008,1000,1505,1000,1000,1505,1005,1000,1014,0.0687,-0.2337,-0.0984,-0.0165,0.0003,0.9948,0.5058,0.0687,-0.5119,-0.0625,0.8627,0.2400,0.1321,0.8627,0.2400,0.1321,0.3000,0.0600,0.0002,0,-2.2635,-3.5000,-0.0010,-2.2635,-3.5000,-0.0010,33.2988,-18.4986,0.0200,0.0000
-18.5971,33.2942,-5.4302,-0.0000,0.0000,0.1800,0.0000,0.0000,0.0000,0.2219,-0.2869,-0.0042,996,1502,1500,1500,2008,1000,1505,1000,1000,1505,1005,1000,1014,0.0770,-0.2597,-0.0569,-0.0240,0.0011,0.9937,0.5046,0.0692,-0.5129,-0.0608,0.8627,0.2400,0.1321,0.8627,0.2400,0.1321,0.3000,0.0600,0.0002,0,-2.2635,-3.5000,-0.0010,-2.2635,-3.5000,-0.0010,33.2612,-18.4758,0.0300,0.0000
-18.5705,33.2585,-5.4158,-0.0829,0.0000,0.1200,0.0000,0.0000,0.0000,0.2212,-0.2867,-0.0034,996,1502,1500,1500,2008,1000,1505,1000,1000,1505,1005,1000,1014,-0.0012,-0.1676,0.0027,-0.0289,0.0060,1.0118,0.5045,0.0689,-0.5114,-0.0620,0.8627,0.2400,0.1321,0.8627,0.2400,0.1321,0.3000,0.0600,0.0002,0,-2.2635,-3.5000,-0.0010,-2.2635,-3.5000,-0.0010,33.2240,-18.4527,0.0200,0.0000
-18.5447,33.2244,-5.4006,-0.0000,-0.0821,0.1200,0.0000,0.0000,0.0000,0.2211,-0.2867,-0.0037,996,1502,1500,1500,2008,1000,1505,1000,1000,1505,1005,1000,1014,-0.0516,0.0357,0.1108,-0.0272,-0.0014,1.0153,0.5041,0.0693,-0.5115,-0.0619,0.8627,0.2400,0.1321,0.8627,0.2400,0.1321,0.3000,0.0600,0.0002,0,-2.2635,-3.5000,-0.0010,-2.2635,-3.5000,-0.0010,33.1872,-18.4298,0.0200,0.0000
-18.5199,33.1923,-5.3865,-0.0829,-0.0821,0.1200,0.0000,0.0000,0.0000,0.2208,-0.2867,-0.0034,996,1502,1500,1500,2008,1000,1505,1000,1000,1505,1005,1000,1014,-0.0284,0.2457,0.0135,-0.0250,-0.0088,1.0001,0.5041,0.0693,-0.5110,-0.0624,0.8627,0.2400,0.1321,0.8627,0.2400,0.1321,0.3000,0.0600,0.0002,0,-2.2635,-3.5000,-0.0010,-2.2635,-3.5000,-0.0010,33.1504,-18.4085,0.0200,0.0000
-18.4945,33.1607,-5.3728,-0.1657,-0.2462,0.1200,0.0000,0.0000,0.0000,0.2204,-0.2863,-0.0037,996,1502,1500,1500,2008,1000,1505,1000,1000,1505,1005,1000,1014,0.1293,0.1651,0.0977,-0.0186,-0.0071,0.9935,0.5030,0.0696,-0.5104,-0.0622,0.8627,0.2400,0.1321,0.8627,0.2400,0.1321,0.3000,0.0600,0.0002,0,-2.2635,-3.5000,-0.0010,-2.2635,-3.5000,-0.0010,33.1134,-18.3871,0.0200,0.0000
-18.4679,33.1279,-5.3583,-0.0829,-0.0821,0.1200,0.0000,0.0000,0.0000,0.2202,-0.2858,-0.0036,996,1502,1500,1500,2008,1000,1505,1000,1000,1505,1005,1000,1014,0.1067,-0.0191,0.0591,-0.0209,-0.0056,1.0137,0.5024,0.0691,-0.5095,-0.0620,0.8627,0.2400,0.1321,0.8627,0.2400,0.1321,0.3000,0.0600,0.0002,0,-2.2635,-3.5000,-0.0010,-2.2635,-3.5000,-0.0010,33.0766,-18.3655,0.0200,0.0000
-18.4419,33.0929,-5.3434,-0.1657,-0.1642,0.1800,0.0000,0.0000,0.0000,0.2208,-0.2853,-0.0047,996,1502,1500,1500,2008,1000,1505,1000,1000,1505,1005,1000,1014,-0.0833,-0.1384,0.1181,-0.0176,-0.0047,1.0107,0.5013,0.0693,-0.5108,-0.0598,0.8627,0.2400,0.1321,0.8627,0.2400,0.1321,0.3000,0.0600,0.0002,0,-2.2635,-3.5000,-0.0010,-2.2635,-3.5000,-0.0010,33.0393,-18.3439,0.0300,0.0000
-18.4170,33.0567,-5.3272,-0.0000,0.0000,0.1200,0.0000,0.0000,0.0000,0.2202,-0.2847,-0.0038,996,1502,1500,1500,2008,1000,1505,1000,1000,1505,1005,1000,1014,-0.1904,-0.3586,0.1237,-0.0227,-0.0009,0.9962,0.5011,0.0683,-0.5086,-0.0608,0.8627,0.2400,0.1321,0.8627,0.2400,0.1321,0.3000,0.0600,0.0002,0,-2.2635,-3.5000,-0.0010,-2.2635,-3.5000,-0.0010,33.0026,-18.3221,0.0200,0.0000
-18.3919,33.0196,-5.3102,-0.0829,0.0000,0.1200,0.0000,0.0000,0.0000,0.2200,-0.2844,-0.0039,996,1502,1500,1500,2008,1000,1505,1000,1000,1505,1005,1000,1014,-0.2011,-0.3461,0.1589,-0.0287,-0.0003,0.9978,0.5005,0.0683,-0.5083,-0.0605,0.8627,0.2400,0.1321,0.8627,0.2400,0.1321,0.3000,0.0600,0.0002,0,-2.2635,-3.5000,-0.0010,-2.2635,-3.5000,-0.0010,32.9658,-18.2997,0.0200,0.0000
-18.3664,32.9828,-5.2922,-0.0829,0.0000,0.1200,0.0000,0.0000,0.0000,0.2197,-0.2842,-0.0042,996,1502,1500,1500,2008,1000,1505,1000,1000,1505,1005,1000,1014,-0.1884,-0.2815,0.2693,-0.0235,0.0002,1.0104,0.4997,0.0686,-0.5081,-0.0602,0.8627,0.2400,0.1321,0.8627,0.2400,0.1321,0.3000,0.0600,0.0002,0,-2.2635,-3.5000,-0.0010,-2.2635,-3.5000,-0.0010,32.9287,-18.2784,0.0200,0.0000
-18.3407,32.9497,-5.2748,-0.0829,0.0000,0.1200,0.0000,0.0000,0.0000,0.2194,-0.2844,-0.0045,996,1502,1500,1500,2008,1000,1505,1000,1000,1505,1005,1000,1014,-0.0836,0.1076,0.3547,-0.0208,0.0069,1.0128,0.4993,0.0695,-0.5082,-0.0606,0.8627,0.2400,0.1321,0.8627,0.2400,0.1321,0.3000,0.0600,0.0002,0,-2.2635,-3.5000,-0.0010,-2.2635,-3.5000,-0.0010,32.8909,-18.2574,0.0200,0.0000
-18.3135,32.9198,-5.2583,-0.0829,-0.1642,0.1200,0.0000,0.0000,0.0000,0.2190,-0.2845,-0.0043,996,1502,1500,1500,2008,1000,1505,1000,1000,1505,1005,1000,1014,0.0546,0.3560,0.2989,-0.0215,0.0096,1.0079,0.4991,0.0698,-0.5077,-0.0612,0.8627,0.2400,0.1321,0.8627,0.2400,0.1321,0.3000,0.0600,0.0002,0,-2.2635,-3.5000,-0.0010,-2.2635,-3.5000,-0.0010,32.8534,-18.2367,0.0200,0.0000
-18.2853,32.8900,-5.2426,-0.0829,-0.0821,0.1800,0.0000,0.0000,0.0000,0.2190,-0.2839,-0.0052,996,1502,1500,1500,2008,1000,1505,1000,1000,1505,1005,1000,1014,0.2475,0.1496,0.2841,-0.0225,-0.0057,0.9995,0.4977,0.0702,-0.5081,-0.0598,0.8627,0.2400,0.1321,0.8627,0.2400,0.1321,0.3000,0.0600,0.0002,0,-2.2635,-3.5000,-0.0010,-2.2635,-3.5000,-0.0010,32.8161,-18.2168,0.0300,0.0000
-18.2566,32.8568,-5.2262,-0.0000,0.0000,0.1200,0.0000,0.0000,0.0000,0.2182,-0.2833,-0.0042,996,1502,1500,1500,2008,1000,1505,1000,1000,1505,1005,1000,1014,0.2356,-0.0810,0.2867,-0.0160,-0.0137,1.0106,0.4973,0.0694,-0.5058,-0.0609,0.8627,0.2400,0.1321,0.8627,0.2400,0.1321,0.3000,0.0600,0.0002,0,-2.2635,-3.5000,-0.0010,-2.2635,-3.5000,-0.0010,32.7781,-18.1964,0.0200,0.0000
-18.2287,32.8219,-5.2098,-0.0000,0.0000,0.1200,0.0000,0.0000,0.0000,0.2181,-0.2829,-0.0038,996,1502,1500,1500,2008,1000,1505,1000,1000,1505,1005,1000,1014,0.1204,-0.2099,0.1529,-0.0116,-0.0120,1.0150,0.4972,0.0686,-0.5049,-0.0609,0.8627,0.2400,0.1321,0.8627,0.2400,0.1321,0.3000,0.0600,0.0002,0,-2.2635,-3.5000,-0.0010,-2.2635,-3.5000,-0.0010,32.7395,-18.1756,0.0200,0.0000
-18.2040,32.7863,-5.1948,-0.0829,0.0000,0.1200,0.0000,0.0000,0.0000,0.2184,-0.2826,-0.0034,996,1502,1500,1500,2008,1000,1505,1000,1000,1505,1005,1000,1014,-0.2555,-0.1787,-0.0080,-0.0222,-0.0043,1.0000,0.4977,0.0675,-0.5044,-0.0608,0.8627,0.2400,0.1321,0.8627,0.2400,0.1321,0.3000,0.0600,0.0002,0,-2.2635,-3.5000,-0.0010,-2.2635,-3.5000,-0.0010,32.7016,-18.1542,0.0200,0.0000
-18.1828,32.7490,-5.1805,-0.0000,-0.0821,0.1200,0.0000,0.0000,0.0000,0.2186,-0.2820,-0.0032,996,1502,1500,1500,2008,1000,1505,1000,1000,1505,1005,1000,1014,-0.5143,-0.3729,-0.0553,-0.0315,-0.0013,0.9992,0.4974,0.0667,-0.5039,-0.0602,0.8627,0.2400,0.1321,0.8627,0.2400,0.1321,0.3000,0.0600,0.0002,0,-2.2635,-3.5000,-0.0010,-2.2635,-3.5000,-0.0010,32.6646,-18.1307,0.0200,0.0000
-18.1626,32.7122,-5.1662,-0.0829,0.0000,0.1200,0.0000,0.0000,0.0000,0.2184,-0.2819,-0.0034,996,1502,1500,1500,2008,1000,1505,1000,1000,1505,1005,1000,1014,-0.5295,-0.1978,-0.0013,-0.0277,0.0044,1.0171,0.4970,0.0669,-0.5038,-0.0601,0.8627,0.2400,0.1321,0.8627,0.2400,0.1321,0.3000,0.0600,0.0002,0,-2.2635,-3.5000,-0.0010,-2.2635,-3.5000,-0.0010,32.6280,-18.1064,0.0200,0.0000
-18.1409,32.6773,-5.1520,-0.0829,0.0000,0.1800,0.0000,0.0000,0.0000,0.2184,-0.2820,-0.0044,996,1502,1500,1500,2008,1000,1505,1000,1000,1505,1005,1000,1014,-0.2741,0.0554,0.0201,-0.0218,0.0093,1.0088,0.4960,0.0680,-0.5048,-0.0592,0.8627,0.2400,0.1321,0.8627,0.2400,0.1321,0.3000,0.0600,0.0002,0,-2.2635,-3.5000,-0.0010,-2.2635,-3.5000,-0.0010,32.5912,-18.0831,0.0300,0.0000
-18.1151,32.6456,-5.1382,-0.0000,0.0000,0.1200,0.0000,0.0000,0.0000,0.2170,-0.2819,-0.0036,996,1502,1500,1500,2008,1000,1505,1000,1000,1505,1005,1000,1014,0.2236,0.2113,0.0467,-0.0243,0.0075,0.9971,0.4954,0.0685,-0.5025,-0.0613,0.8627,0.2400,0.1321,0.8627,0.2400,0.1321,0.3000,0.0600,0.0002,0,-2.2635,-3.5000,-0.0010,-2.2635,-3.5000,-0.0010,32.5542,-18.0602,0.0200,0.0000
-18.0861,32.6148,-5.1246,-0.0829,0.0000,0.1200,0.0000,0.0000,0.0000,0.2165,-0.2816,-0.0035,996,1502,1500,1500,2008,1000,1505,1000,1000,1505,1005,1000,1014,0.4459,0.2099,0.0654,-0.0221,-0.0001,0.9992,0.4946,0.0687,-0.5016,-0.0616,0.8627,0.2400,0.1321,0.8627,0.2400,0.1321,0.3000,0.0600,0.0002,0,-2.2635,-3.5000,-0.0010,-2.2635,-3.5000,-0.0010,32.5170,-18.0386,0.0200,0.0000
-18.0563,32.5828,-5.1106,-0.0000,-0.0821,0.1200,0.0000,0.0000,0.0000,0.2163,-0.2812,-0.0035,996,1502,1500,1500,2008,1000,1505,1000,1000,1505,1005,1000,1014,0.3463,0.0504,0.0263,-0.0185,-0.0058,1.0062,0.4941,0.0683,-0.5010,-0.0614,0.8627,0.2400,0.1321,0.8627,0.2400,0.1321,0.3000,0.0600,0.0002,0,-2.2635,-3.5000,-0.0010,-2.2635,-3.5000,-0.0010,32.4800,-18.0165,0.0200,0.0000
-18.0297,32.5490,-5.0980,-0.0000,0.0000,0.1200,0.0000,0.0000,0.0000,0.2164,-0.2808,-0.0034,996,1502,1500,1500,2008,1000,1505,1000,1000,1505,1005,1000,1014,0.1298,-0.0019,0.0095,-0.0169,-0.0102,1.0070,0.4938,0.0678,-0.5006,-0.0610,0.8627,0.2400,0.1321,0.8627,0.2400,0.1321,0.3000,0.0600,0.0002,0,-2.2635,-3.5000,-0.0010,-2.2635,-3.5000,-0.0010,32.4434,-17.9946,0.0200,0.0000
-18.0064,32.5134,-5.0853,-0.0000,-0.0821,0.1200,0.0000,0.0000,0.0000,0.2166,-0.2802,-0.0029,996,1502,1500,1500,2008,1000,1505,1000,1000,1505,1005,1000,1014,-0.2052,-0.1886,-0.1698,-0.0194,-0.0159,0.9980,0.4940,0.0665,-0.4998,-0.0607,0.8627,0.2400,0.1321,0.8627,0.2400,0.1321,0.3000,0.0600,0.0002,0,-2.2635,-3.5000,-0.0010,-2.2635,-3.5000,-0.0010,32.4071,-17.9722,0.0200,0.0000
-17.9854,32.4757,-5.0725,-0.0000,-0.0821,0.1800,0.0000,0.0000,0.0000,0.2172,-0.2798,-0.0040,996,1502,1500,1500,2008,1000,1505,1000,1000,1505,1005,1000,1014,-0.3953,-0.3009,-0.1043,-0.0195,-0.0096,0.9975,0.4930,0.0666,-0.5010,-0.0585,0.8627,0.2400,0.1321,0.8627,0.2400,0.1321,0.3000,0.0600,0.0002,0,-2.2635,-3.5000,-0.0010,-2.2635,-3.5000,-0.0010,32.3708,-17.9496,0.0300,0.0000
-17.9652,32.4382,-5.0590,-0.1657,-0.1642,0.1200,0.0000,0.0000,0.0000,0.2166,-0.2795,-0.0033,996,1502,1500,1500,2008,1000,1505,1000,1000,1505,1005,1000,1014,-0.4468,-0.2754,-0.0370,-0.0242,0.0057,1.0087,0.4928,0.0662,-0.4994,-0.0596,0.8627,0.2400,0.1321,0.8627,0.2400,0.1321,0.3000,0.0600,0.0002,0,-2.2635,-3.5000,-0.0010,-2.2635,-3.5000,-0.0010,32.3338,-17.9258,0.0200,0.0000
-17.9430,32.4029,-5.0450,-0.0829,0.0000,0.1200,0.0000,0.0000,0.0000,0.2162,-0.2795,-0.0034,996,1502,1500,1500,2008,1000,1505,1000,1000,1505,1005,1000,1014,-0.2685,-0.0456,0.0077,-0.0234,0.0105,1.0079,0.4922,0.0667,-0.4991,-0.0599,0.8627,0.2400,0.1321,0.8627,0.2400,0.1321,0.3000,0.0600,0.0002,0,-2.2635,-3.5000,-0.0010,-2.2635,-3.5000,-0.0010,32.2971,-17.9026,0.0200,0.0000
-17.9183,32.3698,-5.0305,-0.2486,-0.1642,0.1200,0.0000,0.0000,0.0000,0.2157,-0.2794,-0.0039,996,1502,1500,1500,2008,1000,1505,1000,1000,1505,1005,1000,1014,-0.0257,0.0973,0.1445,-0.0274,0.0084,1.0000,0.4912,0.0676,-0.4989,-0.0599,0.8627,0.2400,0.1321,0.8627,0.2400,0.1321,0.3000,0.0600,0.0002,0,-2.2635,-3.5000,-0.0010,-2.2635,-3.5000,-0.0010,32.2604,-17.8802,0.0200,0.0000
-17.8899,32.3371,-5.0150,-0.0000,0.0000,0.1200,0.0000,0.0000,0.0000,0.2150,-0.2789,-0.0041,996,1502,1500,1500,2008,1000,1505,1000,1000,1505,1005,1000,1014,0.3023,-0.0382,0.2268,-0.0249,-0.0007,0.9973,0.4898,0.0680,-0.4980,-0.0599,0.8627,0.2400,0.1321,0.8627,0.2400,0.1321,0.3000,0.0600,0.0002,0,-2.2635,-3.5000,-0.0010,-2.2635,-3.5000,-0.0010,32.2235,-17.8589,0.0200,0.0000
-17.8592,32.3036,-4.9985,-0.0000,0.0000,0.1200,0.0000,0.0000,0.0000,0.2146,-0.2787,-0.0041,996,1502,1500,1500,2008,1000,1505,1000,1000,1505,1005,1000,1014,0.3816,0.0294,0.2497,-0.0215,-0.0056,1.0128,0.4892,0.0683,-0.4975,-0.0600,0.8627,0.2400,0.1321,0.8627,0.2400,0.1321,0.3000,0.0600,0.0002,0,-2.2635,-3.5000,-0.0010,-2.2635,-3.5000,-0.0010,32.1861,-17.8386,0.0200,0.0000
-17.8294,32.2700,-4.9819,-0.0000,-0.0821,0.1800,0.0000,0.0000,0.0000,0.2151,-0.2784,-0.0053,996,1502,1500,1500,2008,1000,1505,1000,1000,1505,1005,1000,1014,0.2027,0.0180,0.3188,-0.0159,-0.0097,1.0143,0.4882,0.0687,-0.4988,-0.0580,0.8627,0.2400,0.1321,0.8627,0.2400,0.1321,0.3000,0.0600,0.0002,0,-2.2635,-3.5000,-0.0010,-2.2635,-3.5000,-0.0010,32.1486,-17.8183,0.0300,0.0000
-17.8030,32.2361,-4.9658,-0.0000,0.0000,0.1200,0.0000,0.0000,0.0000,0.2148,-0.2781,-0.0040,996,1502,1500,1500,2008,1000,1505,1000,1000,1505,1005,1000,1014,-0.1572,0.0135,0.2178,-0.0193,-0.0091,0.9999,0.4889,0.0673,-0.4970,-0.0593,0.8627,0.2400,0.1321,0.8627,0.2400,0.1321,0.3000,0.0600,0.0002,0,-2.2635,-3.5000,-0.0010,-2.2635,-3.5000,-0.0010,32.1112,-17.7980,0.0200,0.0000
-17.7801,32.2015,-4.9505,-0.0000,0.0000,0.1200,0.0000,0.0000,0.0000,0.2149,-0.2776,-0.0038,996,1502,1500,1500,2008,1000,1505,1000,1000,1505,1005,1000,1014,-0.3854,-0.1196,0.1436,-0.0190,-0.0088,1.0023,0.4888,0.0665,-0.4964,-0.0589,0.8627,0.2400,0.1321,0.8627,0.2400,0.1321,0.3000,0.0600,0.0002,0,-2.2635,-3.5000,-0.0010,-2.2635,-3.5000,-0.0010,32.0737,-17.7772,0.0200,0.0000
-17.7588,32.1658,-4.9355,-0.0000,-0.0821,0.1200,0.0000,0.0000,0.0000,0.2148,-0.2773,-0.0036,996,1502,1500,1500,2008,1000,1505,1000,1000,1505,1005,1000,1014,-0.4076,-0.1591,0.0833,-0.0179,-0.0066,1.0107,0.4885,0.0661,-0.4957,-0.0589,0.8627,0.2400,0.1321,0.8627,0.2400,0.1321,0.3000,0.0600,0.0002,0,-2.2635,-3.5000,-0.0010,-2.2635,-3.5000,-0.0010,32.0357,-17.7561,0.0200,0.0000
-17.7369,32.1305,-4.9205,-0.0000,-0.0821,0.1200,0.0000,0.0000,0.0000,0.2145,-0.2771,-0.0038,996,1502,1500,1500,2008,1000,1505,1000,1000,1505,1005,1000,1014,-0.3074,-0.1031,0.1170,-0.0182,0.0031,1.0049,0.4877,0.0664,-0.4953,-0.0588,0.8627,0.2400,0.1321,0.8627,0.2400,0.1321,0.3000,0.0600,0.0002,0,-2.2635,-3.5000,-0.0010,-2.2635,-3.5000,-0.0010,31.9978,-17.7346,0.0200,0.0000
-17.7127,32.0954,-4.9051,-0.0000,0.0000,0.1200,0.0000,0.0000,0.0000,0.2141,-0.2767,-0.0038,996,1502,1500,1500,2008,1000,1505,1000,1000,1505,1005,1000,1014,-0.1690,-0.1233,0.1198,-0.0243,0.0094,1.0012,0.4870,0.0664,-0.4946,-0.0589,0.8627,0.2400,0.1321,0.8627,0.2400,0.1321,0.3000,0.0600,0.0002,0,-2.2635,-3.5000,-0.0010,-2.2635,-3.5000,-0.0010,31.9600,-17.7131,0.0200,0.0000
-17.6859,32.0603,-4.8889,-0.0829,-0.0821,0.1800,0.0000,0.0000,0.0000,0.2141,-0.2763,-0.0049,996,1502,1500,1500,2008,1000,1505,1000,1000,1505,1005,1000,1014,0.0295,-0.1862,0.1751,-0.0277,0.0098,1.0024,0.4856,0.0671,-0.4953,-0.0574,0.8627,0.2400,0.1321,0.8627,0.2400,0.1321,0.3000,0.0600,0.0002,0,-2.2635,-3.5000,-0.0010,-2.2635,-3.5000,-0.0010,31.9221,-17.6920,0.0300,0.0000
-17.6581,32.0251,-4.8722,-0.0829,0.0000,0.1200,0.0000,0.0000,0.0000,0.2133,-0.2760,-0.0040,996,1502,1500,1500,2008,1000,1505,1000,1000,1505,1005,1000,1014,0.0758,-0.1927,0.2087,-0.0248,-0.0036,1.0037,0.4853,0.0668,-0.4933,-0.0587,0.8627,0.2400,0.1321,0.8627,0.2400,0.1321,0.3000,0.0600,0.0002,0,-2.2635,-3.5000,-0.0010,-2.2635,-3.5000,-0.0010,31.8845,-17.6715,0.0200,0.0000
-17.6298,31.9908,-4.8562,-0.0829,0.0000,0.1200,0.0000,0.0000,0.0000,0.2129,-0.2762,-0.0038,996,1502,1500,1500,2008,1000,1505,1000,1000,1505,1005,1000,1014,0.1979,0.1330,0.1680,-0.0225,-0.0077,1.0069,0.4852,0.0671,-0.4929,-0.0595,0.8627,0.2400,0.1321,0.8627,0.2400,0.1321,0.3000,0.0600,0.0002,0,-2.2635,-3.5000,-0.0010,-2.2635,-3.5000,-0.0010,31.8466,-17.6511,0.0200,0.0000
-17.6027,31.9579,-4.8427,-0.0829,0.0000,0.1200,0.0000,0.0000,0.0000,0.2127,-0.2758,-0.0035,996,1502,1500,1500,2008,1000,1505,1000,1000,1505,1005,1000,1014,0.1476,0.0754,0.0276,-0.0265,-0.0086,1.0024,0.4850,0.0666,-0.4920,-0.0596,0.8627,0.2400,0.1321,0.8627,0.2400,0.1321,0.3000,0.0600,0.0002,0,-2.2635,-3.5000,-0.0010,-2.2635,-3.5000,-0.0010,31.8088,-17.6300,0.0200,0.0000
-17.5769,31.9241,-4.8295,-0.0000,0.0000,0.1200,0.0000,0.0000,0.0000,0.2126,-0.2755,-0.0033,996,1502,1500,1500,2008,1000,1505,1000,1000,1505,1005,1000,1014,0.0585,0.0403,-0.0214,-0.0215,-0.0108,0.9994,0.4847,0.0662,-0.4914,-0.0596,0.8627,0.2400,0.1321,0.8627,0.2400,0.1321,0.3000,0.0600,0.0002,0,-2.2635,-3.5000,-0.0010,-2.2635,-3.5000,-0.0010,31.7716,-17.6074,0.0200,0.0000
-17.5538,31.8890,-4.8172,-0.0000,0.0000,0.1200,0.0000,0.0000,0.0000,0.2128,-0.2750,-0.0031,996,1502,1500,1500,2008,1000,1505,1000,1000,1505,1005,1000,1014,-0.2717,-0.0810,-0.1002,-0.0180,-0.0077,1.0039,0.4848,0.0652,-0.4909,-0.0591,0.8627,0.2400,0.1321,0.8627,0.2400,0.1321,0.3000,0.0600,0.0002,0,-2.2635,-3.5000,-0.0010,-2.2635,-3.5000,-0.0010,31.7347,-17.5841,0.0200,0.0000
-17.5336,31.8533,-4.8051,-0.0000,-0.0821,0.1800,0.0000,0.0000,0.0000,0.2133,-0.2747,-0.0041,996,1502,1500,1500,2008,1000,1505,1000,1000,1505,1005,1000,1014,-0.3874,-0.0797,-0.1146,-0.0155,-0.0044,1.0119,0.4840,0.0654,-0.4921,-0.0573,0.8627,0.2400,0.1321,0.8627,0.2400,0.1321,0.3000,0.0600,0.0002,0,-2.2635,-3.5000,-0.0010,-2.2635,-3.5000,-0.0010,31.6979,-17.5603,0.0300,0.0000
-17.5138,31.8177,-4.7934,-0.0000,0.0000,0.1200,0.0000,0.0000,0.0000,0.2127,-0.2744,-0.0030,996,1502,1500,1500,2008,1000,1505,1000,1000,1505,1005,1000,1014,-0.4020,-0.0839,-0.1515,-0.0175,0.0027,1.0044,0.4841,0.0647,-0.4900,-0.0588,0.8627,0.2400,0.1321,0.8627,0.2400,0.1321,0.3000,0.0600,0.0002,0,-2.2635,-3.5000,-0.0010,-2.2635,-3.5000,-0.0010,31.6611,-17.5366,0.0200,0.0000
-17.4910,31.7823,-4.7803,-0.2486,-0.1642,0.1200,0.0000,0.0000,0.0000,0.2121,-0.2740,-0.0035,996,1502,1500,1500,2008,1000,1505,1000,1000,1505,1005,1000,1014,-0.1053,-0.1099,0.0224,-0.0236,0.0103,1.0002,0.4826,0.0655,-0.4896,-0.0585,0.8627,0.2400,0.1321,0.8627,0.2400,0.1321,0.3000,0.0600,0.0002,0,-2.2635,-3.5000,-0.0010,-2.2635,-3.5000,-0.0010,31.6246,-17.5133,0.0200,0.0000
-17.4648,31.7467,-4.7664,-0.0000,-0.0821,0.1200,0.0000,0.0000,0.0000,0.2115,-0.2735,-0.0033,996,1502,1500,1500,2008,1000,1505,1000,1000,1505,1005,1000,1014,0.1177,-0.2765,-0.0275,-0.0273,0.0101,1.0070,0.4817,0.0653,-0.4884,-0.0586,0.8627,0.2400,0.1321,0.8627,0.2400,0.1321,0.3000,0.0600,0.0002,0,-2.2635,-3.5000,-0.0010,-2.2635,-3.5000,-0.0010,31.5878,-17.4901,0.0200,0.0000
-17.4362,31.7112,-4.7514,-0.0829,-0.2462,0.1200,0.0000,0.0000,0.0000,0.2110,-0.2735,-0.0038,996,1502,1500,1500,2008,1000,1505,1000,1000,1505,1005,1000,1014,0.3108,-0.0496,0.1173,-0.0204,0.0039,1.0143,0.4808,0.0662,-0.4883,-0.0587,0.8627,0.2400,0.1321,0.8627,0.2400,0.1321,0.3000,0.0600,0.0002,0,-2.2635,-3.5000,-0.0010,-2.2635,-3.5000,-0.0010,31.5505,-17.4673,0.0200,0.0000
-17.4074,31.6766,-4.7373,-0.0829,0.0000,0.1200,0.0000,0.0000,0.0000,0.2108,-0.2733,-0.0036,996,1502,1500,1500,2008,1000,1505,1000,1000,1505,1005,1000,1014,0.3330,0.0067,0.0609,-0.0180,-0.0057,1.0063,0.4804,0.0661,-0.4877,-0.0589,0.8627,0.2400,0.1321,0.8627,0.2400,0.1321,0.3000,0.0600,0.0002,0,-2.2635,-3.5000,-0.0010,-2.2635,-3.5000,-0.0010,31.5129,-17.4447,0.0200,0.0000
-17.3797,31.6426,-4.7231,-0.0829,0.0000,0.1800,0.0000,0.0000,0.0000,0.2113,-0.2731,-0.0048,996,1502,1500,1500,2008,1000,1505,1000,1000,1505,1005,1000,1014,0.1424,0.0677,0.1582,-0.0210,-0.0137,0.9994,0.4795,0.0666,-0.4892,-0.0569,0.8627,0.2400,0.1321,0.8627,0.2400,0.1321,0.3000,0.0600,0.0002,0,-2.2635,-3.5000,-0.0010,-2.2635,-3.5000,-0.0010,31.4758,-17.4235,0.0300,0.0000
-17.3554,31.6085,-4.7093,-0.0000,0.0000,0.1200,0.0000,0.0000,0.0000,0.2111,-0.2728,-0.0037,996,1502,1500,1500,2008,1000,1505,1000,1000,1505,1005,1000,1014,-0.2231,0.0710,0.1149,-0.0217,-0.0129,1.0026,0.4801,0.0655,-0.4876,-0.0580,0.8627,0.2400,0.1321,0.8627,0.2400,0.1321,0.3000,0.0600,0.0002,0,-2.2635,-3.5000,-0.0010,-2.2635,-3.5000,-0.0010,31.4389,-17.4011,0.0200,0.0000
-17.3338,31.5738,-4.6956,-0.0000,-0.0821,0.1200,0.0000,0.0000,0.0000,0.2111,-0.2723,-0.0035,996,1502,1500,1500,2008,1000,1505,1000,1000,1505,1005,1000,1014,-0.4305,-0.0945,0.0389,-0.0207,-0.0039,1.0034,0.4799,0.0646,-0.4869,-0.0576,0.8627,0.2400,0.1321,0.8627,0.2400,0.1321,0.3000,0.0600,0.0002,0,-2.2635,-3.5000,-0.0010,-2.2635,-3.5000,-0.0010,31.4019,-17.3779,0.0200,0.0000
-17.3131,31.5378,-4.6816,-0.0000,0.0000,0.1200,0.0000,0.0000,0.0000,0.2110,-0.2718,-0.0036,996,1502,1500,1500,2008,1000,1505,1000,1000,1505,1005,1000,1014,-0.4552,-0.2245,0.0730,-0.0185,0.0043,1.0072,0.4791,0.0644,-0.4864,-0.0571,0.8627,0.2400,0.1321,0.8627,0.2400,0.1321,0.3000,0.0600,0.0002,0,-2.2635,-3.5000,-0.0010,-2.2635,-3.5000,-0.0010,31.3650,-17.3547,0.0200,0.0000
-17.2906,31.5021,-4.6658,-0.0000,-0.1642,0.1200,0.0000,0.0000,0.0000,0.2106,-0.2716,-0.0040,996,1502,1500,1500,2008,1000,1505,1000,1000,1505,1005,1000,1014,-0.2865,-0.1492,0.2134,-0.0164,0.0055,1.0017,0.4781,0.0650,-0.4862,-0.0570,0.8627,0.2400,0.1321,0.8627,0.2400,0.1321,0.3000,0.0600,0.0002,0,-2.2635,-3.5000,-0.0010,-2.2635,-3.5000,-0.0010,31.3277,-17.3325,0.0200,0.0000
-17.2652,31.4675,-4.6499,-0.0000,0.0000,0.1200,0.0000,0.0000,0.0000,0.2100,-0.2713,-0.0042,996,1502,1500,1500,2008,1000,1505,1000,1000,1505,1005,1000,1014,0.0053,-0.1043,0.2555,-0.0190,0.0072,1.0003,0.4772,0.0655,-0.4855,-0.0572,0.8627,0.2400,0.1321,0.8627,0.2400,0.1321,0.3000,0.0600,0.0002,0,-2.2635,-3.5000,-0.0010,-2.2635,-3.5000,-0.0010,31.2895,-17.3113,0.0200,0.0000
-17.2367,31.4336,-4.6335,-0.0000,-0.0821,0.1800,0.0000,0.0000,0.0000,0.2099,-0.2713,-0.0051,996,1502,1500,1500,2008,1000,1505,1000,1000,1505,1005,1000,1014,0.2552,0.0657,0.2644,-0.0209,0.0036,1.0073,0.4761,0.0665,-0.4863,-0.0562,0.8627,0.2400,0.1321,0.8627,0.2400,0.1321,0.3000,0.0600,0.0002,0,-2.2635,-3.5000,-0.0010,-2.2635,-3.5000,-0.0010,31.2512,-17.2909,0.0300,0.0000
-17.2074,31.4002,-4.6173,-0.0829,0.0000,0.1200,0.0000,0.0000,0.0000,0.2091,-0.2708,-0.0041,996,1502,1500,1500,2008,1000,1505,1000,1000,1505,1005,1000,1014,0.2635,-0.0371,0.2573,-0.0273,-0.0027,1.0082,0.4758,0.0658,-0.4841,-0.0576,0.8627,0.2400,0.1321,0.8627,0.2400,0.1321,0.3000,0.0600,0.0002,0,-2.2635,-3.5000,-0.0010,-2.2635,-3.5000,-0.0010,31.2132,-17.2709,0.0200,0.0000
-17.1781,31.3662,-4.6013,-0.0829,-0.0821,0.1200,0.0000,0.0000,0.0000,0.2089,-0.2705,-0.0042,996,1502,1500,1500,2008,1000,1505,1000,1000,1505,1005,1000,1014,0.2403,-0.0773,0.2564,-0.0263,-0.0063,1.0012,0.4752,0.0658,-0.4836,-0.0574,0.8627,0.2400,0.1321,0.8627,0.2400,0.1321,0.3000,0.0600,0.0002,0,-2.2635,-3.5000,-0.0010,-2.2635,-3.5000,-0.0010,31.1753,-17.2499,0.0200,0.0000
-17.1508,31.3304,-4.5851,-0.0000,-0.0821,0.1200,0.0000,0.0000,0.0000,0.2091,-0.2699,-0.0038,996,1502,1500,1500,2008,1000,1505,1000,1000,1505,1005,1000,1014,-0.0678,-0.2650,0.1401,-0.0224,-0.0145,1.0036,0.4752,0.0646,-0.4828,-0.0571,0.8627,0.2400,0.1321,0.8627,0.2400,0.1321,0.3000,0.0600,0.0002,0,-2.2635,-3.5000,-0.0010,-2.2635,-3.5000,-0.0010,31.1371,-17.2280,0.0200,0.0000
-17.1272,31.2937,-4.5702,-0.0829,0.0000,0.1200,0.0000,0.0000,0.0000,0.2091,-0.2698,-0.0038,996,1502,1500,1500,2008,1000,1505,1000,1000,1505,1005,1000,1014,-0.2148,-0.1485,0.1377,-0.0209,-0.0114,1.0090,0.4750,0.0645,-0.4827,-0.0569,0.8627,0.2400,0.1321,0.8627,0.2400,0.1321,0.3000,0.0600,0.0002,0,-2.2635,-3.5000,-0.0010,-2.2635,-3.5000,-0.0010,31.0993,-17.2061,0.0200,0.0000
-17.1056,31.2582,-4.5564,-0.0000,-0.0821,0.1200,0.0000,0.0000,0.0000,0.2091,-0.2696,-0.0034,996,1502,1500,1500,2008,1000,1505,1000,1000,1505,1005,1000,1014,-0.3927,-0.0327,0.0230,-0.0211,-0.0025,1.0075,0.4753,0.0639,-0.4822,-0.0570,0.8627,0.2400,0.1321,0.8627,0.2400,0.1321,0.3000,0.0600,0.0002,0,-2.2635,-3.5000,-0.0010,-2.2635,-3.5000,-0.0010,31.0617,-17.1842,0.0200,0.0000
-17.0839,31.2231,-4.5429,-0.0829,0.0000,0.1800,0.0000,0.0000,0.0000,0.2093,-0.2693,-0.0043,996,1502,1500,1500,2008,1000,1505,1000,1000,1505,1005,1000,1014,-0.3052,-0.0529,-0.0255,-0.0235,0.0053,1.0021,0.4744,0.0642,-0.4829,-0.0557,0.8627,0.2400,0.1321,0.8627,0.2400,0.1321,0.3000,0.0600,0.0002,0,-2.2635,-3.5000,-0.0010,-2.2635,-3.5000,-0.0010,31.0238,-17.1613,0.0300,0.0000
-17.0609,31.1878,-4.5296,-0.0829,-0.0821,0.1200,0.0000,0.0000,0.0000,0.2084,-0.2689,-0.0036,996,1502,1500,1500,2008,1000,1505,1000,1000,1505,1005,1000,1014,-0.1154,-0.0858,0.0438,-0.0206,0.0036,0.9988,0.4738,0.0641,-0.4809,-0.0570,0.8627,0.2400,0.1321,0.8627,0.2400,0.1321,0.3000,0.0600,0.0002,0,-2.2635,-3.5000,-0.0010,-2.2635,-3.5000,-0.0010,30.9868,-17.1379,0.0200,0.0000
-17.0345,31.1526,-4.5152,-0.0000,-0.0821,0.1200,0.0000,0.0000,0.0000,0.2078,-0.2687,-0.0038,996,1502,1500,1500,2008,1000,1505,1000,1000,1505,1005,1000,1014,0.1524,-0.0567,0.1167,-0.0195,0.0016,1.0054,0.4727,0.0647,-0.4802,-0.0571,0.8627,0.2400,0.1321,0.8627,0.2400,0.1321,0.3000,0.0600,0.0002,0,-2.2635,-3.5000,-0.0010,-2.2635,-3.5000,-0.0010,30.9500,-17.1149,0.0200,0.0000
-17.0066,31.1179,-4.5011,-0.0829,-0.0821,0.1200,0.0000,0.0000,0.0000,0.2074,-0.2684,-0.0037,996,1502,1500,1500,2008,1000,1505,1000,1000,1505,1005,1000,1014,0.2408,-0.0242,0.0956,-0.0165,0.0002,1.0063,0.4722,0.0647,-0.4796,-0.0573,0.8627,0.2400,0.1321,0.8627,0.2400,0.1321,0.3000,0.0600,0.0002,0,-2.2635,-3.5000,-0.0010,-2.2635,-3.5000,-0.0010,30.9124,-17.0928,0.0200,0.0000
-16.9783,31.0831,-4.4867,-0.0829,0.0000,0.1200,0.0000,0.0000,0.0000,0.2072,-0.2681,-0.0038,996,1502,1500,1500,2008,1000,1505,1000,1000,1505,1005,1000,1014,0.2553,-0.0185,0.1176,-0.0194,-0.0028,1.0068,0.4715,0.0647,-0.4791,-0.0572,0.8627,0.2400,0.1321,0.8627,0.2400,0.1321,0.3000,0.0600,0.0002,0,-2.2635,-3.5000,-0.0010,-2.2635,-3.5000,-0.0010,30.8751,-17.0700,0.0200,0.0000
-16.9518,31.0478,-4.4730,-0.1657,-0.2462,0.1200,0.0000,0.0000,0.0000,0.2073,-0.2678,-0.0035,996,1502,1500,1500,2008,1000,1505,1000,1000,1505,1005,1000,1014,0.0101,-0.0301,0.0260,-0.0268,-0.0067,0.9996,0.4716,0.0641,-0.4786,-0.0570,0.8627,0.2400,0.1321,0.8627,0.2400,0.1321,0.3000,0.0600,0.0002,0,-2.2635,-3.5000,-0.0010,-2.2635,-3.5000,-0.0010,30.8378,-17.0469,0.0200,0.0000
-16.9280,31.0115,-4.4601,-0.0000,-0.0821,0.1800,0.0000,0.0000,0.0000,0.2078,-0.2673,-0.0044,996,1502,1500,1500,2008,1000,1505,1000,1000,1505,1005,1000,1014,-0.1571,-0.1911,-0.0274,-0.0277,-0.0080,1.0033,0.4707,0.0638,-0.4794,-0.0551,0.8627,0.2400,0.1321,0.8627,0.2400,0.1321,0.3000,0.0600,0.0002,0,-2.2635,-3.5000,-0.0010,-2.2635,-3.5000,-0.0010,30.8010,-17.0232,0.0300,0.0000
-16.9056,30.9744,-4.4473,-0.1657,-0.1642,0.1200,0.0000,0.0000,0.0000,0.2072,-0.2670,-0.0032,996,1502,1500,1500,2008,1000,1505,1000,1000,1505,1005,1000,1014,-0.2357,-0.1765,-0.0801,-0.0230,-0.0059,1.0063,0.4710,0.0630,-0.4773,-0.0566,0.8627,0.2400,0.1321,0.8627,0.2400,0.1321,0.3000,0.0600,0.0002,0,-2.2635,-3.5000,-0.0010,-2.2635,-3.5000,-0.0010,30.7646,-17.0002,0.0200,0.0000
-16.8834,30.9379,-4.4352,-0.0829,-0.0821,0.1200,0.0000,0.0000,0.0000,0.2070,-0.2668,-0.0031,996,1502,1500,1500,2008,1000,1505,1000,1000,1505,1005,1000,1014,-0.2226,-0.0602,-0.1167,-0.0246,0.0001,1.0047,0.4707,0.0629,-0.4769,-0.0568,0.8627,0.2400,0.1321,0.8627,0.2400,0.1321,0.3000,0.0600,0.0002,0,-2.2635,-3.5000,-0.0010,-2.2635,-3.5000,-0.0010,30.7281,-16.9769,0.0200,0.0000
-16.8604,30.9029,-4.4229,-0.0000,0.0000,0.1200,0.0000,0.0000,0.0000,0.2067,-0.2666,-0.0035,996,1502,1500,1500,2008,1000,1505,1000,1000,1505,1005,1000,1014,-0.1783,-0.0123,-0.0011,-0.0203,0.0052,1.0081,0.4698,0.0633,-0.4768,-0.0564,0.8627,0.2400,0.1321,0.8627,0.2400,0.1321,0.3000,0.0600,0.0002,0,-2.2635,-3.5000,-0.0010,-2.2635,-3.5000,-0.0010,30.6909,-16.9540,0.0200,0.0000
-16.8359,30.8686,-4.4090,-0.0829,-0.0821,0.1200,0.0000,0.0000,0.0000,0.2064,-0.2663,-0.0038,996,1502,1500,1500,2008,1000,1505,1000,1000,1505,1005,1000,1014,-0.0696,-0.0118,0.1364,-0.0205,0.0079,1.0124,0.4688,0.0638,-0.4765,-0.0561,0.8627,0.2400,0.1321,0.8627,0.2400,0.1321,0.3000,0.0600,0.0002,0,-2.2635,-3.5000,-0.0010,-2.2635,-3.5000,-0.0010,30.6535,-16.9314,0.0200,0.0000
-16.8097,30.8342,-4.3941,-0.1657,0.0000,0.1200,0.0000,0.0000,0.0000,0.2060,-0.2660,-0.0038,996,1502,1500,1500,2008,1000,1505,1000,1000,1505,1005,1000,1014,0.0685,0.0008,0.1464,-0.0178,0.0004,1.0073,0.4682,0.0638,-0.4758,-0.0562,0.8627,0.2400,0.1321,0.8627,0.2400,0.1321,0.3000,0.0600,0.0002,0,-2.2635,-3.5000,-0.0010,-2.2635,-3.5000,-0.0010,30.6158,-16.9104,0.0200,0.0000
-16.7826,30.7995,-4.3792,-0.0829,0.0000,0.1800,0.0000,0.0000,0.0000,0.2061,-0.2656,-0.0051,996,1502,1500,1500,2008,1000,1505,1000,1000,1505,1005,1000,1014,0.1795,-0.0806,0.2441,-0.0158,-0.0038,1.0037,0.4666,0.0646,-0.4768,-0.0544,0.8627,0.2400,0.1321,0.8627,0.2400,0.1321,0.3000,0.0600,0.0002,0,-2.2635,-3.5000,-0.0010,-2.2635,-3.5000,-0.0010,30.5779,-16.8899,0.0300,0.0000
-16.7551,30.7637,-4.3641,-0.0000,-0.1642,0.1200,0.0000,0.0000,0.0000,0.2053,-0.2651,-0.0040,996,1502,1500,1500,2008,1000,1505,1000,1000,1505,1005,1000,1014,0.1877,-0.2307,0.2059,-0.0197,-0.0052,1.0054,0.4664,0.0638,-0.4744,-0.0557,0.8627,0.2400,0.1321,0.8627,0.2400,0.1321,0.3000,0.0600,0.0002,0,-2.2635,-3.5000,-0.0010,-2.2635,-3.5000,-0.0010,30.5397,-16.8695,0.0200,0.0000
-16.7284,30.7270,-4.3487,-0.0000,-0.0821,0.1200,0.0000,0.0000,0.0000,0.2054,-0.2648,-0.0038,996,1502,1500,1500,2008,1000,1505,1000,1000,1505,1005,1000,1014,-0.0509,-0.1913,0.1409,-0.0239,-0.0087,1.0072,0.4664,0.0632,-0.4741,-0.0556,0.8627,0.2400,0.1321,0.8627,0.2400,0.1321,0.3000,0.0600,0.0002,0,-2.2635,-3.5000,-0.0010,-2.2635,-3.5000,-0.0010,30.5016,-16.8486,0.0200,0.0000
-16.7040,30.6901,-4.3336,-0.0000,-0.0821,0.1200,0.0000,0.0000,0.0000,0.2054,-0.2645,-0.0039,996,1502,1500,1500,2008,1000,1505,1000,1000,1505,1005,1000,1014,-0.2092,-0.2290,0.1346,-0.0291,-0.0064,1.0068,0.4660,0.0629,-0.4737,-0.0552,0.8627,0.2400,0.1321,0.8627,0.2400,0.1321,0.3000,0.0600,0.0002,0,-2.2635,-3.5000,-0.0010,-2.2635,-3.5000,-0.0010,30.4635,-16.8270,0.0200,0.0000
-16.6803,30.6535,-4.3180,-0.0829,0.0000,0.1200,0.0000,0.0000,0.0000,0.2053,-0.2643,-0.0040,996,1502,1500,1500,2008,1000,1505,1000,1000,1505,1005,1000,1014,-0.2747,-0.1178,0.1939,-0.0259,-0.0048,1.0033,0.4656,0.0630,-0.4736,-0.0550,0.8627,0.2400,0.1321,0.8627,0.2400,0.1321,0.3000,0.0600,0.0002,0,-2.2635,-3.5000,-0.0010,-2.2635,-3.5000,-0.0010,30.4256,-16.8052,0.0200,0.0000
-16.6577,30.6179,-4.3032,-0.0000,0.0000,0.1200,0.0000,0.0000,0.0000,0.2051,-0.2641,-0.0038,996,1502,1500,1500,2008,1000,1505,1000,1000,1505,1005,1000,1014,-0.2696,-0.0406,0.1235,-0.0232,-0.0027,1.0054,0.4654,0.0628,-0.4730,-0.0552,0.8627,0.2400,0.1321,0.8627,0.2400,0.1321,0.3000,0.0600,0.0002,0,-2.2635,-3.5000,-0.0010,-2.2635,-3.5000,-0.0010,30.3887,-16.7826,0.0200,0.0000
-16.6340,30.5837,-4.2891,-0.0000,0.0000,0.1800,0.0000,0.0000,0.0000,0.2052,-0.2639,-0.0046,996,1502,1500,1500,2008,1000,1505,1000,1000,1505,1005,1000,1014,-0.0739,0.0545,0.0989,-0.0252,0.0025,1.0025,0.4644,0.0634,-0.4737,-0.0541,0.8627,0.2400,0.1321,0.8627,0.2400,0.1321,0.3000,0.0600,0.0002,0,-2.2635,-3.5000,-0.0010,-2.2635,-3.5000,-0.0010,30.3513,-16.7599,0.0300,0.0000
-16.6086,30.5502,-4.2752,-0.0000,0.0000,0.1200,0.0000,0.0000,0.0000,0.2043,-0.2636,-0.0040,996,1502,1500,1500,2008,1000,1505,1000,1000,1505,1005,1000,1014,-0.0128,0.0539,0.1772,-0.0214,0.0011,1.0019,0.4640,0.0633,-0.4719,-0.0553,0.8627,0.2400,0.1321,0.8627,0.2400,0.1321,0.3000,0.0600,0.0002,0,-2.2635,-3.5000,-0.0010,-2.2635,-3.5000,-0.0010,30.3139,-16.7372,0.0200,0.0000
-16.5826,30.5166,-4.2607,-0.0829,-0.0821,0.1200,0.0000,0.0000,0.0000,0.2040,-0.2633,-0.0040,996,1502,1500,1500,2008,1000,1505,1000,1000,1505,1005,1000,1014,0.0362,0.0168,0.1971,-0.0218,-0.0018,1.0007,0.4633,0.0632,-0.4713,-0.0552,0.8627,0.2400,0.1321,0.8627,0.2400,0.1321,0.3000,0.0600,0.0002,0,-2.2635,-3.5000,-0.0010,-2.2635,-3.5000,-0.0010,30.2761,-16.7144,0.0200,0.0000
-16.5565,30.4821,-4.2462,-0.0829,0.0000,0.1200,0.0000,0.0000,0.0000,0.2038,-0.2629,-0.0039,996,1502,1500,1500,2008,1000,1505,1000,1000,1505,1005,1000,1014,0.0822,-0.0460,0.1389,-0.0182,-0.0026,1.0027,0.4628,0.0630,-0.4705,-0.0553,0.8627,0.2400,0.1321,0.8627,0.2400,0.1321,0.3000,0.0600,0.0002,0,-2.2635,-3.5000,-0.0010,-2.2635,-3.5000,-0.0010,30.2383,-16.6918,0.0200,0.0000
-16.5312,30.4467,-4.2323,-0.0829,0.0000,0.1200,0.0000,0.0000,0.0000,0.2037,-0.2626,-0.0038,996,1502,1500,1500,2008,1000,1505,1000,1000,1505,1005,1000,1014,-0.0242,-0.0470,0.1230,-0.0165,-0.0028,1.0116,0.4625,0.0627,-0.4701,-0.0551,0.8627,0.2400,0.1321,0.8627,0.2400,0.1321,0.3000,0.0600,0.0002,0,-2.2635,-3.5000,-0.0010,-2.2635,-3.5000,-0.0010,30.2005,-16.6693,0.0200,0.0000
-16.5068,30.4108,-4.2183,-0.0000,0.0000,0.1200,0.0000,0.0000,0.0000,0.2036,-0.2621,-0.0037,996,1502,1500,1500,2008,1000,1505,1000,1000,1505,1005,1000,1014,-0.1284,-0.1584,0.0903,-0.0196,-0.0064,1.0087,0.4621,0.0622,-0.4694,-0.0549,0.8627,0.2400,0.1321,0.8627,0.2400,0.1321,0.3000,0.0600,0.0002,0,-2.2635,-3.5000,-0.0010,-2.2635,-3.5000,-0.0010,30.1630,-16.6465,0.0200,0.0000
-16.4829,30.3747,-4.2048,-0.0829,-0.1642,0.1800,0.0000,0.0000,0.0000,0.2039,-0.2619,-0.0046,996,1502,1500,1500,2008,1000,1505,1000,1000,1505,1005,1000,1014,-0.1244,-0.1225,0.0739,-0.0238,-0.0037,1.0007,0.4612,0.0625,-0.4704,-0.0534,0.8627,0.2400,0.1321,0.8627,0.2400,0.1321,0.3000,0.0600,0.0002,0,-2.2635,-3.5000,-0.0010,-2.2635,-3.5000,-0.0010,30.1257,-16.6233,0.0300,0.0000
-16.4589,30.3379,-4.1913,-0.0000,0.0000,0.1200,0.0000,0.0000,0.0000,0.2031,-0.2614,-0.0035,996,1502,1500,1500,2008,1000,1505,1000,1000,1505,1005,1000,1014,-0.0926,-0.2163,0.0111,-0.0256,0.0011,1.0034,0.4611,0.0617,-0.4680,-0.0548,0.8627,0.2400,0.1321,0.8627,0.2400,0.1321,0.3000,0.0600,0.0002,0,-2.2635,-3.5000,-0.0010,-2.2635,-3.5000,-0.0010,30.0884,-16.5995,0.0200,0.0000
-16.4345,30.3009,-4.1779,-0.0829,-0.0821,0.1200,0.0000,0.0000,0.0000,0.2030,-0.2611,-0.0035,996,1502,1500,1500,2008,1000,1505,1000,1000,1505,1005,1000,1014,-0.1333,-0.1986,0.0300,-0.0255,-0.0031,1.0090,0.4606,0.0617,-0.4677,-0.0546,0.8627,0.2400,0.1321,0.8627,0.2400,0.1321,0.3000,0.0600,0.0002,0,-2.2635,-3.5000,-0.0010,-2.2635,-3.5000,-0.0010,30.0518,-16.5746,0.0200,0.0000
-16.4105,30.2643,-4.1649,-0.0829,-0.0821,0.1200,0.0000,0.0000,0.0000,0.2027,-0.2609,-0.0035,996,1502,1500,1500,2008,1000,1505,1000,1000,1505,1005,1000,1014,-0.1062,-0.1146,0.0299,-0.0204,0.0010,1.0075,0.4602,0.0617,-0.4672,-0.0547,0.8627,0.2400,0.1321,0.8627,0.2400,0.1321,0.3000,0.0600,0.0002,0,-2.2635,-3.5000,-0.0010,-2.2635,-3.5000,-0.0010,30.0143,-16.5514,0.0200,0.0000
-16.3862,30.2293,-4.1525,-0.0829,0.0000,0.1200,0.0000,0.0000,0.0000,0.2025,-0.2608,-0.0032,996,1502,1500,1500,2008,1000,1505,1000,1000,1505,1005,1000,1014,-0.0439,0.0013,-0.0597,-0.0232,-0.0012,0.9997,0.4600,0.0616,-0.4665,-0.0551,0.8627,0.2400,0.1321,0.8627,0.2400,0.1321,0.3000,0.0600,0.0002,0,-2.2635,-3.5000,-0.0010,-2.2635,-3.5000,-0.0010,29.9768,-16.5287,0.0200,0.0000
-16.3618,30.1943,-4.1404,-0.0000,0.0000,0.1200,0.0000,0.0000,0.0000,0.2022,-0.2605,-0.0034,996,1502,1500,1500,2008,1000,1505,1000,1000,1505,1005,1000,1014,-0.0038,0.0083,0.0137,-0.0263,-0.0007,1.0009,0.4592,0.0617,-0.4661,-0.0549,0.8627,0.2400,0.1321,0.8627,0.2400,0.1321,0.3000,0.0600,0.0002,0,-2.2635,-3.5000,-0.0010,-2.2635,-3.5000,-0.0010,29.9395,-16.5056,0.0200,0.0000
-16.3372,30.1588,-4.1276,-0.0000,0.0000,0.1800,0.0000,0.0000,0.0000,0.2026,-0.2601,-0.0045,996,1502,1500,1500,2008,1000,1505,1000,1000,1505,1005,1000,1014,-0.0654,-0.0776,0.0467,-0.0205,-0.0011,1.0058,0.4581,0.0620,-0.4672,-0.0530,0.8627,0.2400,0.1321,0.8627,0.2400,0.1321,0.3000,0.0600,0.0002,0,-2.2635,-3.5000,-0.0010,-2.2635,-3.5000,-0.0010,29.9027,-16.4828,0.0300,0.0000
-16.3134,30.1232,-4.1148,-0.0000,0.0000,0.1200,0.0000,0.0000,0.0000,0.2019,-0.2598,-0.0037,996,1502,1500,1500,2008,1000,1505,1000,1000,1505,1005,1000,1014,-0.0804,-0.0730,0.0753,-0.0159,-0.0036,1.0032,0.4580,0.0616,-0.4653,-0.0542,0.8627,0.2400,0.1321,0.8627,0.2400,0.1321,0.3000,0.0600,0.0002,0,-2.2635,-3.5000,-0.0010,-2.2635,-3.5000,-0.0010,29.8647,-16.4603,0.0200,0.0000
-16.2885,30.0877,-4.1010,-0.0000,0.0000,0.1200,0.0000,0.0000,0.0000,0.2015,-0.2595,-0.0037,996,1502,1500,1500,2008,1000,1505,1000,1000,1505,1005,1000,1014,0.0374,-0.0810,0.1148,-0.0182,-0.0034,1.0055,0.4572,0.0617,-0.4647,-0.0542,0.8627,0.2400,0.1321,0.8627,0.2400,0.1321,0.3000,0.0600,0.0002,0,-2.2635,-3.5000,-0.0010,-2.2635,-3.5000,-0.0010,29.8266,-16.4381,0.0200,0.0000
-16.2635,30.0513,-4.0872,-0.0829,-0.0821,0.1200,0.0000,0.0000,0.0000,0.2013,-0.2590,-0.0041,996,1502,1500,1500,2008,1000,1505,1000,1000,1505,1005,1000,1014,0.0579,-0.1817,0.2099,-0.0204,-0.0064,1.0019,0.4562,0.0618,-0.4644,-0.0537,0.8627,0.2400,0.1321,0.8627,0.2400,0.1321,0.3000,0.0600,0.0002,0,-2.2635,-3.5000,-0.0010,-2.2635,-3.5000,-0.0010,29.7887,-16.4164,0.0200,0.0000
-16.2377,30.0140,-4.0724,-0.0000,0.0000,0.1200,0.0000,0.0000,0.0000,0.2011,-0.2586,-0.0038,996,1502,1500,1500,2008,1000,1505,1000,1000,1505,1005,1000,1014,0.0458,-0.2336,0.1278,-0.0237,-0.0039,1.0098,0.4559,0.0614,-0.4635,-0.0538,0.8627,0.2400,0.1321,0.8627,0.2400,0.1321,0.3000,0.0600,0.0002,0,-2.2635,-3.5000,-0.0010,-2.2635,-3.5000,-0.0010,29.7506,-16.3949,0.0200,0.0000
-16.2126,29.9771,-4.0580,-0.0829,-0.0821,0.1200,0.0000,0.0000,0.0000,0.2011,-0.2584,-0.0039,996,1502,1500,1500,2008,1000,1505,1000,1000,1505,1005,1000,1014,-0.1244,-0.1874,0.1673,-0.0270,-0.0027,1.0061,0.4555,0.0612,-0.4633,-0.0534,0.8627,0.2400,0.1321,0.8627,0.2400,0.1321,0.3000,0.0600,0.0002,0,-2.2635,-3.5000,-0.0010,-2.2635,-3.5000,-0.0010,29.7129,-16.3728,0.0200,0.0000
-16.1883,29.9409,-4.0435,-0.0829,-0.0821,0.1800,0.0000,0.0000,0.0000,0.2014,-0.2582,-0.0049,996,1502,1500,1500,2008,1000,1505,1000,1000,1505,1005,1000,1014,-0.1805,-0.1107,0.1560,-0.0240,-0.0054,1.0034,0.4547,0.0616,-0.4645,-0.0518,0.8627,0.2400,0.1321,0.8627,0.2400,0.1321,0.3000,0.0600,0.0002,0,-2.2635,-3.5000,-0.0010,-2.2635,-3.5000,-0.0010,29.6750,-16.3504,0.0300,0.0000
-16.1651,29.9053,-4.0288,-0.0829,0.0000,0.1200,0.0000,0.0000,0.0000,0.2008,-0.2580,-0.0041,996,1502,1500,1500,2008,1000,1505,1000,1000,1505,1005,1000,1014,-0.2367,-0.0163,0.2228,-0.0273,-0.0014,1.0031,0.4547,0.0613,-0.4629,-0.0531,0.8627,0.2400,0.1321,0.8627,0.2400,0.1321,0.3000,0.0600,0.0002,0,-2.2635,-3.5000,-0.0010,-2.2635,-3.5000,-0.0010,29.6373,-16.3284,0.0200,0.0000
-16.1416,29.8707,-4.0141,-0.0000,0.0000,0.1200,0.0000,0.0000,0.0000,0.2005,-0.2577,-0.0040,996,1502,1500,1500,2008,1000,1505,1000,1000,1505,1005,1000,1014,-0.1541,0.0143,0.2016,-0.0195,0.0039,1.0034,0.4542,0.0613,-0.4622,-0.0532,0.8627,0.2400,0.1321,0.8627,0.2400,0.1321,0.3000,0.0600,0.0002,0,-2.2635,-3.5000,-0.0010,-2.2635,-3.5000,-0.0010,29.5995,-16.3062,0.0200,0.0000
-16.1173,29.8365,-3.9997,-0.0829,-0.0821,0.1200,0.0000,0.0000,0.0000,0.2002,-0.2575,-0.0040,996,1502,1500,1500,2008,1000,1505,1000,1000,1505,1005,1000,1014,-0.0895,0.0520,0.1822,-0.0204,0.0031,1.0044,0.4537,0.0612,-0.4616,-0.0533,0.8627,0.2400,0.1321,0.8627,0.2400,0.1321,0.3000,0.0600,0.0002,0,-2.2635,-3.5000,-0.0010,-2.2635,-3.5000,-0.0010,29.5620,-16.2846,0.0200,0.0000
-16.0912,29.8028,-3.9845,-0.0829,0.0000,0.1200,0.0000,0.0000,0.0000,0.1998,-0.2571,-0.0043,996,1502,1500,1500,2008,1000,1505,1000,1000,1505,1005,1000,1014,0.0640,-0.0088,0.3182,-0.0235,-0.0004,1.0078,0.4525,0.0617,-0.4612,-0.0530,0.8627,0.2400,0.1321,0.8627,0.2400,0.1321,0.3000,0.0600,0.0002,0,-2.2635,-3.5000,-0.0010,-2.2635,-3.5000,-0.0010,29.5244,-16.2616,0.0200,0.0000
-16.0639,29.7667,-3.9691,-0.0829,0.0000,0.1200,0.0000,0.0000,0.0000,0.1995,-0.2566,-0.0043,996,1502,1500,1500,2008,1000,1505,1000,1000,1505,1005,1000,1014,0.1039,-0.1712,0.2897,-0.0193,-0.0050,1.0101,0.4517,0.0614,-0.4604,-0.0527,0.8627,0.2400,0.1321,0.8627,0.2400,0.1321,0.3000,0.0600,0.0002,0,-2.2635,-3.5000,-0.0010,-2.2635,-3.5000,-0.0010,29.4860,-16.2388,0.0200,0.0000
-16.0368,29.7303,-3.9534,-0.0000,0.0000,0.1800,0.0000,0.0000,0.0000,0.1998,-0.2562,-0.0049,996,1502,1500,1500,2008,1000,1505,1000,1000,1505,1005,1000,1014,0.1056,-0.2319,0.1940,-0.0169,-0.0081,1.0093,0.4510,0.0613,-0.4609,-0.0515,0.8627,0.2400,0.1321,0.8627,0.2400,0.1321,0.3000,0.0600,0.0002,0,-2.2635,-3.5000,-0.0010,-2.2635,-3.5000,-0.0010,29.4480,-16.2162,0.0300,0.0000
-16.0111,29.6933,-3.9392,-0.0000,0.0000,0.1200,0.0000,0.0000,0.0000,0.1992,-0.2561,-0.0038,996,1502,1500,1500,2008,1000,1505,1000,1000,1505,1005,1000,1014,0.0017,-0.0850,0.1094,-0.0208,-0.0056,1.0033,0.4515,0.0607,-0.4590,-0.0531,0.8627,0.2400,0.1321,0.8627,0.2400,0.1321,0.3000,0.0600,0.0002,0,-2.2635,-3.5000,-0.0010,-2.2635,-3.5000,-0.0010,29.4104,-16.1932,0.0200,0.0000
-15.9871,29.6574,-3.9260,-0.0000,0.0000,0.1200,0.0000,0.0000,0.0000,0.1991,-0.2557,-0.0037,996,1502,1500,1500,2008,1000,1505,1000,1000,1505,1005,1000,1014,-0.1433,-0.0883,0.0962,-0.0286,-0.0043,1.0057,0.4512,0.0603,-0.4586,-0.0529,0.8627,0.2400,0.1321,0.8627,0.2400,0.1321,0.3000,0.0600,0.0002,0,-2.2635,-3.5000,-0.0010,-2.2635,-3.5000,-0.0010,29.3727,-16.1692,0.0200,0.0000
-15.9647,29.6221,-3.9134,-0.0829,-0.1642,0.1200,0.0000,0.0000,0.0000,0.1991,-0.2557,-0.0035,996,1502,1500,1500,2008,1000,1505,1000,1000,1505,1005,1000,1014,-0.2195,0.0832,0.0326,-0.0246,-0.0055,1.0059,0.4512,0.0602,-0.4583,-0.0531,0.8627,0.2400,0.1321,0.8627,0.2400,0.1321,0.3000,0.0600,0.0002,0,-2.2635,-3.5000,-0.0010,-2.2635,-3.5000,-0.0010,29.3352,-16.1451,0.0200,0.0000
-15.9428,29.5880,-3.9017,-0.0000,-0.0821,0.1200,0.0000,0.0000,0.0000,0.1988,-0.2555,-0.0036,996,1502,1500,1500,2008,1000,1505,1000,1000,1505,1005,1000,1014,-0.2089,0.1539,0.0359,-0.0189,0.0005,1.0098,0.4507,0.0602,-0.4579,-0.0530,0.8627,0.2400,0.1321,0.8627,0.2400,0.1321,0.3000,0.0600,0.0002,0,-2.2635,-3.5000,-0.0010,-2.2635,-3.5000,-0.0010,29.2981,-16.1214,0.0200,0.0000
-15.9198,29.5541,-3.8900,-0.1657,-0.2462,0.1200,0.0000,0.0000,0.0000,0.1984,-0.2551,-0.0032,996,1502,1500,1500,2008,1000,1505,1000,1000,1505,1005,1000,1014,-0.0554,0.1180,-0.0880,-0.0155,0.0045,1.0090,0.4504,0.0598,-0.4567,-0.0535,0.8627,0.2400,0.1321,0.8627,0.2400,0.1321,0.3000,0.0600,0.0002,0,-2.2635,-3.5000,-0.0010,-2.2635,-3.5000,-0.0010,29.2607,-16.0977,0.0200,0.0000
-15.8959,29.5188,-3.8790,-0.0829,0.0000,0.1800,0.0000,0.0000,0.0000,0.1987,-0.2547,-0.0043,996,1502,1500,1500,2008,1000,1505,1000,1000,1505,1005,1000,1014,0.0232,0.0136,-0.0463,-0.0157,0.0047,1.0020,0.4491,0.0603,-0.4576,-0.0517,0.8627,0.2400,0.1321,0.8627,0.2400,0.1321,0.3000,0.0600,0.0002,0,-2.2635,-3.5000,-0.0010,-2.2635,-3.5000,-0.0010,29.2231,-16.0748,0.0300,0.0000
-15.8702,29.4827,-3.8668,-0.0000,-0.0821,0.1200,0.0000,0.0000,0.0000,0.1977,-0.2542,-0.0036,996,1502,1500,1500,2008,1000,1505,1000,1000,1505,1005,1000,1014,0.1574,-0.1172,0.0554,-0.0179,-0.0010,1.0060,0.4483,0.0601,-0.4555,-0.0528,0.8627,0.2400,0.1321,0.8627,0.2400,0.1321,0.3000,0.0600,0.0002,0,-2.2635,-3.5000,-0.0010,-2.2635,-3.5000,-0.0010,29.1854,-16.0522,0.0200,0.0000
-15.8437,29.4446,-3.8540,-0.0000,0.0000,0.1200,0.0000,0.0000,0.0000,0.1976,-0.2537,-0.0034,996,1502,1500,1500,2008,1000,1505,1000,1000,1505,1005,1000,1014,0.1186,-0.2764,-0.0063,-0.0218,-0.0035,1.0035,0.4478,0.0595,-0.4546,-0.0527,0.8627,0.2400,0.1321,0.8627,0.2400,0.1321,0.3000,0.0600,0.0002,0,-2.2635,-3.5000,-0.0010,-2.2635,-3.5000,-0.0010,29.1477,-16.0287,0.0200,0.0000
-15.8187,29.4065,-3.8413,-0.0000,0.0000,0.1200,0.0000,0.0000,0.0000,0.1975,-0.2534,-0.0035,996,1502,1500,1500,2008,1000,1505,1000,1000,1505,1005,1000,1014,0.0044,-0.2198,0.0371,-0.0225,-0.0064,1.0037,0.4474,0.0594,-0.4544,-0.0524,0.8627,0.2400,0.1321,0.8627,0.2400,0.1321,0.3000,0.0600,0.0002,0,-2.2635,-3.5000,-0.0010,-2.2635,-3.5000,-0.0010,29.1101,-16.0053,0.0200,0.0000
-15.7944,29.3689,-3.8290,0.0829,0.0000,0.1200,0.0000,0.0000,0.0000,0.1974,-0.2531,-0.0035,996,1502,1500,1500,2008,1000,1505,1000,1000,1505,1005,1000,1014,-0.0782,-0.1667,0.0288,-0.0238,-0.0071,1.0037,0.4470,0.0593,-0.4541,-0.0522,0.8627,0.2400,0.1321,0.8627,0.2400,0.1321,0.3000,0.0600,0.0002,0,-2.2635,-3.5000,-0.0010,-2.2635,-3.5000,-0.0010,29.0729,-15.9826,0.0200,0.0000
-15.7719,29.3324,-3.8170,-0.0000,-0.0821,0.1200,0.0000,0.0000,0.0000,0.1974,-0.2530,-0.0035,996,1502,1500,1500,2008,1000,1505,1000,1000,1505,1005,1000,1014,-0.2389,-0.0758,0.0068,-0.0259,-0.0037,1.0104,0.4469,0.0590,-0.4538,-0.0521,0.8627,0.2400,0.1321,0.8627,0.2400,0.1321,0.3000,0.0600,0.0002,0,-2.2635,-3.5000,-0.0010,-2.2635,-3.5000,-0.0010,29.0352,-15.9592,0.0200,0.0000
-15.7499,29.2975,-3.8046,-0.0829,0.0000,0.1800,0.0000,0.0000,0.0000,0.1978,-0.2529,-0.0045,996,1502,1500,1500,2008,1000,1505,1000,1000,1505,1005,1000,1014,-0.2619,0.1080,0.0376,-0.0238,-0.0003,1.0118,0.4462,0.0596,-0.4552,-0.0506,0.8627,0.2400,0.1321,0.8627,0.2400,0.1321,0.3000,0.0600,0.0002,0,-2.2635,-3.5000,-0.0010,-2.2635,-3.5000,-0.0010,28.9971,-15.9361,0.0300,0.0000
-15.7271,29.2632,-3.7921,-0.0000,0.0000,0.1200,0.0000,0.0000,0.0000,0.1969,-0.2526,-0.0038,996,1502,1500,1500,2008,1000,1505,1000,1000,1505,1005,1000,1014,-0.1221,0.0968,0.1234,-0.0194,0.0025,1.0015,0.4457,0.0595,-0.4532,-0.0519,0.8627,0.2400,0.1321,0.8627,0.2400,0.1321,0.3000,0.0600,0.0002,0,-2.2635,-3.5000,-0.0010,-2.2635,-3.5000,-0.0010,28.9587,-15.9133,0.0200,0.0000
-15.7029,29.2280,-3.7787,-0.0000,0.0000,0.1200,0.0000,0.0000,0.0000,0.1965,-0.2520,-0.0038,996,1502,1500,1500,2008,1000,1505,1000,1000,1505,1005,1000,1014,0.0149,-0.1039,0.1299,-0.0189,0.0029,0.9990,0.4447,0.0593,-0.4523,-0.0517,0.8627,0.2400,0.1321,0.8627,0.2400,0.1321,0.3000,0.0600,0.0002,0,-2.2635,-3.5000,-0.0010,-2.2635,-3.5000,-0.0010,28.9213,-15.8909,0.0200,0.0000
-15.6760,29.1919,-3.7639,-0.0829,-0.0821,0.1200,0.0000,0.0000,0.0000,0.1961,-0.2517,-0.0042,996,1502,1500,1500,2008,1000,1505,1000,1000,1505,1005,1000,1014,0.1598,-0.1304,0.2696,-0.0215,0.0005,1.0062,0.4435,0.0598,-0.4519,-0.0514,0.8627,0.2400,0.1321,0.8627,0.2400,0.1321,0.3000,0.0600,0.0002,0,-2.2635,-3.5000,-0.0010,-2.2635,-3.5000,-0.0010,28.8834,-15.8686,0.0200,0.0000
-15.6487,29.1555,-3.7490,-0.0829,-0.0821,0.1200,0.0000,0.0000,0.0000,0.1959,-0.2513,-0.0042,996,1502,1500,1500,2008,1000,1505,1000,1000,1505,1005,1000,1014,0.0982,-0.1532,0.2610,-0.0201,-0.0027,1.0053,0.4430,0.0596,-0.4514,-0.0512,0.8627,0.2400,0.1321,0.8627,0.2400,0.1321,0.3000,0.0600,0.0002,0,-2.2635,-3.5000,-0.0010,-2.2635,-3.5000,-0.0010,28.8454,-15.8460,0.0200,0.0000
-15.6222,29.1194,-3.7341,-0.0829,0.0000,0.1200,0.0000,0.0000,0.0000,0.1958,-0.2510,-0.0042,996,1502,1500,1500,2008,1000,1505,1000,1000,1505,1005,1000,1014,0.0400,-0.1313,0.2424,-0.0218,-0.0068,1.0056,0.4426,0.0594,-0.4510,-0.0511,0.8627,0.2400,0.1321,0.8627,0.2400,0.1321,0.3000,0.0600,0.0002,0,-2.2635,-3.5000,-0.0010,-2.2635,-3.5000,-0.0010,28.8070,-15.8233,0.0200,0.0000
-15.5966,29.0827,-3.7193,-0.0000,-0.0821,0.1800,0.0000,0.0000,0.0000,0.1962,-0.2507,-0.0048,996,1502,1500,1500,2008,1000,1505,1000,1000,1505,1005,1000,1014,-0.0772,-0.1471,0.1476,-0.0261,-0.0048,1.0022,0.4421,0.0593,-0.4517,-0.0497,0.8627,0.2400,0.1321,0.8627,0.2400,0.1321,0.3000,0.0600,0.0002,0,-2.2635,-3.5000,-0.0010,-2.2635,-3.5000,-0.0010,28.7693,-15.8000,0.0300,0.0000
-15.5728,29.0464,-3.7053,-0.0829,-0.0821,0.1200,0.0000,0.0000,0.0000,0.1956,-0.2505,-0.0038,996,1502,1500,1500,2008,1000,1505,1000,1000,1505,1005,1000,1014,-0.2009,-0.0743,0.1218,-0.0254,-0.0036,1.0065,0.4423,0.0586,-0.4499,-0.0510,0.8627,0.2400,0.1321,0.8627,0.2400,0.1321,0.3000,0.0600,0.0002,0,-2.2635,-3.5000,-0.0010,-2.2635,-3.5000,-0.0010,28.7316,-15.7764,0.0200,0.0000
-15.5501,29.0108,-3.6917,-0.0000,-0.0821,0.1200,0.0000,0.0000,0.0000,0.1955,-0.2503,-0.0039,996,1502,1500,1500,2008,1000,1505,1000,1000,1505,1005,1000,1014,-0.2275,-0.0090,0.1546,-0.0246,-0.0023,1.0073,0.4418,0.0587,-0.4497,-0.0509,0.8627,0.2400,0.1321,0.8627,0.2400,0.1321,0.3000,0.0600,0.0002,0,-2.2635,-3.5000,-0.0010,-2.2635,-3.5000,-0.0010,28.6937,-15.7533,0.0200,0.0000
-15.5273,28.9759,-3.6789,-0.0000,-0.0821,0.1200,0.0000,0.0000,0.0000,0.1952,-0.2501,-0.0037,996,1502,1500,1500,2008,1000,1505,1000,1000,1505,1005,1000,1014,-0.1618,0.0579,0.0790,-0.0200,-0.0010,1.0078,0.4415,0.0586,-0.4490,-0.0511,0.8627,0.2400,0.1321,0.8627,0.2400,0.1321,0.3000,0.0600,0.0002,0,-2.2635,-3.5000,-0.0010,-2.2635,-3.5000,-0.0010,28.6563,-15.7301,0.0200,0.0000
-15.5033,28.9413,-3.6657,-0.1657,-0.1642,0.1200,0.0000,0.0000,0.0000,0.1948,-0.2498,-0.0038,996,1502,1500,1500,2008,1000,1505,1000,1000,1505,1005,1000,1014,-0.0272,0.1179,0.1054,-0.0180,0.0020,1.0048,0.4409,0.0588,-0.4484,-0.0513,0.8627,0.2400,0.1321,0.8627,0.2400,0.1321,0.3000,0.0600,0.0002,0,-2.2635,-3.5000,-0.0010,-2.2635,-3.5000,-0.0010,28.6186,-15.7068,0.0200,0.0000
-15.4782,28.9062,-3.6530,-0.0000,0.0000,0.1200,0.0000,0.0000,0.0000,0.1945,-0.2493,-0.0037,996,1502,1500,1500,2008,1000,1505,1000,1000,1505,1005,1000,1014,0.0228,-0.0403,0.0858,-0.0183,0.0015,1.0017,0.4401,0.0585,-0.4476,-0.0511,0.8627,0.2400,0.1321,0.8627,0.2400,0.1321,0.3000,0.0600,0.0002,0,-2.2635,-3.5000,-0.0010,-2.2635,-3.5000,-0.0010,28.5813,-15.6834,0.0200,0.0000
-15.4529,28.8699,-3.6399,-0.0829,-0.0821,0.1800,0.0000,0.0000,0.0000,0.1948,-0.2489,-0.0047,996,1502,1500,1500,2008,1000,1505,1000,1000,1505,1005,1000,1014,0.0455,-0.1226,0.0952,-0.0195,0.0011,1.0043,0.4390,0.0588,-0.4484,-0.0494,0.8627,0.2400,0.1321,0.8627,0.2400,0.1321,0.3000,0.0600,0.0002,0,-2.2635,-3.5000,-0.0010,-2.2635,-3.5000,-0.0010,28.5441,-15.6604,0.0300,0.0000
-15.4274,28.8327,-3.6266,-0.0000,0.0000,0.1200,0.0000,0.0000,0.0000,0.1941,-0.2485,-0.0036,996,1502,1500,1500,2008,1000,1505,1000,1000,1505,1005,1000,1014,0.0199,-0.1673,0.0576,-0.0191,-0.0028,1.0034,0.4390,0.0580,-0.4462,-0.0508,0.8627,0.2400,0.1321,0.8627,0.2400,0.1321,0.3000,0.0600,0.0002,0,-2.2635,-3.5000,-0.0010,-2.2635,-3.5000,-0.0010,28.5060,-15.6373,0.0200,0.0000
-15.4031,28.7950,-3.6147,-0.0000,-0.0821,0.1200,0.0000,0.0000,0.0000,0.1939,-0.2482,-0.0033,996,1502,1500,1500,2008,1000,1505,1000,1000,1505,1005,1000,1014,-0.0009,-0.1962,-0.0700,-0.0229,-0.0058,1.0036,0.4388,0.0575,-0.4453,-0.0510,0.8627,0.2400,0.1321,0.8627,0.2400,0.1321,0.3000,0.0600,0.0002,0,-2.2635,-3.5000,-0.0010,-2.2635,-3.5000,-0.0010,28.4680,-15.6136,0.0200,0.0000
-15.3790,28.7573,-3.6026,-0.0000,-0.0821,0.1200,0.0000,0.0000,0.0000,0.1938,-0.2480,-0.0034,996,1502,1500,1500,2008,1000,1505,1000,1000,1505,1005,1000,1014,-0.0416,-0.0965,-0.0159,-0.0253,-0.0069,1.0076,0.4383,0.0576,-0.4451,-0.0508,0.8627,0.2400,0.1321,0.8627,0.2400,0.1321,0.3000,0.0600,0.0002,0,-2.2635,-3.5000,-0.0010,-2.2635,-3.5000,-0.0010,28.4302,-15.5901,0.0200,0.0000
-15.3564,28.7206,-3.5912,-0.0829,0.0000,0.1200,0.0000,0.0000,0.0000,0.1938,-0.2477,-0.0034,996,1502,1500,1500,2008,1000,1505,1000,1000,1505,1005,1000,1014,-0.2007,-0.0690,-0.0144,-0.0249,-0.0073,1.0048,0.4381,0.0573,-0.4449,-0.0505,0.8627,0.2400,0.1321,0.8627,0.2400,0.1321,0.3000,0.0600,0.0002,0,-2.2635,-3.5000,-0.0010,-2.2635,-3.5000,-0.0010,28.3928,-15.5665,0.0200,0.0000
-15.3344,28.6848,-3.5801,-0.0000,-0.0821,0.1200,0.0000,0.0000,0.0000,0.1936,-0.2476,-0.0032,996,1502,1500,1500,2008,1000,1505,1000,1000,1505,1005,1000,1014,-0.1943,0.0724,-0.0546,-0.0220,-0.0009,1.0066,0.4379,0.0572,-0.4444,-0.0507,0.8627,0.2400,0.1321,0.8627,0.2400,0.1321,0.3000,0.0600,0.0002,0,-2.2635,-3.5000,-0.0010,-2.2635,-3.5000,-0.0010,28.3558,-15.5427,0.0200,0.0000
-15.3119,28.6492,-3.5689,-0.0829,-0.0821,0.1800,0.0000,0.0000,0.0000,0.1938,-0.2471,-0.0043,996,1502,1500,1500,2008,1000,1505,1000,1000,1505,1005,1000,1014,-0.0836,-0.0630,-0.0178,-0.0234,0.0020,1.0023,0.4365,0.0577,-0.4452,-0.0490,0.8627,0.2400,0.1321,0.8627,0.2400,0.1321,0.3000,0.0600,0.0002,0,-2.2635,-3.5000,-0.0010,-2.2635,-3.5000,-0.0010,28.3183,-15.5188,0.0300,0.0000
-15.2885,28.6122,-3.5575,-0.0829,-0.0821,0.1200,0.0000,0.0000,0.0000,0.1929,-0.2467,-0.0035,996,1502,1500,1500,2008,1000,1505,1000,1000,1505,1005,1000,1014,-0.0122,-0.1147,-0.0020,-0.0185,-0.0019,1.0012,0.4362,0.0572,-0.4431,-0.0503,0.8627,0.2400,0.1321,0.8627,0.2400,0.1321,0.3000,0.0600,0.0002,0,-2.2635,-3.5000,-0.0010,-2.2635,-3.5000,-0.0010,28.2807,-15.4951,0.0200,0.0000
-15.2645,28.5761,-3.5456,-0.0000,0.0000,0.1200,0.0000,0.0000,0.0000,0.1927,-0.2465,-0.0037,996,1502,1500,1500,2008,1000,1505,1000,1000,1505,1005,1000,1014,-0.0023,-0.0350,0.0808,-0.0177,-0.0027,1.0051,0.4355,0.0575,-0.4429,-0.0501,0.8627,0.2400,0.1321,0.8627,0.2400,0.1321,0.3000,0.0600,0.0002,0,-2.2635,-3.5000,-0.0010,-2.2635,-3.5000,-0.0010,28.2429,-15.4715,0.0200,0.0000
-15.2391,28.5398,-3.5326,0.0829,0.0000,0.1200,0.0000,0.0000,0.0000,0.1924,-0.2461,-0.0039,996,1502,1500,1500,2008,1000,1505,1000,1000,1505,1005,1000,1014,0.0710,-0.0562,0.1425,-0.0206,-0.0007,1.0059,0.4346,0.0576,-0.4425,-0.0498,0.8627,0.2400,0.1321,0.8627,0.2400,0.1321,0.3000,0.0600,0.0002,0,-2.2635,-3.5000,-0.0010,-2.2635,-3.5000,-0.0010,28.2049,-15.4482,0.0200,0.0000
-15.2134,28.5033,-3.5186,-0.0000,-0.0821,0.1200,0.0000,0.0000,0.0000,0.1923,-0.2458,-0.0040,996,1502,1500,1500,2008,1000,1505,1000,1000,1505,1005,1000,1014,-0.0125,-0.0709,0.1614,-0.0216,-0.0036,1.0073,0.4341,0.0575,-0.4421,-0.0495,0.8627,0.2400,0.1321,0.8627,0.2400,0.1321,0.3000,0.0600,0.0002,0,-2.2635,-3.5000,-0.0010,-2.2635,-3.5000,-0.0010,28.1667,-15.4250,0.0200,0.0000
-15.1884,28.4666,-3.5046,-0.1657,0.0000,0.1200,0.0000,0.0000,0.0000,0.1921,-0.2454,-0.0042,996,1502,1500,1500,2008,1000,1505,1000,1000,1505,1005,1000,1014,-0.0005,-0.1330,0.2546,-0.0216,-0.0058,0.9984,0.4332,0.0576,-0.4417,-0.0491,0.8627,0.2400,0.1321,0.8627,0.2400,0.1321,0.3000,0.0600,0.0002,0,-2.2635,-3.5000,-0.0010,-2.2635,-3.5000,-0.0010,28.1287,-15.4025,0.0200,0.0000
-15.1638,28.4298,-3.4911,-0.0000,-0.0821,0.1800,0.0000,0.0000,0.0000,0.1925,-0.2452,-0.0051,996,1502,1500,1500,2008,1000,1505,1000,1000,1505,1005,1000,1014,-0.0724,-0.0845,0.2249,-0.0192,-0.0052,1.0046,0.4325,0.0578,-0.4427,-0.0476,0.8627,0.2400,0.1321,0.8627,0.2400,0.1321,0.3000,0.0600,0.0002,0,-2.2635,-3.5000,-0.0010,-2.2635,-3.5000,-0.0010,28.0899,-15.3799,0.0300,0.0000
-15.1399,28.3934,-3.4769,-0.0000,-0.0821,0.1200,0.0000,0.0000,0.0000,0.1919,-0.2449,-0.0041,996,1502,1500,1500,2008,1000,1505,1000,1000,1505,1005,1000,1014,-0.1765,-0.0719,0.2057,-0.0212,-0.0014,1.0076,0.4327,0.0570,-0.4408,-0.0489,0.8627,0.2400,0.1321,0.8627,0.2400,0.1321,0.3000,0.0600,0.0002,0,-2.2635,-3.5000,-0.0010,-2.2635,-3.5000,-0.0010,28.0519,-15.3570,0.0200,0.0000
-15.1163,28.3574,-3.4631,-0.0829,0.0000,0.1200,0.0000,0.0000,0.0000,0.1916,-0.2445,-0.0040,996,1502,1500,1500,2008,1000,1505,1000,1000,1505,1005,1000,1014,-0.1348,-0.1198,0.1773,-0.0229,0.0026,1.0059,0.4321,0.0568,-0.4401,-0.0489,0.8627,0.2400,0.1321,0.8627,0.2400,0.1321,0.3000,0.0600,0.0002,0,-2.2635,-3.5000,-0.0010,-2.2635,-3.5000,-0.0010,28.0139,-15.3336,0.0200,0.0000
-15.0925,28.3213,-3.4490,-0.0829,-0.0821,0.1200,0.0000,0.0000,0.0000,0.1914,-0.2443,-0.0040,996,1502,1500,1500,2008,1000,1505,1000,1000,1505,1005,1000,1014,-0.1577,-0.0372,0.2024,-0.0206,0.0002,1.0004,0.4317,0.0569,-0.4398,-0.0488,0.8627,0.2400,0.1321,0.8627,0.2400,0.1321,0.3000,0.0600,0.0002,0,-2.2635,-3.5000,-0.0010,-2.2635,-3.5000,-0.0010,27.9762,-15.3102,0.0200,0.0000
-15.0682,28.2849,-3.4355,-0.0000,0.0000,0.1200,0.0000,0.0000,0.0000,0.1911,-0.2439,-0.0040,996,1502,1500,1500,2008,1000,1505,1000,1000,1505,1005,1000,1014,-0.0363,-0.0546,0.1558,-0.0230,-0.0009,1.0087,0.4310,0.0568,-0.4390,-0.0489,0.8627,0.2400,0.1321,0.8627,0.2400,0.1321,0.3000,0.0600,0.0002,0,-2.2635,-3.5000,-0.0010,-2.2635,-3.5000,-0.0010,27.9383,-15.2873,0.0200,0.0000
-15.0429,28.2483,-3.4217,-0.0829,-0.0821,0.1200,0.0000,0.0000,0.0000,0.1908,-0.2435,-0.0040,996,1502,1500,1500,2008,1000,1505,1000,1000,1505,1005,1000,1014,-0.0026,-0.1386,0.1709,-0.0257,-0.0023,1.0043,0.4304,0.0567,-0.4383,-0.0487,0.8627,0.2400,0.1321,0.8627,0.2400,0.1321,0.3000,0.0600,0.0002,0,-2.2635,-3.5000,-0.0010,-2.2635,-3.5000,-0.0010,27.8999,-15.2648,0.0200,0.0000
-15.0169,28.2120,-3.4080,-0.0000,-0.0821,0.1800,0.0000,0.0000,0.0000,0.1910,-0.2433,-0.0048,996,1502,1500,1500,2008,1000,1505,1000,1000,1505,1005,1000,1014,0.1062,-0.0987,0.1430,-0.0232,-0.0041,1.0000,0.4294,0.0571,-0.4391,-0.0475,0.8627,0.2400,0.1321,0.8627,0.2400,0.1321,0.3000,0.0600,0.0002,0,-2.2635,-3.5000,-0.0010,-2.2635,-3.5000,-0.0010,27.8618,-15.2416,0.0300,0.0000
-14.9912,28.1754,-3.3951,-0.1657,-0.2462,0.1200,0.0000,0.0000,0.0000,0.1903,-0.2429,-0.0039,996,1502,1500,1500,2008,1000,1505,1000,1000,1505,1005,1000,1014,0.0527,-0.1129,0.1305,-0.0242,-0.0073,1.0039,0.4293,0.0565,-0.4371,-0.0488,0.8627,0.2400,0.1321,0.8627,0.2400,0.1321,0.3000,0.0600,0.0002,0,-2.2635,-3.5000,-0.0010,-2.2635,-3.5000,-0.0010,27.8243,-15.2187,0.0200,0.0000
-14.9669,28.1382,-3.3820,-0.0000,-0.0821,0.1200,0.0000,0.0000,0.0000,0.1903,-0.2426,-0.0037,996,1502,1500,1500,2008,1000,1505,1000,1000,1505,1005,1000,1014,-0.1006,-0.1229,0.0845,-0.0178,-0.0043,1.0053,0.4292,0.0560,-0.4365,-0.0486,0.8627,0.2400,0.1321,0.8627,0.2400,0.1321,0.3000,0.0600,0.0002,0,-2.2635,-3.5000,-0.0010,-2.2635,-3.5000,-0.0010,27.7865,-15.1958,0.0200,0.0000
-14.9438,28.1014,-3.3698,-0.2486,-0.1642,0.1200,0.0000,0.0000,0.0000,0.1901,-0.2423,-0.0037,996,1502,1500,1500,2008,1000,1505,1000,1000,1505,1005,1000,1014,-0.1401,-0.0628,0.0916,-0.0239,-0.0011,1.0029,0.4287,0.0560,-0.4362,-0.0485,0.8627,0.2400,0.1321,0.8627,0.2400,0.1321,0.3000,0.0600,0.0002,0,-2.2635,-3.5000,-0.0010,-2.2635,-3.5000,-0.0010,27.7489,-15.1726,0.0200,0.0000
-14.9212,28.0643,-3.3577,-0.0000,-0.0821,0.1200,0.0000,0.0000,0.0000,0.1900,-0.2420,-0.0032,996,1502,1500,1500,2008,1000,1505,1000,1000,1505,1005,1000,1014,-0.1696,-0.0895,-0.0706,-0.0222,-0.0032,1.0050,0.4288,0.0552,-0.4352,-0.0488,0.8627,0.2400,0.1321,0.8627,0.2400,0.1321,0.3000,0.0600,0.0002,0,-2.2635,-3.5000,-0.0010,-2.2635,-3.5000,-0.0010,27.7110,-15.1489,0.0200,0.0000
-14.8986,28.0275,-3.3468,-0.0000,0.0000,0.1200,0.0000,0.0000,0.0000,0.1898,-0.2418,-0.0033,996,1502,1500,1500,2008,1000,1505,1000,1000,1505,1005,1000,1014,-0.1494,-0.0305,-0.0443,-0.0237,0.0005,1.0079,0.4282,0.0553,-0.4348,-0.0487,0.8627,0.2400,0.1321,0.8627,0.2400,0.1321,0.3000,0.0600,0.0002,0,-2.2635,-3.5000,-0.0010,-2.2635,-3.5000,-0.0010,27.6732,-15.1247,0.0200,0.0000
-14.8751,27.9905,-3.3352,-0.0829,0.0000,0.1800,0.0000,0.0000,0.0000,0.1899,-0.2413,-0.0043,996,1502,1500,1500,2008,1000,1505,1000,1000,1505,1005,1000,1014,-0.0328,-0.1237,-0.0246,-0.0213,0.0038,1.0047,0.4269,0.0557,-0.4355,-0.0471,0.8627,0.2400,0.1321,0.8627,0.2400,0.1321,0.3000,0.0600,0.0002,0,-2.2635,-3.5000,-0.0010,-2.2635,-3.5000,-0.0010,27.6350,-15.1005,0.0300,0.0000
-14.8514,27.9544,-3.3247,-0.0000,0.0000,0.1200,0.0000,0.0000,0.0000,0.1891,-0.2412,-0.0035,996,1502,1500,1500,2008,1000,1505,1000,1000,1505,1005,1000,1014,0.0100,0.0503,0.0007,-0.0176,-0.0005,1.0037,0.4269,0.0556,-0.4339,-0.0486,0.8627,0.2400,0.1321,0.8627,0.2400,0.1321,0.3000,0.0600,0.0002,0,-2.2635,-3.5000,-0.0010,-2.2635,-3.5000,-0.0010,27.5968,-15.0769,0.0200,0.0000
-14.8268,27.9182,-3.3133,-0.0000,0.0000,0.1200,0.0000,0.0000,0.0000,0.1889,-0.2409,-0.0035,996,1502,1500,1500,2008,1000,1505,1000,1000,1505,1005,1000,1014,0.0345,0.0018,0.0018,-0.0189,-0.0033,1.0056,0.4263,0.0554,-0.4332,-0.0485,0.8627,0.2400,0.1321,0.8627,0.2400,0.1321,0.3000,0.0600,0.0002,0,-2.2635,-3.5000,-0.0010,-2.2635,-3.5000,-0.0010,27.5591,-15.0534,0.0200,0.0000
-14.8019,27.8820,-3.3017,-0.0000,-0.0821,0.1200,0.0000,0.0000,0.0000,0.1886,-0.2405,-0.0036,996,1502,1500,1500,2008,1000,1505,1000,1000,1505,1005,1000,1014,0.0693,-0.0142,0.0627,-0.0231,-0.0037,1.0062,0.4256,0.0555,-0.4327,-0.0483,0.8627,0.2400,0.1321,0.8627,0.2400,0.1321,0.3000,0.0600,0.0002,0,-2.2635,-3.5000,-0.0010,-2.2635,-3.5000,-0.0010,27.5213,-15.0298,0.0200,0.0000
-14.7777,27.8455,-3.2902,-0.0829,0.0000,0.1200,0.0000,0.0000,0.0000,0.1885,-0.2402,-0.0035,996,1502,1500,1500,2008,1000,1505,1000,1000,1505,1005,1000,1014,-0.0041,-0.0535,0.0365,-0.0230,-0.0061,1.0062,0.4252,0.0551,-0.4322,-0.0481,0.8627,0.2400,0.1321,0.8627,0.2400,0.1321,0.3000,0.0600,0.0002,0,-2.2635,-3.5000,-0.0010,-2.2635,-3.5000,-0.0010,27.4840,-15.0056,0.0200,0.0000
-14.7544,27.8084,-3.2786,-0.0000,-0.0821,0.1200,0.0000,0.0000,0.0000,0.1885,-0.2398,-0.0037,996,1502,1500,1500,2008,1000,1505,1000,1000,1505,1005,1000,1014,-0.1285,-0.0928,0.0955,-0.0224,-0.0050,1.0050,0.4245,0.0550,-0.4320,-0.0476,0.8627,0.2400,0.1321,0.8627,0.2400,0.1321,0.3000,0.0600,0.0002,0,-2.2635,-3.5000,-0.0010,-2.2635,-3.5000,-0.0010,27.4460,-14.9814,0.0200,0.0000
-14.7316,27.7711,-3.2663,-0.0000,0.0000,0.1800,0.0000,0.0000,0.0000,0.1889,-0.2395,-0.0044,996,1502,1500,1500,2008,1000,1505,1000,1000,1505,1005,1000,1014,-0.1906,-0.0296,0.0257,-0.0236,-0.0020,1.0036,0.4240,0.0551,-0.4329,-0.0462,0.8627,0.2400,0.1321,0.8627,0.2400,0.1321,0.3000,0.0600,0.0002,0,-2.2635,-3.5000,-0.0010,-2.2635,-3.5000,-0.0010,27.4080,-14.9571,0.0300,0.0000
-14.7087,27.7344,-3.2543,-0.0000,-0.0821,0.1200,0.0000,0.0000,0.0000,0.1881,-0.2392,-0.0037,996,1502,1500,1500,2008,1000,1505,1000,1000,1505,1005,1000,1014,-0.1443,-0.0814,0.0742,-0.0217,-0.0003,0.9988,0.4236,0.0547,-0.4310,-0.0474,0.8627,0.2400,0.1321,0.8627,0.2400,0.1321,0.3000,0.0600,0.0002,0,-2.2635,-3.5000,-0.0010,-2.2635,-3.5000,-0.0010,27.3701,-14.9333,0.0200,0.0000
-14.6851,27.6984,-3.2414,-0.0829,0.0000,0.1200,0.0000,0.0000,0.0000,0.1879,-0.2389,-0.0039,996,1502,1500,1500,2008,1000,1505,1000,1000,1505,1005,1000,1014,-0.1116,-0.0335,0.1358,-0.0230,0.0008,0.9973,0.4229,0.0549,-0.4306,-0.0472,0.8627,0.2400,0.1321,0.8627,0.2400,0.1321,0.3000,0.0600,0.0002,0,-2.2635,-3.5000,-0.0010,-2.2635,-3.5000,-0.0010,27.3321,-14.9097,0.0200,0.0000
-14.6600,27.6618,-3.2278,-0.0000,0.0000,0.1200,0.0000,0.0000,0.0000,0.1875,-0.2386,-0.0039,996,1502,1500,1500,2008,1000,1505,1000,1000,1505,1005,1000,1014,0.0200,-0.0535,0.1556,-0.0220,0.0009,1.0086,0.4221,0.0550,-0.4300,-0.0471,0.8627,0.2400,0.1321,0.8627,0.2400,0.1321,0.3000,0.0600,0.0002,0,-2.2635,-3.5000,-0.0010,-2.2635,-3.5000,-0.0010,27.2942,-14.8858,0.0200,0.0000
-14.6348,27.6258,-3.2145,-0.0829,-0.0821,0.1200,0.0000,0.0000,0.0000,0.1873,-0.2383,-0.0040,996,1502,1500,1500,2008,1000,1505,1000,1000,1505,1005,1000,1014,0.0232,-0.0231,0.1749,-0.0196,-0.0022,1.0095,0.4216,0.0550,-0.4295,-0.0471,0.8627,0.2400,0.1321,0.8627,0.2400,0.1321,0.3000,0.0600,0.0002,0,-2.2635,-3.5000,-0.0010,-2.2635,-3.5000,-0.0010,27.2564,-14.8622,0.0200,0.0000
-14.6095,27.5898,-3.2012,-0.0000,-0.0821,0.1200,0.0000,0.0000,0.0000,0.1871,-0.2379,-0.0041,996,1502,1500,1500,2008,1000,1505,1000,1000,1505,1005,1000,1014,0.0122,-0.0554,0.2073,-0.0220,-0.0042,1.0037,0.4209,0.0550,-0.4291,-0.0468,0.8627,0.2400,0.1321,0.8627,0.2400,0.1321,0.3000,0.0600,0.0002,0,-2.2635,-3.5000,-0.0010,-2.2635,-3.5000,-0.0010,27.2179,-14.8388,0.0200,0.0000
-14.5840,27.5529,-3.1873,-0.0829,-0.0821,0.1800,0.0000,0.0000,0.0000,0.1874,-0.2375,-0.0049,996,1502,1500,1500,2008,1000,1505,1000,1000,1505,1005,1000,1014,-0.0216,-0.1238,0.1843,-0.0213,-0.0044,1.0045,0.4200,0.0551,-0.4299,-0.0452,0.8627,0.2400,0.1321,0.8627,0.2400,0.1321,0.3000,0.0600,0.0002,0,-2.2635,-3.5000,-0.0010,-2.2635,-3.5000,-0.0010,27.1796,-14.8168,0.0300,0.0000
-14.5601,27.5156,-3.1741,-0.0829,-0.0821,0.1200,0.0000,0.0000,0.0000,0.1868,-0.2372,-0.0040,996,1502,1500,1500,2008,1000,1505,1000,1000,1505,1005,1000,1014,-0.0988,-0.1242,0.1713,-0.0229,-0.0058,1.0058,0.4200,0.0544,-0.4280,-0.0465,0.8627,0.2400,0.1321,0.8627,0.2400,0.1321,0.3000,0.0600,0.0002,0,-2.2635,-3.5000,-0.0010,-2.2635,-3.5000,-0.0010,27.1415,-14.7940,0.0200,0.0000
-14.5362,27.4783,-3.1607,-0.1657,-0.0821,0.1200,0.0000,0.0000,0.0000,0.1866,-0.2369,-0.0038,996,1502,1500,1500,2008,1000,1505,1000,1000,1505,1005,1000,1014,-0.1089,-0.1133,0.1219,-0.0247,-0.0057,1.0012,0.4197,0.0541,-0.4273,-0.0465,0.8627,0.2400,0.1321,0.8627,0.2400,0.1321,0.3000,0.0600,0.0002,0,-2.2635,-3.5000,-0.0010,-2.2635,-3.5000,-0.0010,27.1032,-14.7701,0.0200,0.0000
-14.5128,27.4407,-3.1478,-0.0000,0.0000,0.1200,0.0000,0.0000,0.0000,0.1864,-0.2365,-0.0039,996,1502,1500,1500,2008,1000,1505,1000,1000,1505,1005,1000,1014,-0.1570,-0.1643,0.1417,-0.0254,-0.0006,1.0063,0.4191,0.0540,-0.4269,-0.0462,0.8627,0.2400,0.1321,0.8627,0.2400,0.1321,0.3000,0.0600,0.0002,0,-2.2635,-3.5000,-0.0010,-2.2635,-3.5000,-0.0010,27.0651,-14.7467,0.0200,0.0000
-14.4895,27.4030,-3.1348,-0.2486,-0.1642,0.1200,0.0000,0.0000,0.0000,0.1862,-0.2362,-0.0038,996,1502,1500,1500,2008,1000,1505,1000,1000,1505,1005,1000,1014,-0.1336,-0.1467,0.0998,-0.0204,-0.0017,1.0060,0.4187,0.0538,-0.4262,-0.0462,0.8627,0.2400,0.1321,0.8627,0.2400,0.1321,0.3000,0.0600,0.0002,0,-2.2635,-3.5000,-0.0010,-2.2635,-3.5000,-0.0010,27.0269,-14.7240,0.0200,0.0000
-14.4655,27.3658,-3.1220,-0.0829,0.0000,0.1200,0.0000,0.0000,0.0000,0.1859,-0.2360,-0.0038,996,1502,1500,1500,2008,1000,1505,1000,1000,1505,1005,1000,1014,-0.0328,-0.0733,0.1251,-0.0227,-0.0008,1.0025,0.4180,0.0540,-0.4257,-0.0463,0.8627,0.2400,0.1321,0.8627,0.2400,0.1321,0.3000,0.0600,0.0002,0,-2.2635,-3.5000,-0.0010,-2.2635,-3.5000,-0.0010,26.9888,-14.7009,0.0200,0.0000
-14.4410,27.3294,-3.1100,-0.0829,-0.0821,0.1800,0.0000,0.0000,0.0000,0.1861,-0.2357,-0.0048,996,1502,1500,1500,2008,1000,1505,1000,1000,1505,1005,1000,1014,0.0188,-0.0383,0.1091,-0.0216,0.0042,1.0053,0.4170,0.0544,-0.4266,-0.0448,0.8627,0.2400,0.1321,0.8627,0.2400,0.1321,0.3000,0.0600,0.0002,0,-2.2635,-3.5000,-0.0010,-2.2635,-3.5000,-0.0010,26.9512,-14.6776,0.0300,0.0000
-14.4159,27.2932,-3.0974,-0.0000,0.0000,0.1200,0.0000,0.0000,0.0000,0.1853,-0.2355,-0.0039,996,1502,1500,1500,2008,1000,1505,1000,1000,1505,1005,1000,1014,0.0573,0.0040,0.1292,-0.0222,-0.0022,1.0020,0.4169,0.0540,-0.4247,-0.0463,0.8627,0.2400,0.1321,0.8627,0.2400,0.1321,0.3000,0.0600,0.0002,0,-2.2635,-3.5000,-0.0010,-2.2635,-3.5000,-0.0010,26.9134,-14.6547,0.0200,0.0000
-14.3910,27.2563,-3.0852,-0.0000,-0.0821,0.1200,0.0000,0.0000,0.0000,0.1852,-0.2350,-0.0037,996,1502,1500,1500,2008,1000,1505,1000,1000,1505,1005,1000,1014,0.0057,-0.1435,0.0783,-0.0213,-0.0051,1.0039,0.4165,0.0534,-0.4238,-0.0461,0.8627,0.2400,0.1321,0.8627,0.2400,0.1321,0.3000,0.0600,0.0002,0,-2.2635,-3.5000,-0.0010,-2.2635,-3.5000,-0.0010,26.8756,-14.6308,0.0200,0.0000
-14.3668,27.2184,-3.0736,-0.0000,-0.0821,0.1200,0.0000,0.0000,0.0000,0.1849,-0.2347,-0.0036,996,1502,1500,1500,2008,1000,1505,1000,1000,1505,1005,1000,1014,0.0258,-0.1209,0.0389,-0.0205,-0.0032,1.0055,0.4160,0.0533,-0.4232,-0.0461,0.8627,0.2400,0.1321,0.8627,0.2400,0.1321,0.3000,0.0600,0.0002,0,-2.2635,-3.5000,-0.0010,-2.2635,-3.5000,-0.0010,26.8376,-14.6073,0.0200,0.0000
-14.3434,27.1806,-3.0626,-0.0000,-0.0821,0.1200,0.0000,0.0000,0.0000,0.1849,-0.2343,-0.0033,996,1502,1500,1500,2008,1000,1505,1000,1000,1505,1005,1000,1014,-0.1109,-0.1347,-0.0348,-0.0224,-0.0044,1.0086,0.4159,0.0527,-0.4226,-0.0460,0.8627,0.2400,0.1321,0.8627,0.2400,0.1321,0.3000,0.0600,0.0002,0,-2.2635,-3.5000,-0.0010,-2.2635,-3.5000,-0.0010,26.7998,-14.5840,0.0200,0.0000
-14.3213,27.1429,-3.0518,-0.0000,0.0000,0.1200,0.0000,0.0000,0.0000,0.1848,-0.2341,-0.0036,996,1502,1500,1500,2008,1000,1505,1000,1000,1505,1005,1000,1014,-0.1441,-0.0779,0.0488,-0.0229,-0.0008,1.0068,0.4152,0.0529,-0.4225,-0.0457,0.8627,0.2400,0.1321,0.8627,0.2400,0.1321,0.3000,0.0600,0.0002,0,-2.2635,-3.5000,-0.0010,-2.2635,-3.5000,-0.0010,26.7619,-14.5596,0.0200,0.0000
-14.2991,27.1058,-3.0411,-0.0000,0.0000,0.1800,0.0000,0.0000,0.0000,0.1851,-0.2337,-0.0044,996,1502,1500,1500,2008,1000,1505,1000,1000,1505,1005,1000,1014,-0.1302,-0.0815,-0.0295,-0.0238,-0.0003,1.0008,0.4145,0.0530,-0.4232,-0.0443,0.8627,0.2400,0.1321,0.8627,0.2400,0.1321,0.3000,0.0600,0.0002,0,-2.2635,-3.5000,-0.0010,-2.2635,-3.5000,-0.0010,26.7236,-14.5351,0.0300,0.0000
-14.2767,27.0694,-3.0303,-0.0000,-0.0821,0.1200,0.0000,0.0000,0.0000,0.1844,-0.2335,-0.0034,996,1502,1500,1500,2008,1000,1505,1000,1000,1505,1005,1000,1014,-0.1350,-0.0135,-0.0212,-0.0210,0.0026,1.0016,0.4145,0.0525,-0.4213,-0.0458,0.8627,0.2400,0.1321,0.8627,0.2400,0.1321,0.3000,0.0600,0.0002,0,-2.2635,-3.5000,-0.0010,-2.2635,-3.5000,-0.0010,26.6856,-14.5103,0.0200,0.0000
-14.2533,27.0329,-3.0194,-0.0000,-0.0821,0.1200,0.0000,0.0000,0.0000,0.1841,-0.2332,-0.0036,996,1502,1500,1500,2008,1000,1505,1000,1000,1505,1005,1000,1014,-0.0482,0.0194,0.0327,-0.0183,-0.0002,1.0080,0.4137,0.0527,-0.4209,-0.0456,0.8627,0.2400,0.1321,0.8627,0.2400,0.1321,0.3000,0.0600,0.0002,0,-2.2635,-3.5000,-0.0010,-2.2635,-3.5000,-0.0010,26.6481,-14.4858,0.0200,0.0000
-14.2288,26.9962,-3.0074,-0.0000,-0.0821,0.1200,0.0000,0.0000,0.0000,0.1838,-0.2329,-0.0039,996,1502,1500,1500,2008,1000,1505,1000,1000,1505,1005,1000,1014,0.0277,0.0142,0.1490,-0.0187,-0.0020,1.0005,0.4127,0.0531,-0.4206,-0.0452,0.8627,0.2400,0.1321,0.8627,0.2400,0.1321,0.3000,0.0600,0.0002,0,-2.2635,-3.5000,-0.0010,-2.2635,-3.5000,-0.0010,26.6105,-14.4622,0.0200,0.0000
-14.2032,26.9601,-2.9949,-0.0000,-0.0821,0.1200,0.0000,0.0000,0.0000,0.1834,-0.2326,-0.0039,996,1502,1500,1500,2008,1000,1505,1000,1000,1505,1005,1000,1014,0.0956,-0.0074,0.1484,-0.0201,-0.0029,1.0064,0.4121,0.0530,-0.4199,-0.0452,0.8627,0.2400,0.1321,0.8627,0.2400,0.1321,0.3000,0.0600,0.0002,0,-2.2635,-3.5000,-0.0010,-2.2635,-3.5000,-0.0010,26.5730,-14.4381,0.0200,0.0000
-14.1780,26.9232,-2.9821,-0.0000,0.0000,0.1200,0.0000,0.0000,0.0000,0.1833,-0.2322,-0.0039,996,1502,1500,1500,2008,1000,1505,1000,1000,1505,1005,1000,1014,0.0364,-0.0873,0.1642,-0.0221,-0.0036,1.0031,0.4115,0.0528,-0.4194,-0.0449,0.8627,0.2400,0.1321,0.8627,0.2400,0.1321,0.3000,0.0600,0.0002,0,-2.2635,-3.5000,-0.0010,-2.2635,-3.5000,-0.0010,26.5350,-14.4143,0.0200,0.0000
-14.1534,26.8857,-2.9694,-0.0829,-0.0821,0.1800,0.0000,0.0000,0.0000,0.1837,-0.2317,-0.0047,996,1502,1500,1500,2008,1000,1505,1000,1000,1505,1005,1000,1014,-0.0629,-0.1596,0.0957,-0.0241,-0.0035,1.0046,0.4108,0.0527,-0.4201,-0.0433,0.8627,0.2400,0.1321,0.8627,0.2400,0.1321,0.3000,0.0600,0.0002,0,-2.2635,-3.5000,-0.0010,-2.2635,-3.5000,-0.0010,26.4972,-14.3904,0.0300,0.0000
-14.1299,26.8479,-2.9563,-0.0000,0.0000,0.1200,0.0000,0.0000,0.0000,0.1831,-0.2314,-0.0040,996,1502,1500,1500,2008,1000,1505,1000,1000,1505,1005,1000,1014,-0.1451,-0.1375,0.1870,-0.0225,-0.0044,1.0034,0.4105,0.0523,-0.4186,-0.0443,0.8627,0.2400,0.1321,0.8627,0.2400,0.1321,0.3000,0.0600,0.0002,0,-2.2635,-3.5000,-0.0010,-2.2635,-3.5000,-0.0010,26.4594,-14.3671,0.0200,0.0000
-14.1066,26.8105,-2.9434,-0.0829,-0.0821,0.1200,0.0000,0.0000,0.0000,0.1829,-0.2311,-0.0040,996,1502,1500,1500,2008,1000,1505,1000,1000,1505,1005,1000,1014,-0.1458,-0.1381,0.1874,-0.0215,-0.0032,1.0034,0.4100,0.0522,-0.4181,-0.0441,0.8627,0.2400,0.1321,0.8627,0.2400,0.1321,0.3000,0.0600,0.0002,0,-2.2635,-3.5000,-0.0010,-2.2635,-3.5000,-0.0010,26.4212,-14.3436,0.0200,0.0000
-14.0833,26.7735,-2.9305,-0.0829,-0.0821,0.1200,0.0000,0.0000,0.0000,0.1826,-0.2310,-0.0039,996,1502,1500,1500,2008,1000,1505,1000,1000,1505,1005,1000,1014,-0.0758,-0.0052,0.1457,-0.0206,-0.0009,1.0080,0.4097,0.0522,-0.4175,-0.0444,0.8627,0.2400,0.1321,0.8627,0.2400,0.1321,0.3000,0.0600,0.0002,0,-2.2635,-3.5000,-0.0010,-2.2635,-3.5000,-0.0010,26.3829,-14.3204,0.0200,0.0000
-14.0597,26.7375,-2.9180,-0.0000,-0.0821,0.1200,0.0000,0.0000,0.0000,0.1825,-0.2307,-0.0040,996,1502,1500,1500,2008,1000,1505,1000,1000,1505,1005,1000,1014,-0.1220,0.0107,0.1621,-0.0212,0.0002,1.0084,0.4092,0.0522,-0.4172,-0.0442,0.8627,0.2400,0.1321,0.8627,0.2400,0.1321,0.3000,0.0600,0.0002,0,-2.2635,-3.5000,-0.0010,-2.2635,-3.5000,-0.0010,26.3442,-14.2972,0.0200,0.0000
-14.0362,26.7012,-2.9055,-0.1657,-0.3283,0.1200,0.0000,0.0000,0.0000,0.1822,-0.2304,-0.0040,996,1502,1500,1500,2008,1000,1505,1000,1000,1505,1005,1000,1014,-0.0581,0.0080,0.1765,-0.0201,0.0005,1.0061,0.4086,0.0521,-0.4166,-0.0442,0.8627,0.2400,0.1321,0.8627,0.2400,0.1321,0.3000,0.0600,0.0002,0,-2.2635,-3.5000,-0.0010,-2.2635,-3.5000,-0.0010,26.3060,-14.2738,0.0200,0.0000
-14.0112,26.6647,-2.8923,-0.0000,0.0000,0.1800,0.0000,0.0000,0.0000,0.1824,-0.2300,-0.0051,996,1502,1500,1500,2008,1000,1505,1000,1000,1505,1005,1000,1014,0.0575,-0.0342,0.2273,-0.0189,-0.0009,1.0020,0.4073,0.0527,-0.4174,-0.0426,0.8627,0.2400,0.1321,0.8627,0.2400,0.1321,0.3000,0.0600,0.0002,0,-2.2635,-3.5000,-0.0010,-2.2635,-3.5000,-0.0010,26.2677,-14.2506,0.0300,0.0000
-13.9857,26.6275,-2.8789,-0.0829,-0.1642,0.1200,0.0000,0.0000,0.0000,0.1816,-0.2296,-0.0039,996,1502,1500,1500,2008,1000,1505,1000,1000,1505,1005,1000,1014,0.0616,-0.0739,0.1701,-0.0216,-0.0045,1.0058,0.4073,0.0519,-0.4152,-0.0441,0.8627,0.2400,0.1321,0.8627,0.2400,0.1321,0.3000,0.0600,0.0002,0,-2.2635,-3.5000,-0.0010,-2.2635,-3.5000,-0.0010,26.2291,-14.2277,0.0200,0.0000
-13.9608,26.5897,-2.8665,-0.0000,0.0000,0.1200,0.0000,0.0000,0.0000,0.1815,-0.2292,-0.0039,996,1502,1500,1500,2008,1000,1505,1000,1000,1505,1005,1000,1014,0.0086,-0.1336,0.1299,-0.0230,-0.0052,1.0020,0.4068,0.0516,-0.4146,-0.0439,0.8627,0.2400,0.1321,0.8627,0.2400,0.1321,0.3000,0.0600,0.0002,0,-2.2635,-3.5000,-0.0010,-2.2635,-3.5000,-0.0010,26.1903,-14.2045,0.0200,0.0000
-13.9369,26.5520,-2.8546,-0.0000,0.0000,0.1200,0.0000,0.0000,0.0000,0.1814,-0.2289,-0.0038,996,1502,1500,1500,2008,1000,1505,1000,1000,1505,1005,1000,1014,-0.0964,-0.0928,0.1064,-0.0254,-0.0019,1.0042,0.4065,0.0513,-0.4141,-0.0437,0.8627,0.2400,0.1321,0.8627,0.2400,0.1321,0.3000,0.0600,0.0002,0,-2.2635,-3.5000,-0.0010,-2.2635,-3.5000,-0.0010,26.1518,-14.1807,0.0200,0.0000
-13.9137,26.5142,-2.8425,-0.0000,0.0000,0.1200,0.0000,0.0000,0.0000,0.1813,-0.2286,-0.0038,996,1502,1500,1500,2008,1000,1505,1000,1000,1505,1005,1000,1014,-0.1387,-0.1347,0.1258,-0.0224,-0.0021,1.0019,0.4060,0.0512,-0.4137,-0.0435,0.8627,0.2400,0.1321,0.8627,0.2400,0.1321,0.3000,0.0600,0.0002,0,-2.2635,-3.5000,-0.0010,-2.2635,-3.5000,-0.0010,26.1137,-14.1567,0.0200,0.0000
-13.8913,26.4772,-2.8315,-0.0829,0.0000,0.1200,0.0000,0.0000,0.0000,0.1811,-0.2284,-0.0036,996,1502,1500,1500,2008,1000,1505,1000,1000,1505,1005,1000,1014,-0.1436,0.0135,0.0226,-0.0215,-0.0027,1.0045,0.4060,0.0509,-0.4131,-0.0438,0.8627,0.2400,0.1321,0.8627,0.2400,0.1321,0.3000,0.0600,0.0002,0,-2.2635,-3.5000,-0.0010,-2.2635,-3.5000,-0.0010,26.0753,-14.1324,0.0200,0.0000
-13.8687,26.4409,-2.8209,-0.0829,-0.0821,0.1800,0.0000,0.0000,0.0000,0.1812,-0.2282,-0.0046,996,1502,1500,1500,2008,1000,1505,1000,1000,1505,1005,1000,1014,-0.0226,0.0415,0.0326,-0.0228,0.0000,1.0011,0.4048,0.0515,-0.4139,-0.0424,0.8627,0.2400,0.1321,0.8627,0.2400,0.1321,0.3000,0.0600,0.0002,0,-2.2635,-3.5000,-0.0010,-2.2635,-3.5000,-0.0010,26.0371,-14.1080,0.0300,0.0000
-13.8449,26.4044,-2.8100,-0.0000,0.0000,0.1200,0.0000,0.0000,0.0000,0.1805,-0.2278,-0.0036,996,1502,1500,1500,2008,1000,1505,1000,1000,1505,1005,1000,1014,-0.0375,0.0337,0.0392,-0.0196,0.0005,1.0062,0.4048,0.0509,-0.4120,-0.0437,0.8627,0.2400,0.1321,0.8627,0.2400,0.1321,0.3000,0.0600,0.0002,0,-2.2635,-3.5000,-0.0010,-2.2635,-3.5000,-0.0010,25.9992,-14.0826,0.0200,0.0000
-13.8207,26.3676,-2.7987,-0.0829,-0.0821,0.1200,0.0000,0.0000,0.0000,0.1802,-0.2274,-0.0035,996,1502,1500,1500,2008,1000,1505,1000,1000,1505,1005,1000,1014,0.0210,-0.0676,0.0102,-0.0206,0.0023,1.0056,0.4041,0.0506,-0.4111,-0.0437,0.8627,0.2400,0.1321,0.8627,0.2400,0.1321,0.3000,0.0600,0.0002,0,-2.2635,-3.5000,-0.0010,-2.2635,-3.5000,-0.0010,25.9615,-14.0581,0.0200,0.0000
-13.7960,26.3301,-2.7875,-0.0829,-0.0821,0.1200,0.0000,0.0000,0.0000,0.1800,-0.2270,-0.0035,996,1502,1500,1500,2008,1000,1505,1000,1000,1505,1005,1000,1014,0.0549,-0.1025,-0.0014,-0.0229,-0.0016,1.0026,0.4035,0.0505,-0.4105,-0.0436,0.8627,0.2400,0.1321,0.8627,0.2400,0.1321,0.3000,0.0600,0.0002,0,-2.2635,-3.5000,-0.0010,-2.2635,-3.5000,-0.0010,25.9240,-14.0335,0.0200,0.0000
-13.7720,26.2920,-2.7757,-0.0829,-0.0821,0.1200,0.0000,0.0000,0.0000,0.1799,-0.2266,-0.0038,996,1502,1500,1500,2008,1000,1505,1000,1000,1505,1005,1000,1014,-0.0112,-0.1710,0.1171,-0.0234,-0.0046,1.0053,0.4027,0.0505,-0.4103,-0.0429,0.8627,0.2400,0.1321,0.8627,0.2400,0.1321,0.3000,0.0600,0.0002,0,-2.2635,-3.5000,-0.0010,-2.2635,-3.5000,-0.0010,25.8863,-14.0090,0.0200,0.0000
-13.7482,26.2539,-2.7640,-0.0000,0.0000,0.1200,0.0000,0.0000,0.0000,0.1797,-0.2263,-0.0036,996,1502,1500,1500,2008,1000,1505,1000,1000,1505,1005,1000,1014,-0.0530,-0.1405,0.0306,-0.0226,-0.0013,1.0036,0.4025,0.0502,-0.4096,-0.0430,0.8627,0.2400,0.1321,0.8627,0.2400,0.1321,0.3000,0.0600,0.0002,0,-2.2635,-3.5000,-0.0010,-2.2635,-3.5000,-0.0010,25.8488,-13.9844,0.0200,0.0000
-13.7248,26.2160,-2.7526,-0.0000,0.0000,0.1800,0.0000,0.0000,0.0000,0.1801,-0.2260,-0.0046,996,1502,1500,1500,2008,1000,1505,1000,1000,1505,1005,1000,1014,-0.1349,-0.0910,0.0700,-0.0252,-0.0012,1.0006,0.4016,0.0505,-0.4108,-0.0413,0.8627,0.2400,0.1321,0.8627,0.2400,0.1321,0.3000,0.0600,0.0002,0,-2.2635,-3.5000,-0.0010,-2.2635,-3.5000,-0.0010,25.8113,-13.9597,0.0300,0.0000
-13.7018,26.1786,-2.7414,-0.0000,-0.0821,0.1200,0.0000,0.0000,0.0000,0.1795,-0.2258,-0.0036,996,1502,1500,1500,2008,1000,1505,1000,1000,1505,1005,1000,1014,-0.1897,-0.0510,0.0603,-0.0231,-0.0002,1.0070,0.4016,0.0499,-0.4089,-0.0427,0.8627,0.2400,0.1321,0.8627,0.2400,0.1321,0.3000,0.0600,0.0002,0,-2.2635,-3.5000,-0.0010,-2.2635,-3.5000,-0.0010,25.7733,-13.9350,0.0200,0.0000
-13.6796,26.1417,-2.7304,-0.0829,-0.0821,0.1200,0.0000,0.0000,0.0000,0.1793,-0.2256,-0.0037,996,1502,1500,1500,2008,1000,1505,1000,1000,1505,1005,1000,1014,-0.1556,0.0274,0.0699,-0.0209,-0.0010,1.0060,0.4011,0.0500,-0.4085,-0.0426,0.8627,0.2400,0.1321,0.8627,0.2400,0.1321,0.3000,0.0600,0.0002,0,-2.2635,-3.5000,-0.0010,-2.2635,-3.5000,-0.0010,25.7354,-13.9104,0.0200,0.0000
-13.6565,26.1050,-2.7186,-0.0000,0.0000,0.1200,0.0000,0.0000,0.0000,0.1789,-0.2252,-0.0039,996,1502,1500,1500,2008,1000,1505,1000,1000,1505,1005,1000,1014,-0.0698,-0.0086,0.1440,-0.0230,-0.0031,1.0057,0.4002,0.0502,-0.4081,-0.0423,0.8627,0.2400,0.1321,0.8627,0.2400,0.1321,0.3000,0.0600,0.0002,0,-2.2635,-3.5000,-0.0010,-2.2635,-3.5000,-0.0010,25.6974,-13.8863,0.0200,0.0000
-13.6322,26.0682,-2.7062,-0.0829,-0.0821,0.1200,0.0000,0.0000,0.0000,0.1787,-0.2249,-0.0040,996,1502,1500,1500,2008,1000,1505,1000,1000,1505,1005,1000,1014,-0.0176,-0.0180,0.1792,-0.0191,-0.0000,1.0063,0.3995,0.0502,-0.4075,-0.0422,0.8627,0.2400,0.1321,0.8627,0.2400,0.1321,0.3000,0.0600,0.0002,0,-2.2635,-3.5000,-0.0010,-2.2635,-3.5000,-0.0010,25.6594,-13.8627,0.0200,0.0000
-13.6073,26.0306,-2.6932,-0.0829,0.0000,0.1200,0.0000,0.0000,0.0000,0.1784,-0.2244,-0.0041,996,1502,1500,1500,2008,1000,1505,1000,1000,1505,1005,1000,1014,-0.0046,-0.1336,0.1935,-0.0202,0.0004,1.0033,0.3988,0.0500,-0.4069,-0.0419,0.8627,0.2400,0.1321,0.8627,0.2400,0.1321,0.3000,0.0600,0.0002,0,-2.2635,-3.5000,-0.0010,-2.2635,-3.5000,-0.0010,25.6211,-13.8391,0.0200,0.0000
-13.5824,25.9923,-2.6801,-0.2486,-0.1642,0.1800,0.0000,0.0000,0.0000,0.1787,-0.2240,-0.0049,996,1502,1500,1500,2008,1000,1505,1000,1000,1505,1005,1000,1014,0.0486,-0.1824,0.1541,-0.0220,-0.0020,1.0034,0.3978,0.0502,-0.4075,-0.0405,0.8627,0.2400,0.1321,0.8627,0.2400,0.1321,0.3000,0.0600,0.0002,0,-2.2635,-3.5000,-0.0010,-2.2635,-3.5000,-0.0010,25.5827,-13.8156,0.0300,0.0000
-13.5578,25.9542,-2.6676,-0.0829,0.0000,0.1200,0.0000,0.0000,0.0000,0.1780,-0.2237,-0.0039,996,1502,1500,1500,2008,1000,1505,1000,1000,1505,1005,1000,1014,-0.0091,-0.1468,0.1337,-0.0204,-0.0045,1.0045,0.3979,0.0496,-0.4056,-0.0419,0.8627,0.2400,0.1321,0.8627,0.2400,0.1321,0.3000,0.0600,0.0002,0,-2.2635,-3.5000,-0.0010,-2.2635,-3.5000,-0.0010,25.5441,-13.7920,0.0200,0.0000
-13.5337,25.9160,-2.6554,-0.1657,-0.0821,0.1200,0.0000,0.0000,0.0000,0.1778,-0.2235,-0.0040,996,1502,1500,1500,2008,1000,1505,1000,1000,1505,1005,1000,1014,-0.0377,-0.0401,0.1722,-0.0220,-0.0025,1.0047,0.3973,0.0497,-0.4054,-0.0417,0.8627,0.2400,0.1321,0.8627,0.2400,0.1321,0.3000,0.0600,0.0002,0,-2.2635,-3.5000,-0.0010,-2.2635,-3.5000,-0.0010,25.5059,-13.7692,0.0200,0.0000
-13.5097,25.8784,-2.6429,-0.0829,-0.1642,0.1200,0.0000,0.0000,0.0000,0.1777,-0.2232,-0.0039,996,1502,1500,1500,2008,1000,1505,1000,1000,1505,1005,1000,1014,-0.0763,-0.0664,0.1391,-0.0210,-0.0002,1.0039,0.3969,0.0494,-0.4048,-0.0416,0.8627,0.2400,0.1321,0.8627,0.2400,0.1321,0.3000,0.0600,0.0002,0,-2.2635,-3.5000,-0.0010,-2.2635,-3.5000,-0.0010,25.4679,-13.7458,0.0200,0.0000
-13.4865,25.8413,-2.6313,-0.0829,-0.0821,0.1200,0.0000,0.0000,0.0000,0.1776,-0.2229,-0.0037,996,1502,1500,1500,2008,1000,1505,1000,1000,1505,1005,1000,1014,-0.1685,-0.0107,0.0746,-0.0214,0.0018,1.0055,0.3969,0.0490,-0.4042,-0.0416,0.8627,0.2400,0.1321,0.8627,0.2400,0.1321,0.3000,0.0600,0.0002,0,-2.2635,-3.5000,-0.0010,-2.2635,-3.5000,-0.0010,25.4293,-13.7224,0.0200,0.0000
-13.4634,25.8043,-2.6194,-0.1657,-0.0821,0.1200,0.0000,0.0000,0.0000,0.1773,-0.2226,-0.0038,996,1502,1500,1500,2008,1000,1505,1000,1000,1505,1005,1000,1014,-0.1152,-0.0418,0.1295,-0.0199,0.0001,1.0054,0.3961,0.0491,-0.4037,-0.0414,0.8627,0.2400,0.1321,0.8627,0.2400,0.1321,0.3000,0.0600,0.0002,0,-2.2635,-3.5000,-0.0010,-2.2635,-3.5000,-0.0010,25.3911,-13.6991,0.0200,0.0000
-13.4397,25.7668,-2.6076,-0.0829,0.0000,0.1800,0.0000,0.0000,0.0000,0.1776,-0.2222,-0.0048,996,1502,1500,1500,2008,1000,1505,1000,1000,1505,1005,1000,1014,-0.0462,-0.0862,0.1118,-0.0180,-0.0004,1.0068,0.3949,0.0494,-0.4045,-0.0398,0.8627,0.2400,0.1321,0.8627,0.2400,0.1321,0.3000,0.0600,0.0002,0,-2.2635,-3.5000,-0.0010,-2.2635,-3.5000,-0.0010,25.3535,-13.6758,0.0300,0.0000
-13.4157,25.7292,-2.5963,-0.0000,-0.0821,0.1200,0.0000,0.0000,0.0000,0.1767,-0.2219,-0.0038,996,1502,1500,1500,2008,1000,1505,1000,1000,1505,1005,1000,1014,0.0566,-0.0496,0.0972,-0.0199,-0.0014,1.0041,0.3948,0.0490,-0.4024,-0.0414,0.8627,0.2400,0.1321,0.8627,0.2400,0.1321,0.3000,0.0600,0.0002,0,-2.2635,-3.5000,-0.0010,-2.2635,-3.5000,-0.0010,25.3154,-13.6516,0.0200,0.0000
-13.3913,25.6919,-2.5846,-0.0829,0.0000,0.1200,0.0000,0.0000,0.0000,0.1766,-0.2215,-0.0039,996,1502,1500,1500,2008,1000,1505,1000,1000,1505,1005,1000,1014,-0.0276,-0.0940,0.1240,-0.0207,-0.0001,1.0006,0.3942,0.0488,-0.4020,-0.0411,0.8627,0.2400,0.1321,0.8627,0.2400,0.1321,0.3000,0.0600,0.0002,0,-2.2635,-3.5000,-0.0010,-2.2635,-3.5000,-0.0010,25.2767,-13.6271,0.0200,0.0000
-13.3676,25.6540,-2.5734,-0.0829,0.0000,0.1200,0.0000,0.0000,0.0000,0.1764,-0.2212,-0.0037,996,1502,1500,1500,2008,1000,1505,1000,1000,1505,1005,1000,1014,-0.0470,-0.0830,0.0953,-0.0229,-0.0037,1.0022,0.3939,0.0485,-0.4014,-0.0410,0.8627,0.2400,0.1321,0.8627,0.2400,0.1321,0.3000,0.0600,0.0002,0,-2.2635,-3.5000,-0.0010,-2.2635,-3.5000,-0.0010,25.2381,-13.6027,0.0200,0.0000
-13.3438,25.6163,-2.5617,-0.0829,0.0000,0.1200,0.0000,0.0000,0.0000,0.1762,-0.2210,-0.0040,996,1502,1500,1500,2008,1000,1505,1000,1000,1505,1005,1000,1014,-0.0181,-0.0102,0.1644,-0.0242,-0.0063,1.0056,0.3932,0.0488,-0.4011,-0.0408,0.8627,0.2400,0.1321,0.8627,0.2400,0.1321,0.3000,0.0600,0.0002,0,-2.2635,-3.5000,-0.0010,-2.2635,-3.5000,-0.0010,25.1995,-13.5779,0.0200,0.0000
-13.3206,25.5791,-2.5510,-0.0000,-0.0821,0.1200,0.0000,0.0000,0.0000,0.1760,-0.2207,-0.0036,996,1502,1500,1500,2008,1000,1505,1000,1000,1505,1005,1000,1014,-0.0617,0.0326,0.0522,-0.0238,-0.0040,1.0028,0.3931,0.0483,-0.4004,-0.0410,0.8627,0.2400,0.1321,0.8627,0.2400,0.1321,0.3000,0.0600,0.0002,0,-2.2635,-3.5000,-0.0010,-2.2635,-3.5000,-0.0010,25.1608,-13.5531,0.0200,0.0000
-13.2980,25.5424,-2.5404,-0.0000,-0.0821,0.1800,0.0000,0.0000,0.0000,0.1764,-0.2203,-0.0044,996,1502,1500,1500,2008,1000,1505,1000,1000,1505,1005,1000,1014,-0.1231,-0.0103,-0.0040,-0.0244,-0.0012,1.0025,0.3924,0.0483,-0.4012,-0.0395,0.8627,0.2400,0.1321,0.8627,0.2400,0.1321,0.3000,0.0600,0.0002,0,-2.2635,-3.5000,-0.0010,-2.2635,-3.5000,-0.0010,25.1221,-13.5284,0.0300,0.0000
-13.2758,25.5050,-2.5302,-0.0000,0.0000,0.1200,0.0000,0.0000,0.0000,0.1758,-0.2200,-0.0036,996,1502,1500,1500,2008,1000,1505,1000,1000,1505,1005,1000,1014,-0.1469,-0.0063,0.0201,-0.0258,0.0010,1.0035,0.3922,0.0478,-0.3993,-0.0407,0.8627,0.2400,0.1321,0.8627,0.2400,0.1321,0.3000,0.0600,0.0002,0,-2.2635,-3.5000,-0.0010,-2.2635,-3.5000,-0.0010,25.0839,-13.5035,0.0200,0.0000
-13.2533,25.4678,-2.5199,-0.0000,0.0000,0.1200,0.0000,0.0000,0.0000,0.1755,-0.2197,-0.0035,996,1502,1500,1500,2008,1000,1505,1000,1000,1505,1005,1000,1014,-0.0882,-0.0161,0.0081,-0.0214,0.0030,1.0054,0.3917,0.0477,-0.3987,-0.0407,0.8627,0.2400,0.1321,0.8627,0.2400,0.1321,0.3000,0.0600,0.0002,0,-2.2635,-3.5000,-0.0010,-2.2635,-3.5000,-0.0010,25.0460,-13.4789,0.0200,0.0000
-13.2298,25.4301,-2.5097,-0.0829,0.0000,0.1200,0.0000,0.0000,0.0000,0.1751,-0.2194,-0.0035,996,1502,1500,1500,2008,1000,1505,1000,1000,1505,1005,1000,1014,0.0353,-0.0060,-0.0140,-0.0220,-0.0016,1.0107,0.3910,0.0477,-0.3980,-0.0408,0.8627,0.2400,0.1321,0.8627,0.2400,0.1321,0.3000,0.0600,0.0002,0,-2.2635,-3.5000,-0.0010,-2.2635,-3.5000,-0.0010,25.0079,-13.4550,0.0200,0.0000
-13.2055,25.3925,-2.4989,-0.0000,0.0000,0.1200,0.0000,0.0000,0.0000,0.1749,-0.2190,-0.0037,996,1502,1500,1500,2008,1000,1505,1000,1000,1505,1005,1000,1014,0.0588,-0.0406,0.0626,-0.0212,-0.0037,1.0024,0.3902,0.0478,-0.3975,-0.0405,0.8627,0.2400,0.1321,0.8627,0.2400,0.1321,0.3000,0.0600,0.0002,0,-2.2635,-3.5000,-0.0010,-2.2635,-3.5000,-0.0010,24.9698,-13.4307,0.0200,0.0000
-13.1810,25.3548,-2.4873,-0.0000,0.0000,0.1200,0.0000,0.0000,0.0000,0.1747,-0.2187,-0.0040,996,1502,1500,1500,2008,1000,1505,1000,1000,1505,1005,1000,1014,0.0343,-0.0630,0.1571,-0.0201,-0.0022,1.0061,0.3894,0.0479,-0.3973,-0.0400,0.8627,0.2400,0.1321,0.8627,0.2400,0.1321,0.3000,0.0600,0.0002,0,-2.2635,-3.5000,-0.0010,-2.2635,-3.5000,-0.0010,24.9310,-13.4071,0.0200,0.0000
-13.1569,25.3169,-2.4756,-0.0000,-0.0821,0.1800,0.0000,0.0000,0.0000,0.1751,-0.2182,-0.0048,996,1502,1500,1500,2008,1000,1505,1000,1000,1505,1005,1000,1014,-0.0542,-0.1251,0.1033,-0.0250,-0.0036,1.0057,0.3886,0.0479,-0.3982,-0.0383,0.8627,0.2400,0.1321,0.8627,0.2400,0.1321,0.3000,0.0600,0.0002,0,-2.2635,-3.5000,-0.0010,-2.2635,-3.5000,-0.0010,24.8925,-13.3834,0.0300,0.0000
-13.1338,25.2785,-2.4644,-0.1657,0.0000,0.1200,0.0000,0.0000,0.0000,0.1744,-0.2179,-0.0036,996,1502,1500,1500,2008,1000,1505,1000,1000,1505,1005,1000,1014,-0.0799,-0.1162,0.0444,-0.0187,-0.0052,1.0069,0.3887,0.0471,-0.3960,-0.0398,0.8627,0.2400,0.1321,0.8627,0.2400,0.1321,0.3000,0.0600,0.0002,0,-2.2635,-3.5000,-0.0010,-2.2635,-3.5000,-0.0010,24.8541,-13.3592,0.0200,0.0000
-13.1105,25.2406,-2.4527,-0.0829,-0.0821,0.1200,0.0000,0.0000,0.0000,0.1743,-0.2177,-0.0040,996,1502,1500,1500,2008,1000,1505,1000,1000,1505,1005,1000,1014,-0.0989,-0.0080,0.1682,-0.0226,-0.0020,1.0046,0.3880,0.0475,-0.3960,-0.0395,0.8627,0.2400,0.1321,0.8627,0.2400,0.1321,0.3000,0.0600,0.0002,0,-2.2635,-3.5000,-0.0010,-2.2635,-3.5000,-0.0010,24.8153,-13.3357,0.0200,0.0000
-13.0875,25.2033,-2.4409,-0.0829,-0.2462,0.1200,0.0000,0.0000,0.0000,0.1741,-0.2173,-0.0039,996,1502,1500,1500,2008,1000,1505,1000,1000,1505,1005,1000,1014,-0.0863,-0.0709,0.1438,-0.0215,-0.0002,1.0042,0.3875,0.0472,-0.3953,-0.0393,0.8627,0.2400,0.1321,0.8627,0.2400,0.1321,0.3000,0.0600,0.0002,0,-2.2635,-3.5000,-0.0010,-2.2635,-3.5000,-0.0010,24.7766,-13.3120,0.0200,0.0000
-13.0643,25.1655,-2.4291,-0.0000,0.0000,0.1200,0.0000,0.0000,0.0000,0.1738,-0.2170,-0.0040,996,1502,1500,1500,2008,1000,1505,1000,1000,1505,1005,1000,1014,-0.0643,-0.0602,0.1535,-0.0209,0.0004,1.0049,0.3868,0.0472,-0.3949,-0.0392,0.8627,0.2400,0.1321,0.8627,0.2400,0.1321,0.3000,0.0600,0.0002,0,-2.2635,-3.5000,-0.0010,-2.2635,-3.5000,-0.0010,24.7381,-13.2887,0.0200,0.0000
-13.0403,25.1285,-2.4175,-0.1657,-0.1642,0.1200,0.0000,0.0000,0.0000,0.1735,-0.2167,-0.0040,996,1502,1500,1500,2008,1000,1505,1000,1000,1505,1005,1000,1014,0.0003,-0.0356,0.1559,-0.0218,0.0034,1.0029,0.3863,0.0472,-0.3943,-0.0392,0.8627,0.2400,0.1321,0.8627,0.2400,0.1321,0.3000,0.0600,0.0002,0,-2.2635,-3.5000,-0.0010,-2.2635,-3.5000,-0.0010,24.6995,-13.2655,0.0200,0.0000
-13.0158,25.0911,-2.4054,-0.0000,-0.0821,0.1800,0.0000,0.0000,0.0000,0.1739,-0.2164,-0.0051,996,1502,1500,1500,2008,1000,1505,1000,1000,1505,1005,1000,1014,-0.0580,-0.0361,0.2096,-0.0207,-0.0005,1.0070,0.3853,0.0476,-0.3954,-0.0374,0.8627,0.2400,0.1321,0.8627,0.2400,0.1321,0.3000,0.0600,0.0002,0,-2.2635,-3.5000,-0.0010,-2.2635,-3.5000,-0.0010,24.6615,-13.2419,0.0300,0.0000
-12.9916,25.0537,-2.3930,-0.0000,-0.0821,0.1200,0.0000,0.0000,0.0000,0.1731,-0.2161,-0.0040,996,1502,1500,1500,2008,1000,1505,1000,1000,1505,1005,1000,1014,0.0264,-0.0262,0.1837,-0.0208,-0.0002,1.0089,0.3851,0.0471,-0.3932,-0.0390,0.8627,0.2400,0.1321,0.8627,0.2400,0.1321,0.3000,0.0600,0.0002,0,-2.2635,-3.5000,-0.0010,-2.2635,-3.5000,-0.0010,24.6228,-13.2183,0.0200,0.0000
-12.9671,25.0160,-2.3815,-0.0000,-0.0821,0.1200,0.0000,0.0000,0.0000,0.1729,-0.2157,-0.0039,996,1502,1500,1500,2008,1000,1505,1000,1000,1505,1005,1000,1014,-0.0261,-0.1057,0.1558,-0.0226,-0.0038,1.0043,0.3847,0.0467,-0.3925,-0.0388,0.8627,0.2400,0.1321,0.8627,0.2400,0.1321,0.3000,0.0600,0.0002,0,-2.2635,-3.5000,-0.0010,-2.2635,-3.5000,-0.0010,24.5844,-13.1947,0.0200,0.0000
-12.9430,24.9774,-2.3700,-0.0829,-0.0821,0.1200,0.0000,0.0000,0.0000,0.1727,-0.2153,-0.0040,996,1502,1500,1500,2008,1000,1505,1000,1000,1505,1005,1000,1014,-0.0091,-0.1721,0.1664,-0.0230,-0.0037,1.0053,0.3840,0.0465,-0.3920,-0.0385,0.8627,0.2400,0.1321,0.8627,0.2400,0.1321,0.3000,0.0600,0.0002,0,-2.2635,-3.5000,-0.0010,-2.2635,-3.5000,-0.0010,24.5459,-13.1702,0.0200,0.0000
-12.9196,24.9388,-2.3583,-0.0000,-0.0821,0.1200,0.0000,0.0000,0.0000,0.1726,-0.2150,-0.0039,996,1502,1500,1500,2008,1000,1505,1000,1000,1505,1005,1000,1014,-0.0885,-0.0881,0.1113,-0.0224,-0.0033,1.0037,0.3838,0.0463,-0.3915,-0.0386,0.8627,0.2400,0.1321,0.8627,0.2400,0.1321,0.3000,0.0600,0.0002,0,-2.2635,-3.5000,-0.0010,-2.2635,-3.5000,-0.0010,24.5074,-13.1451,0.0200,0.0000
-12.8968,24.9004,-2.3474,-0.0000,0.0000,0.1200,0.0000,0.0000,0.0000,0.1724,-0.2147,-0.0035,996,1502,1500,1500,2008,1000,1505,1000,1000,1505,1005,1000,1014,-0.0672,-0.0693,0.0044,-0.0225,-0.0017,1.0062,0.3836,0.0458,-0.3906,-0.0389,0.8627,0.2400,0.1321,0.8627,0.2400,0.1321,0.3000,0.0600,0.0002,0,-2.2635,-3.5000,-0.0010,-2.2635,-3.5000,-0.0010,24.4693,-13.1201,0.0200,0.0000
-12.8740,24.8622,-2.3367,-0.0000,0.0000,0.1800,0.0000,0.0000,0.0000,0.1728,-0.2145,-0.0047,996,1502,1500,1500,2008,1000,1505,1000,1000,1505,1005,1000,1014,-0.1182,-0.0045,0.0918,-0.0208,-0.0015,1.0073,0.3825,0.0464,-0.3920,-0.0370,0.8627,0.2400,0.1321,0.8627,0.2400,0.1321,0.3000,0.0600,0.0002,0,-2.2635,-3.5000,-0.0010,-2.2635,-3.5000,-0.0010,24.4309,-13.0957,0.0300,0.0000
-12.8511,24.8246,-2.3261,-0.0829,0.0000,0.1200,0.0000,0.0000,0.0000,0.1720,-0.2141,-0.0035,996,1502,1500,1500,2008,1000,1505,1000,1000,1505,1005,1000,1014,-0.0860,-0.0273,0.0163,-0.0213,0.0005,1.0067,0.3826,0.0456,-0.3897,-0.0386,0.8627,0.2400,0.1321,0.8627,0.2400,0.1321,0.3000,0.0600,0.0002,0,-2.2635,-3.5000,-0.0010,-2.2635,-3.5000,-0.0010,24.3924,-13.0708,0.0200,0.0000
-12.8275,24.7866,-2.3158,-0.0000,0.0000,0.1200,0.0000,0.0000,0.0000,0.1717,-0.2137,-0.0036,996,1502,1500,1500,2008,1000,1505,1000,1000,1505,1005,1000,1014,-0.0311,-0.0771,0.0504,-0.0240,0.0025,1.0033,0.3818,0.0456,-0.3891,-0.0384,0.8627,0.2400,0.1321,0.8627,0.2400,0.1321,0.3000,0.0600,0.0002,0,-2.2635,-3.5000,-0.0010,-2.2635,-3.5000,-0.0010,24.3542,-13.0459,0.0200,0.0000
-12.8033,24.7489,-2.3052,-0.0829,-0.0821,0.1200,0.0000,0.0000,0.0000,0.1714,-0.2134,-0.0036,996,1502,1500,1500,2008,1000,1505,1000,1000,1505,1005,1000,1014,0.0400,-0.0701,0.0275,-0.0190,0.0005,1.0054,0.3813,0.0455,-0.3884,-0.0384,0.8627,0.2400,0.1321,0.8627,0.2400,0.1321,0.3000,0.0600,0.0002,0,-2.2635,-3.5000,-0.0010,-2.2635,-3.5000,-0.0010,24.3157,-13.0213,0.0200,0.0000
-12.7795,24.7108,-2.2950,-0.0829,-0.0821,0.1200,0.0000,0.0000,0.0000,0.1713,-0.2132,-0.0036,996,1502,1500,1500,2008,1000,1505,1000,1000,1505,1005,1000,1014,0.0179,-0.0221,0.0144,-0.0194,-0.0025,1.0045,0.3808,0.0455,-0.3880,-0.0383,0.8627,0.2400,0.1321,0.8627,0.2400,0.1321,0.3000,0.0600,0.0002,0,-2.2635,-3.5000,-0.0010,-2.2635,-3.5000,-0.0010,24.2770,-12.9967,0.0200,0.0000
-12.7559,24.6728,-2.2847,-0.0000,-0.0821,0.1200,0.0000,0.0000,0.0000,0.1710,-0.2128,-0.0036,996,1502,1500,1500,2008,1000,1505,1000,1000,1505,1005,1000,1014,0.0431,-0.0092,0.0495,-0.0207,-0.0043,1.0026,0.3802,0.0454,-0.3875,-0.0382,0.8627,0.2400,0.1321,0.8627,0.2400,0.1321,0.3000,0.0600,0.0002,0,-2.2635,-3.5000,-0.0010,-2.2635,-3.5000,-0.0010,24.2383,-12.9728,0.0200,0.0000
-12.7327,24.6342,-2.2748,-0.0000,-0.0821,0.1800,0.0000,0.0000,0.0000,0.1715,-0.2124,-0.0044,996,1502,1500,1500,2008,1000,1505,1000,1000,1505,1005,1000,1014,-0.0833,-0.1096,-0.0067,-0.0232,-0.0028,0.9997,0.3794,0.0453,-0.3883,-0.0364,0.8627,0.2400,0.1321,0.8627,0.2400,0.1321,0.3000,0.0600,0.0002,0,-2.2635,-3.5000,-0.0010,-2.2635,-3.5000,-0.0010,24.1997,-12.9488,0.0300,0.0000
-12.7096,24.5956,-2.2643,-0.0000,-0.0821,0.1200,0.0000,0.0000,0.0000,0.1707,-0.2120,-0.0036,996,1502,1500,1500,2008,1000,1505,1000,1000,1505,1005,1000,1014,-0.0401,-0.1189,0.0191,-0.0224,-0.0041,1.0025,0.3792,0.0449,-0.3863,-0.0377,0.8627,0.2400,0.1321,0.8627,0.2400,0.1321,0.3000,0.0600,0.0002,0,-2.2635,-3.5000,-0.0010,-2.2635,-3.5000,-0.0010,24.1613,-12.9245,0.0200,0.0000
-12.6869,24.5566,-2.2535,-0.0829,-0.0821,0.1200,0.0000,0.0000,0.0000,0.1706,-0.2117,-0.0037,996,1502,1500,1500,2008,1000,1505,1000,1000,1505,1005,1000,1014,-0.1138,-0.0945,0.0709,-0.0240,-0.0028,1.0063,0.3787,0.0448,-0.3861,-0.0374,0.8627,0.2400,0.1321,0.8627,0.2400,0.1321,0.3000,0.0600,0.0002,0,-2.2635,-3.5000,-0.0010,-2.2635,-3.5000,-0.0010,24.1228,-12.8997,0.0200,0.0000
-12.6643,24.5183,-2.2430,-0.0829,0.0000,0.1200,0.0000,0.0000,0.0000,0.1704,-0.2114,-0.0036,996,1502,1500,1500,2008,1000,1505,1000,1000,1505,1005,1000,1014,-0.0855,-0.1142,0.0307,-0.0245,-0.0028,1.0063,0.3781,0.0446,-0.3854,-0.0373,0.8627,0.2400,0.1321,0.8627,0.2400,0.1321,0.3000,0.0600,0.0002,0,-2.2635,-3.5000,-0.0010,-2.2635,-3.5000,-0.0010,24.0847,-12.8751,0.0200,0.0000
-12.6413,24.4802,-2.2318,-0.1657,-0.1642,0.1200,0.0000,0.0000,0.0000,0.1702,-0.2112,-0.0037,996,1502,1500,1500,2008,1000,1505,1000,1000,1505,1005,1000,1014,-0.0499,-0.0031,0.0761,-0.0218,-0.0011,1.0035,0.3776,0.0447,-0.3851,-0.0373,0.8627,0.2400,0.1321,0.8627,0.2400,0.1321,0.3000,0.0600,0.0002,0,-2.2635,-3.5000,-0.0010,-2.2635,-3.5000,-0.0010,24.0464,-12.8511,0.0200,0.0000
-12.6177,24.4424,-2.2204,-0.0000,-0.0821,0.1200,0.0000,0.0000,0.0000,0.1700,-0.2109,-0.0039,996,1502,1500,1500,2008,1000,1505,1000,1000,1505,1005,1000,1014,-0.0733,0.0179,0.1362,-0.0255,-0.0006,1.0036,0.3770,0.0448,-0.3848,-0.0370,0.8627,0.2400,0.1321,0.8627,0.2400,0.1321,0.3000,0.0600,0.0002,0,-2.2635,-3.5000,-0.0010,-2.2635,-3.5000,-0.0010,24.0080,-12.8268,0.0200,0.0000
-12.5939,24.4050,-2.2087,-0.0829,-0.1642,0.1800,0.0000,0.0000,0.0000,0.1703,-0.2105,-0.0051,996,1502,1500,1500,2008,1000,1505,1000,1000,1505,1005,1000,1014,-0.0507,-0.0454,0.1972,-0.0233,0.0004,1.0076,0.3757,0.0453,-0.3858,-0.0352,0.8627,0.2400,0.1321,0.8627,0.2400,0.1321,0.3000,0.0600,0.0002,0,-2.2635,-3.5000,-0.0010,-2.2635,-3.5000,-0.0010,23.9689,-12.8031,0.0300,0.0000
-12.5697,24.3669,-2.1968,-0.0000,0.0000,0.1200,0.0000,0.0000,0.0000,0.1695,-0.2101,-0.0041,996,1502,1500,1500,2008,1000,1505,1000,1000,1505,1005,1000,1014,-0.0518,-0.0695,0.1773,-0.0192,-0.0017,1.0095,0.3756,0.0446,-0.3837,-0.0365,0.8627,0.2400,0.1321,0.8627,0.2400,0.1321,0.3000,0.0600,0.0002,0,-2.2635,-3.5000,-0.0010,-2.2635,-3.5000,-0.0010,23.9299,-12.7794,0.0200,0.0000
-12.5464,24.3285,-2.1850,0.0829,0.0000,0.1200,0.0000,0.0000,0.0000,0.1693,-0.2097,-0.0041,996,1502,1500,1500,2008,1000,1505,1000,1000,1505,1005,1000,1014,-0.0551,-0.1349,0.1996,-0.0197,-0.0035,1.0021,0.3749,0.0445,-0.3832,-0.0362,0.8627,0.2400,0.1321,0.8627,0.2400,0.1321,0.3000,0.0600,0.0002,0,-2.2635,-3.5000,-0.0010,-2.2635,-3.5000,-0.0010,23.8909,-12.7556,0.0200,0.0000
