roll_imu,pitch_imu,yaw_imu,alpha,beta,roll_des,pitch_des,yaw_des,throttle_des,roll_pid,pitch_pid,yaw_pid,radio_ch1,radio_ch2,radio_ch3,radio_ch4,radio_ch5,radio_ch6,radio_ch7,radio_ch8,radio_ch9,radio_ch10,radio_ch11,radio_ch12,radio_ch13,GyroX,GyroY,GyroZ,AccX,AccY,AccZ,s1_command,s2_command,s3_command,s4_command,kp_roll,ki_roll,kd_roll,kp_pitch,ki_pitch,kd_pitch,kp_yaw,ki_yaw,kd_yaw,failsafeTriggered,kp_alphaRoll,ki_alphaRoll,kd_alphaRoll,kp_betaPitch,ki_betaPitch,kd_betaPitch,ripIMU_roll,ripIMU_pitch,ripRoll_des,ripPitch_des
0.0000,0.0000,0.0000,-24.0331,18.5089,0.0000,0.0000,0.0000,0.0000,0.0000,0.0000,0.0000,1000,1500,1500,1500,2000,1000,1000,1000,1500,1500,1500,1500,1500,0.0000,0.0000,0.0000,0.0000,0.0000,0.0000,0.0000,0.0000,0.0000,0.0000,0.3000,0.0100,0.0700,0.3000,0.0100,0.0700,0.3000,0.0600,0.0002,0,-0.3000,-100.0000,-0.0010,-0.3000,-100.0000,-0.0010,0.0000,0.0000,0.0000,0.0000
-29.4725,24.0890,-6.3246,-0.1657,0.0000,0.0000,-8.0400,-42.8800,0.0000,0.2818,-0.1681,-0.1292,910,1369,1366,1366,2008,1000,1505,1505,1505,1372,2008,1112,1014,0.8088,-0.0245,0.1033,-0.0296,-0.0350,0.9332,0.3207,0.0155,-0.5791,0.2430,0.5232,0.5140,0.1092,0.5232,0.5140,0.1092,0.3000,0.0600,0.0002,0,-0.3000,-100.0000,-0.0010,-0.3000,-100.0000,-0.0010,8.3662,37.1086,-1.3100,-1.3400
-29.4259,24.0659,-6.3085,-0.1657,0.0821,0.0000,-2.3400,-12.4800,0.0000,0.2812,-0.1381,-0.0385,971,1461,1461,1461,2008,1000,1505,1505,1505,1372,2008,1112,1014,1.1107,-0.0404,0.1979,-0.0260,-0.0348,0.9974,0.3809,-0.1046,-0.4579,0.1816,0.5232,0.5140,0.1092,0.5232,0.5140,0.1092,0.3000,0.0600,0.0002,0,-0.3000,-100.0000,-0.0010,-0.3000,-100.0000,-0.0010,8.3965,37.1499,-0.3900,-0.3900
-29.3779,24.0434,-6.2919,-0.1657,0.0000,0.0000,-0.7800,-4.1600,0.0000,0.2810,-0.1299,-0.0136,991,1490,1487,1487,2008,1000,1505,1505,1505,1372,2008,1112,1014,1.1383,-0.0132,0.2009,-0.0280,-0.0339,1.0006,0.3972,-0.1375,-0.4244,0.1647,0.5232,0.5140,0.1092,0.5232,0.5140,0.1092,0.3000,0.0600,0.0002,0,-0.3000,-100.0000,-0.0010,-0.3000,-100.0000,-0.0010,8.4309,37.1911,-0.1000,-0.1300
-29.3303,24.0204,-6.2758,-0.1657,0.0000,0.0000,-0.1800,-0.9600,0.0000,0.2808,-0.1266,-0.0038,996,1500,1497,1497,2008,1000,1505,1505,1505,1372,2008,1112,1014,1.0890,-0.0585,0.1177,-0.0305,-0.0331,0.9948,0.4035,-0.1504,-0.4111,0.1580,0.5232,0.5140,0.1092,0.5232,0.5140,0.1092,0.3000,0.0600,0.0002,0,-0.3000,-100.0000,-0.0010,-0.3000,-100.0000,-0.0010,8.4666,37.2323,0.0000,-0.0300
-29.2836,23.9968,-6.2607,-0.1657,0.0000,0.0000,0.0000,0.0000,0.0000,0.2806,-0.1255,-0.0005,996,1502,1500,1500,2008,1000,1505,1505,1505,1372,2008,1112,1014,1.0256,-0.0336,-0.0242,-0.0318,-0.0365,0.9988,0.4056,-0.1546,-0.4066,0.1555,0.5232,0.5140,0.1092,0.5232,0.5140,0.1092,0.3000,0.0600,0.0002,0,-0.3000,-100.0000,-0.0010,-0.3000,-100.0000,-0.0010,8.5028,37.2734,0.0200,0.0000
-29.2379,23.9727,-6.2469,-0.0829,0.0000,0.0000,0.0000,0.0000,0.0000,0.2804,-0.1255,-0.0003,996,1502,1500,1500,2008,1000,1505,1505,1505,1372,2008,1112,1014,0.9700,0.0258,-0.0983,-0.0309,-0.0345,0.9990,0.4056,-0.1547,-0.4061,0.1552,0.5232,0.5140,0.1092,0.5232,0.5140,0.1092,0.3000,0.0600,0.0002,0,-0.3000,-100.0000,-0.0010,-0.3000,-100.0000,-0.0010,8.5392,37.3146,0.0200,0.0000
-29.1931,23.9483,-6.2336,-0.0829,0.0000,0.0000,0.0000,0.0000,0.0000,0.2802,-0.1253,-0.0011,996,1502,1500,1500,2008,1000,1505,1505,1505,1372,2008,1112,1014,0.9278,-0.0268,-0.1548,-0.0294,-0.0392,0.9922,0.4044,-0.1539,-0.4066,0.1560,0.5232,0.5140,0.1092,0.5232,0.5140,0.1092,0.3000,0.0600,0.0002,0,-0.3000,-100.0000,-0.0010,-0.3000,-100.0000,-0.0010,8.5756,37.3557,0.0300,0.0000
-29.1485,23.9234,-6.2206,-0.0829,0.0000,0.0000,0.0000,0.0000,0.0000,0.2800,-0.1251,-0.0001,996,1502,1500,1500,2008,1000,1505,1505,1505,1372,2008,1112,1014,0.9587,-0.0202,-0.1601,-0.0274,-0.0373,0.9970,0.4050,-0.1547,-0.4052,0.1549,0.5232,0.5140,0.1092,0.5232,0.5140,0.1092,0.3000,0.0600,0.0002,0,-0.3000,-100.0000,-0.0010,-0.3000,-100.0000,-0.0010,8.6121,37.3968,0.0200,0.0000
-29.1037,23.8988,-6.2068,-0.2486,0.0000,0.0000,0.0000,0.0000,0.0000,0.2798,-0.1250,-0.0004,996,1502,1500,1500,2008,1000,1505,1505,1505,1372,2008,1112,1014,0.9121,-0.0617,-0.0517,-0.0281,-0.0369,0.9955,0.4043,-0.1544,-0.4052,0.1552,0.5232,0.5140,0.1092,0.5232,0.5140,0.1092,0.3000,0.0600,0.0002,0,-0.3000,-100.0000,-0.0010,-0.3000,-100.0000,-0.0010,8.6486,37.4379,0.0200,0.0000
-29.0592,23.8745,-6.1927,-0.0829,-0.0821,0.0000,0.0000,0.0000,0.0000,0.2796,-0.1249,-0.0006,996,1502,1500,1500,2008,1000,1505,1505,1505,1372,2008,1112,1014,0.8737,-0.0359,-0.0153,-0.0239,-0.0332,0.9962,0.4039,-0.1542,-0.4050,0.1553,0.5232,0.5140,0.1092,0.5232,0.5140,0.1092,0.3000,0.0600,0.0002,0,-0.3000,-100.0000,-0.0010,-0.3000,-100.0000,-0.0010,8.6851,37.4790,0.0200,0.0000
-29.0145,23.8502,-6.1783,-0.1657,0.0000,0.0000,0.0000,0.0000,0.0000,0.2793,-0.1248,-0.0005,996,1502,1500,1500,2008,1000,1505,1505,1505,1372,2008,1112,1014,0.8962,-0.0243,-0.0091,-0.0274,-0.0367,0.9986,0.4035,-0.1540,-0.4046,0.1551,0.5232,0.5140,0.1092,0.5232,0.5140,0.1092,0.3000,0.0600,0.0002,0,-0.3000,-100.0000,-0.0010,-0.3000,-100.0000,-0.0010,8.7216,37.5201,0.0200,0.0000
-28.9702,23.8261,-6.1647,-0.0829,0.0000,0.0000,0.0000,0.0000,0.0000,0.2791,-0.1247,-0.0003,996,1502,1500,1500,2008,1000,1505,1505,1505,1372,2008,1112,1014,0.8570,0.0212,-0.0891,-0.0322,-0.0355,1.0012,0.4035,-0.1542,-0.4041,0.1547,0.5232,0.5140,0.1092,0.5232,0.5140,0.1092,0.3000,0.0600,0.0002,0,-0.3000,-100.0000,-0.0010,-0.3000,-100.0000,-0.0010,8.7581,37.5612,0.0200,0.0000
-28.9262,23.8024,-6.1512,-0.0829,0.0000,0.0000,0.0000,0.0000,0.0000,0.2790,-0.1246,-0.0013,996,1502,1500,1500,2008,1000,1505,1505,1505,1372,2008,1112,1014,0.8103,0.0761,-0.0633,-0.0286,-0.0332,0.9979,0.4023,-0.1530,-0.4049,0.1557,0.5232,0.5140,0.1092,0.5232,0.5140,0.1092,0.3000,0.0600,0.0002,0,-0.3000,-100.0000,-0.0010,-0.3000,-100.0000,-0.0010,8.7946,37.6023,0.0300,0.0000
-28.8829,23.7790,-6.1378,-0.1657,-0.0821,0.0000,0.0000,0.0000,0.0000,0.2788,-0.1245,-0.0004,996,1502,1500,1500,2008,1000,1505,1505,1505,1372,2008,1112,1014,0.7891,0.0879,-0.0607,-0.0310,-0.0338,0.9963,0.4029,-0.1539,-0.4036,0.1546,0.5232,0.5140,0.1092,0.5232,0.5140,0.1092,0.3000,0.0600,0.0002,0,-0.3000,-100.0000,-0.0010,-0.3000,-100.0000,-0.0010,8.8311,37.6434,0.0200,0.0000
-28.8400,23.7553,-6.1247,-0.0829,0.0000,0.0000,0.0000,0.0000,0.0000,0.2786,-0.1243,-0.0003,996,1502,1500,1500,2008,1000,1505,1505,1505,1372,2008,1112,1014,0.7289,0.0307,-0.0982,-0.0299,-0.0348,0.9964,0.4026,-0.1540,-0.4032,0.1546,0.5232,0.5140,0.1092,0.5232,0.5140,0.1092,0.3000,0.0600,0.0002,0,-0.3000,-100.0000,-0.0010,-0.3000,-100.0000,-0.0010,8.8676,37.6845,0.0200,0.0000
-28.7976,23.7312,-6.1112,-0.0829,0.0000,0.0000,0.0000,0.0000,0.0000,0.2785,-0.1242,-0.0005,996,1502,1500,1500,2008,1000,1505,1505,1505,1372,2008,1112,1014,0.6147,0.0217,-0.0303,-0.0279,-0.0339,0.9989,0.4022,-0.1538,-0.4032,0.1548,0.5232,0.5140,0.1092,0.5232,0.5140,0.1092,0.3000,0.0600,0.0002,0,-0.3000,-100.0000,-0.0010,-0.3000,-100.0000,-0.0010,8.9042,37.7256,0.0200,0.0000
-28.7563,23.7073,-6.0973,-0.1657,0.0000,0.0000,0.0000,0.0000,0.0000,0.2784,-0.1240,-0.0005,996,1502,1500,1500,2008,1000,1505,1505,1505,1372,2008,1112,1014,0.5195,-0.0000,-0.0261,-0.0294,-0.0316,0.9960,0.4020,-0.1539,-0.4029,0.1548,0.5232,0.5140,0.1092,0.5232,0.5140,0.1092,0.3000,0.0600,0.0002,0,-0.3000,-100.0000,-0.0010,-0.3000,-100.0000,-0.0010,8.9407,37.7666,0.0200,0.0000
-28.7166,23.6832,-6.0834,-0.0829,-0.0821,0.0000,0.0000,0.0000,0.0000,0.2784,-0.1239,-0.0005,996,1502,1500,1500,2008,1000,1505,1505,1505,1372,2008,1112,1014,0.3404,0.0225,-0.0306,-0.0245,-0.0316,0.9957,0.4018,-0.1540,-0.4028,0.1549,0.5232,0.5140,0.1092,0.5232,0.5140,0.1092,0.3000,0.0600,0.0002,0,-0.3000,-100.0000,-0.0010,-0.3000,-100.0000,-0.0010,8.9773,37.8076,0.0200,0.0000
-28.6780,23.6590,-6.0689,-0.1657,0.0000,0.0000,0.0000,0.0000,0.0000,0.2783,-0.1237,-0.0016,996,1502,1500,1500,2008,1000,1505,1505,1505,1372,2008,1112,1014,0.2310,-0.1199,0.0212,-0.0279,-0.0327,0.9960,0.4003,-0.1530,-0.4036,0.1562,0.5232,0.5140,0.1092,0.5232,0.5140,0.1092,0.3000,0.0600,0.0002,0,-0.3000,-100.0000,-0.0010,-0.3000,-100.0000,-0.0010,9.0138,37.8487,0.0300,0.0000
-28.6406,23.6346,-6.0539,-0.0829,0.0000,0.0000,0.0000,0.0000,0.0000,0.2782,-0.1236,-0.0007,996,1502,1500,1500,2008,1000,1505,1505,1505,1372,2008,1112,1014,0.1101,-0.0324,0.0472,-0.0285,-0.0337,0.9982,0.4011,-0.1539,-0.4026,0.1553,0.5232,0.5140,0.1092,0.5232,0.5140,0.1092,0.3000,0.0600,0.0002,0,-0.3000,-100.0000,-0.0010,-0.3000,-100.0000,-0.0010,9.0504,37.8897,0.0200,0.0000
-28.6040,23.6104,-6.0391,-0.1657,0.0000,0.0000,0.0000,0.0000,0.0000,0.2781,-0.1235,-0.0007,996,1502,1500,1500,2008,1000,1505,1505,1505,1372,2008,1112,1014,0.0556,-0.0232,0.0622,-0.0305,-0.0329,0.9998,0.4009,-0.1538,-0.4023,0.1553,0.5232,0.5140,0.1092,0.5232,0.5140,0.1092,0.3000,0.0600,0.0002,0,-0.3000,-100.0000,-0.0010,-0.3000,-100.0000,-0.0010,9.0869,37.9307,0.0200,0.0000
-28.5681,23.5863,-6.0239,-0.0829,-0.0821,0.0000,0.0000,0.0000,0.0000,0.2780,-0.1233,-0.0006,996,1502,1500,1500,2008,1000,1505,1505,1505,1372,2008,1112,1014,-0.0016,-0.0602,0.0370,-0.0280,-0.0376,1.0012,0.4007,-0.1540,-0.4019,0.1553,0.5232,0.5140,0.1092,0.5232,0.5140,0.1092,0.3000,0.0600,0.0002,0,-0.3000,-100.0000,-0.0010,-0.3000,-100.0000,-0.0010,9.1235,37.9717,0.0200,0.0000
-28.5335,23.5617,-6.0094,-0.0829,0.0000,0.0000,0.0000,0.0000,0.0000,0.2779,-0.1232,-0.0005,996,1502,1500,1500,2008,1000,1505,1505,1505,1372,2008,1112,1014,-0.1244,-0.0617,-0.0079,-0.0277,-0.0348,0.9999,0.4006,-0.1542,-0.4016,0.1552,0.5232,0.5140,0.1092,0.5232,0.5140,0.1092,0.3000,0.0600,0.0002,0,-0.3000,-100.0000,-0.0010,-0.3000,-100.0000,-0.0010,9.1601,38.0127,0.0200,0.0000
-28.4999,23.5371,-5.9947,-0.0829,0.0000,0.0000,0.0000,0.0000,0.0000,0.2779,-0.1231,-0.0007,996,1502,1500,1500,2008,1000,1505,1505,1505,1372,2008,1112,1014,-0.2845,-0.0475,0.0512,-0.0286,-0.0344,0.9932,0.4003,-0.1541,-0.4017,0.1556,0.5232,0.5140,0.1092,0.5232,0.5140,0.1092,0.3000,0.0600,0.0002,0,-0.3000,-100.0000,-0.0010,-0.3000,-100.0000,-0.0010,9.1967,38.0537,0.0200,0.0000
-28.4675,23.5131,-5.9798,-0.1657,0.0000,0.0000,0.0000,0.0000,0.0000,0.2778,-0.1230,-0.0017,996,1502,1500,1500,2008,1000,1505,1505,1505,1372,2008,1112,1014,-0.3518,-0.0110,0.0725,-0.0281,-0.0336,0.9972,0.3991,-0.1531,-0.4026,0.1566,0.5232,0.5140,0.1092,0.5232,0.5140,0.1092,0.3000,0.0600,0.0002,0,-0.3000,-100.0000,-0.0010,-0.3000,-100.0000,-0.0010,9.2333,38.0946,0.0300,0.0000
-28.4362,23.4895,-5.9648,-0.0829,-0.0821,0.0000,0.0000,0.0000,0.0000,0.2778,-0.1229,-0.0009,996,1502,1500,1500,2008,1000,1505,1505,1505,1372,2008,1112,1014,-0.4858,0.0175,0.0942,-0.0285,-0.0358,0.9957,0.3999,-0.1540,-0.4016,0.1557,0.5232,0.5140,0.1092,0.5232,0.5140,0.1092,0.3000,0.0600,0.0002,0,-0.3000,-100.0000,-0.0010,-0.3000,-100.0000,-0.0010,9.2699,38.1356,0.0200,0.0000
-28.4062,23.4657,-5.9499,-0.0829,0.0000,0.0000,0.0000,0.0000,0.0000,0.2778,-0.1227,-0.0008,996,1502,1500,1500,2008,1000,1505,1505,1505,1372,2008,1112,1014,-0.5890,-0.0440,0.0709,-0.0314,-0.0326,1.0004,0.3997,-0.1542,-0.4013,0.1558,0.5232,0.5140,0.1092,0.5232,0.5140,0.1092,0.3000,0.0600,0.0002,0,-0.3000,-100.0000,-0.0010,-0.3000,-100.0000,-0.0010,9.3065,38.1765,0.0200,0.0000
-28.3769,23.4413,-5.9344,-0.1657,0.0821,0.0000,0.0000,0.0000,0.0000,0.2777,-0.1225,-0.0010,996,1502,1500,1500,2008,1000,1505,1505,1505,1372,2008,1112,1014,-0.6431,-0.1228,0.1332,-0.0297,-0.0311,1.0020,0.3992,-0.1542,-0.4011,0.1561,0.5232,0.5140,0.1092,0.5232,0.5140,0.1092,0.3000,0.0600,0.0002,0,-0.3000,-100.0000,-0.0010,-0.3000,-100.0000,-0.0010,9.3432,38.2174,0.0200,0.0000
-28.3476,23.4167,-5.9182,-0.1657,0.0000,0.0000,0.0000,0.0000,0.0000,0.2775,-0.1223,-0.0011,996,1502,1500,1500,2008,1000,1505,1505,1505,1372,2008,1112,1014,-0.6645,-0.1652,0.1662,-0.0313,-0.0351,0.9970,0.3988,-0.1541,-0.4010,0.1563,0.5232,0.5140,0.1092,0.5232,0.5140,0.1092,0.3000,0.0600,0.0002,0,-0.3000,-100.0000,-0.0010,-0.3000,-100.0000,-0.0010,9.3798,38.2584,0.0200,0.0000
-28.3179,23.3915,-5.9006,-0.0829,0.0000,0.0000,0.0000,0.0000,0.0000,0.2774,-0.1221,-0.0013,996,1502,1500,1500,2008,1000,1505,1505,1505,1372,2008,1112,1014,-0.6772,-0.2748,0.2556,-0.0299,-0.0326,0.9953,0.3981,-0.1540,-0.4008,0.1566,0.5232,0.5140,0.1092,0.5232,0.5140,0.1092,0.3000,0.0600,0.0002,0,-0.3000,-100.0000,-0.0010,-0.3000,-100.0000,-0.0010,9.4165,38.2993,0.0200,0.0000
-28.2880,23.3657,-5.8827,-0.0829,-0.0821,0.0000,0.0000,0.0000,0.0000,0.2772,-0.1220,-0.0022,996,1502,1500,1500,2008,1000,1505,1505,1505,1372,2008,1112,1014,-0.6224,-0.2738,0.2106,-0.0257,-0.0374,1.0003,0.3970,-0.1531,-0.4013,0.1574,0.5232,0.5140,0.1092,0.5232,0.5140,0.1092,0.3000,0.0600,0.0002,0,-0.3000,-100.0000,-0.0010,-0.3000,-100.0000,-0.0010,9.4531,38.3402,0.0300,0.0000
-28.2573,23.3399,-5.8648,-0.0829,0.0000,0.0000,0.0000,0.0000,0.0000,0.2769,-0.1218,-0.0014,996,1502,1500,1500,2008,1000,1505,1505,1505,1372,2008,1112,1014,-0.5106,-0.3079,0.2668,-0.0298,-0.0394,0.9991,0.3973,-0.1537,-0.4001,0.1565,0.5232,0.5140,0.1092,0.5232,0.5140,0.1092,0.3000,0.0600,0.0002,0,-0.3000,-100.0000,-0.0010,-0.3000,-100.0000,-0.0010,9.4898,38.3811,0.0200,0.0000
-28.2246,23.3142,-5.8460,-0.0829,0.0000,0.0000,0.0000,0.0000,0.0000,0.2766,-0.1216,-0.0015,996,1502,1500,1500,2008,1000,1505,1505,1505,1372,2008,1112,1014,-0.3533,-0.3160,0.3039,-0.0259,-0.0408,0.9971,0.3967,-0.1535,-0.3997,0.1564,0.5232,0.5140,0.1092,0.5232,0.5140,0.1092,0.3000,0.0600,0.0002,0,-0.3000,-100.0000,-0.0010,-0.3000,-100.0000,-0.0010,9.5264,38.4220,0.0200,0.0000
-28.1906,23.2889,-5.8277,-0.0829,0.0821,0.0000,0.0000,0.0000,0.0000,0.2762,-0.1217,-0.0014,996,1502,1500,1500,2008,1000,1505,1505,1505,1372,2008,1112,1014,-0.1982,-0.1566,0.2815,-0.0245,-0.0381,0.9991,0.3965,-0.1531,-0.3993,0.1559,0.5232,0.5140,0.1092,0.5232,0.5140,0.1092,0.3000,0.0600,0.0002,0,-0.3000,-100.0000,-0.0010,-0.3000,-100.0000,-0.0010,9.5631,38.4629,0.0200,0.0000
-28.1555,23.2645,-5.8109,-0.1657,-0.0821,0.0000,0.0000,0.0000,0.0000,0.2759,-0.1216,-0.0011,996,1502,1500,1500,2008,1000,1505,1505,1505,1372,2008,1112,1014,-0.0377,-0.0714,0.1797,-0.0255,-0.0406,0.9967,0.3964,-0.1531,-0.3986,0.1553,0.5232,0.5140,0.1092,0.5232,0.5140,0.1092,0.3000,0.0600,0.0002,0,-0.3000,-100.0000,-0.0010,-0.3000,-100.0000,-0.0010,9.5998,38.5037,0.0200,0.0000
-28.1193,23.2402,-5.7956,-0.0829,0.0000,0.0000,0.0000,0.0000,0.0000,0.2755,-0.1216,-0.0006,996,1502,1500,1500,2008,1000,1505,1505,1505,1372,2008,1112,1014,0.1366,-0.0130,0.0270,-0.0279,-0.0366,0.9983,0.3964,-0.1532,-0.3977,0.1545,0.5232,0.5140,0.1092,0.5232,0.5140,0.1092,0.3000,0.0600,0.0002,0,-0.3000,-100.0000,-0.0010,-0.3000,-100.0000,-0.0010,9.6365,38.5446,0.0200,0.0000
-28.0821,23.2165,-5.7823,-0.1657,0.0000,0.0000,0.0000,0.0000,0.0000,0.2751,-0.1216,-0.0014,996,1502,1500,1500,2008,1000,1505,1505,1505,1372,2008,1112,1014,0.3130,0.1149,-0.0462,-0.0257,-0.0383,0.9998,0.3953,-0.1521,-0.3980,0.1549,0.5232,0.5140,0.1092,0.5232,0.5140,0.1092,0.3000,0.0600,0.0002,0,-0.3000,-100.0000,-0.0010,-0.3000,-100.0000,-0.0010,9.6732,38.5855,0.0300,0.0000
-28.0438,23.1928,-5.7706,-0.1657,0.0000,0.0000,0.0000,0.0000,0.0000,0.2748,-0.1215,-0.0001,996,1502,1500,1500,2008,1000,1505,1505,1505,1372,2008,1112,1014,0.4056,0.1138,-0.1668,-0.0316,-0.0376,0.9973,0.3962,-0.1532,-0.3963,0.1534,0.5232,0.5140,0.1092,0.5232,0.5140,0.1092,0.3000,0.0600,0.0002,0,-0.3000,-100.0000,-0.0010,-0.3000,-100.0000,-0.0010,9.7099,38.6263,0.0200,0.0000
-28.0044,23.1686,-5.7592,-0.0829,0.0000,0.0000,0.0000,0.0000,0.0000,0.2744,-0.1213,-0.0000,996,1502,1500,1500,2008,1000,1505,1505,1505,1372,2008,1112,1014,0.5233,0.1112,-0.1927,-0.0291,-0.0381,1.0003,0.3958,-0.1531,-0.3958,0.1531,0.5232,0.5140,0.1092,0.5232,0.5140,0.1092,0.3000,0.0600,0.0002,0,-0.3000,-100.0000,-0.0010,-0.3000,-100.0000,-0.0010,9.7466,38.6670,0.0200,0.0000
-27.9635,23.1439,-5.7469,-0.1657,-0.0821,0.0000,0.0000,0.0000,0.0000,0.2741,-0.1210,-0.0004,996,1502,1500,1500,2008,1000,1505,1505,1505,1372,2008,1112,1014,0.6528,-0.0449,-0.0719,-0.0275,-0.0355,0.9998,0.3947,-0.1527,-0.3955,0.1535,0.5232,0.5140,0.1092,0.5232,0.5140,0.1092,0.3000,0.0600,0.0002,0,-0.3000,-100.0000,-0.0010,-0.3000,-100.0000,-0.0010,9.7833,38.7077,0.0200,0.0000
-27.9206,23.1190,-5.7329,-0.1657,0.0000,0.0000,0.0000,0.0000,0.0000,0.2737,-0.1208,-0.0006,996,1502,1500,1500,2008,1000,1505,1505,1505,1372,2008,1112,1014,0.8190,-0.1301,0.0192,-0.0284,-0.0359,0.9996,0.3939,-0.1522,-0.3951,0.1535,0.5232,0.5140,0.1092,0.5232,0.5140,0.1092,0.3000,0.0600,0.0002,0,-0.3000,-100.0000,-0.0010,-0.3000,-100.0000,-0.0010,9.8200,38.7484,0.0200,0.0000
-27.8753,23.0939,-5.7173,-0.1657,0.0000,0.0000,0.0000,0.0000,0.0000,0.2733,-0.1207,-0.0011,996,1502,1500,1500,2008,1000,1505,1505,1505,1372,2008,1112,1014,0.9586,-0.1430,0.1645,-0.0275,-0.0364,0.9972,0.3929,-0.1515,-0.3950,0.1537,0.5232,0.5140,0.1092,0.5232,0.5140,0.1092,0.3000,0.0600,0.0002,0,-0.3000,-100.0000,-0.0010,-0.3000,-100.0000,-0.0010,9.8568,38.7892,0.0200,0.0000
-27.8283,23.0694,-5.7006,-0.1657,-0.0821,0.0000,0.0000,0.0000,0.0000,0.2730,-0.1206,-0.0024,996,1502,1500,1500,2008,1000,1505,1505,1505,1372,2008,1112,1014,1.0264,-0.0889,0.2724,-0.0286,-0.0386,0.9990,0.3912,-0.1500,-0.3959,0.1547,0.5232,0.5140,0.1092,0.5232,0.5140,0.1092,0.3000,0.0600,0.0002,0,-0.3000,-100.0000,-0.0010,-0.3000,-100.0000,-0.0010,9.8935,38.8299,0.0300,0.0000
-27.7802,23.0454,-5.6834,-0.1657,0.0000,0.0000,0.0000,0.0000,0.0000,0.2726,-0.1205,-0.0015,996,1502,1500,1500,2008,1000,1505,1505,1505,1372,2008,1112,1014,1.1352,-0.0579,0.2983,-0.0253,-0.0396,0.9979,0.3916,-0.1506,-0.3946,0.1536,0.5232,0.5140,0.1092,0.5232,0.5140,0.1092,0.3000,0.0600,0.0002,0,-0.3000,-100.0000,-0.0010,-0.3000,-100.0000,-0.0010,9.9303,38.8706,0.0200,0.0000
-27.7322,23.0225,-5.6670,-0.1657,0.0821,0.0000,0.0000,0.0000,0.0000,0.2724,-0.1206,-0.0014,996,1502,1500,1500,2008,1000,1505,1505,1505,1372,2008,1112,1014,1.1120,0.0938,0.2749,-0.0280,-0.0371,1.0009,0.3915,-0.1504,-0.3944,0.1532,0.5232,0.5140,0.1092,0.5232,0.5140,0.1092,0.3000,0.0600,0.0002,0,-0.3000,-100.0000,-0.0010,-0.3000,-100.0000,-0.0010,9.9670,38.9113,0.0200,0.0000
-27.6847,23.0009,-5.6509,-0.1657,0.0000,0.0000,0.0000,0.0000,0.0000,0.2721,-0.1205,-0.0015,996,1502,1500,1500,2008,1000,1505,1505,1505,1372,2008,1112,1014,1.1116,0.1866,0.3213,-0.0301,-0.0355,0.9999,0.3912,-0.1501,-0.3942,0.1531,0.5232,0.5140,0.1092,0.5232,0.5140,0.1092,0.3000,0.0600,0.0002,0,-0.3000,-100.0000,-0.0010,-0.3000,-100.0000,-0.0010,10.0038,38.9520,0.0200,0.0000
-27.6371,22.9801,-5.6352,-0.1657,0.0000,0.0000,0.0000,0.0000,0.0000,0.2720,-0.1205,-0.0014,996,1502,1500,1500,2008,1000,1505,1505,1505,1372,2008,1112,1014,1.0501,0.2702,0.2848,-0.0294,-0.0334,0.9976,0.3911,-0.1500,-0.3939,0.1529,0.5232,0.5140,0.1092,0.5232,0.5140,0.1092,0.3000,0.0600,0.0002,0,-0.3000,-100.0000,-0.0010,-0.3000,-100.0000,-0.0010,10.0406,38.9926,0.0200,0.0000
-27.5907,22.9596,-5.6206,-0.1657,0.0000,0.0000,0.0000,0.0000,0.0000,0.2718,-0.1205,-0.0011,996,1502,1500,1500,2008,1000,1505,1505,1505,1372,2008,1112,1014,0.9784,0.3126,0.1926,-0.0297,-0.0316,0.9975,0.3911,-0.1502,-0.3934,0.1525,0.5232,0.5140,0.1092,0.5232,0.5140,0.1092,0.3000,0.0600,0.0002,0,-0.3000,-100.0000,-0.0010,-0.3000,-100.0000,-0.0010,10.0773,39.0333,0.0200,0.0000
-27.5455,22.9393,-5.6066,-0.1657,-0.0821,0.0000,0.0000,0.0000,0.0000,0.2717,-0.1204,-0.0021,996,1502,1500,1500,2008,1000,1505,1505,1505,1372,2008,1112,1014,0.8628,0.3267,0.1845,-0.0312,-0.0300,0.9961,0.3900,-0.1492,-0.3941,0.1534,0.5232,0.5140,0.1092,0.5232,0.5140,0.1092,0.3000,0.0600,0.0002,0,-0.3000,-100.0000,-0.0010,-0.3000,-100.0000,-0.0010,10.1141,39.0739,0.0300,0.0000
-27.5025,22.9182,-5.5935,-0.0829,0.0000,0.0000,0.0000,0.0000,0.0000,0.2717,-0.1202,-0.0007,996,1502,1500,1500,2008,1000,1505,1505,1505,1372,2008,1112,1014,0.6510,0.2648,0.0374,-0.0301,-0.0308,0.9953,0.3912,-0.1508,-0.3926,0.1522,0.5232,0.5140,0.1092,0.5232,0.5140,0.1092,0.3000,0.0600,0.0002,0,-0.3000,-100.0000,-0.0010,-0.3000,-100.0000,-0.0010,10.1509,39.1146,0.0200,0.0000
-27.4616,22.8956,-5.5807,-0.0829,0.0000,0.0000,0.0000,0.0000,0.0000,0.2717,-0.1199,-0.0004,996,1502,1500,1500,2008,1000,1505,1505,1505,1372,2008,1112,1014,0.4391,0.1414,-0.0715,-0.0307,-0.0297,1.0004,0.3913,-0.1514,-0.3920,0.1521,0.5232,0.5140,0.1092,0.5232,0.5140,0.1092,0.3000,0.0600,0.0002,0,-0.3000,-100.0000,-0.0010,-0.3000,-100.0000,-0.0010,10.1877,39.1552,0.0200,0.0000
-27.4233,22.8713,-5.5683,-0.1657,0.0000,0.0000,0.0000,0.0000,0.0000,0.2717,-0.1196,-0.0001,996,1502,1500,1500,2008,1000,1505,1505,1505,1372,2008,1112,1014,0.2221,-0.0205,-0.1576,-0.0313,-0.0308,0.9986,0.3913,-0.1520,-0.3915,0.1522,0.5232,0.5140,0.1092,0.5232,0.5140,0.1092,0.3000,0.0600,0.0002,0,-0.3000,-100.0000,-0.0010,-0.3000,-100.0000,-0.0010,10.2245,39.1958,0.0200,0.0000
-27.3867,22.8454,-5.5553,0.0000,0.0000,0.0000,0.0000,0.0000,0.0000,0.2717,-0.1193,-0.0002,996,1502,1500,1500,2008,1000,1505,1505,1505,1372,2008,1112,1014,0.0467,-0.1658,-0.1247,-0.0340,-0.0308,0.9971,0.3909,-0.1522,-0.3913,0.1526,0.5232,0.5140,0.1092,0.5232,0.5140,0.1092,0.3000,0.0600,0.0002,0,-0.3000,-100.0000,-0.0010,-0.3000,-100.0000,-0.0010,10.2613,39.2365,0.0200,0.0000
-27.3513,22.8181,-5.5413,-0.1657,0.0000,0.0000,0.0000,0.0000,0.0000,0.2717,-0.1191,-0.0003,996,1502,1500,1500,2008,1000,1505,1505,1505,1372,2008,1112,1014,-0.1001,-0.2989,-0.0909,-0.0308,-0.0345,0.9963,0.3905,-0.1524,-0.3911,0.1529,0.5232,0.5140,0.1092,0.5232,0.5140,0.1092,0.3000,0.0600,0.0002,0,-0.3000,-100.0000,-0.0010,-0.3000,-100.0000,-0.0010,10.2982,39.2771,0.0200,0.0000
-27.3170,22.7900,-5.5264,-0.1657,0.0821,0.0000,0.0000,0.0000,0.0000,0.2716,-0.1189,-0.0014,996,1502,1500,1500,2008,1000,1505,1505,1505,1372,2008,1112,1014,-0.1589,-0.3454,-0.0387,-0.0280,-0.0355,0.9983,0.3890,-0.1513,-0.3919,0.1541,0.5232,0.5140,0.1092,0.5232,0.5140,0.1092,0.3000,0.0600,0.0002,0,-0.3000,-100.0000,-0.0010,-0.3000,-100.0000,-0.0010,10.3350,39.3176,0.0300,0.0000
-27.2828,22.7624,-5.5107,-0.1657,-0.0821,0.0000,0.0000,0.0000,0.0000,0.2714,-0.1188,-0.0009,996,1502,1500,1500,2008,1000,1505,1505,1505,1372,2008,1112,1014,-0.1660,-0.2842,0.1068,-0.0279,-0.0327,0.9984,0.3893,-0.1517,-0.3911,0.1536,0.5232,0.5140,0.1092,0.5232,0.5140,0.1092,0.3000,0.0600,0.0002,0,-0.3000,-100.0000,-0.0010,-0.3000,-100.0000,-0.0010,10.3718,39.3582,0.0200,0.0000
-27.2484,22.7362,-5.4946,-0.1657,0.0000,0.0000,0.0000,0.0000,0.0000,0.2712,-0.1188,-0.0010,996,1502,1500,1500,2008,1000,1505,1505,1505,1372,2008,1112,1014,-0.1415,-0.1553,0.1386,-0.0292,-0.0333,0.9964,0.3890,-0.1514,-0.3910,0.1534,0.5232,0.5140,0.1092,0.5232,0.5140,0.1092,0.3000,0.0600,0.0002,0,-0.3000,-100.0000,-0.0010,-0.3000,-100.0000,-0.0010,10.4087,39.3988,0.0200,0.0000
-27.2141,22.7112,-5.4790,-0.0829,-0.0821,0.0000,0.0000,0.0000,0.0000,0.2711,-0.1187,-0.0011,996,1502,1500,1500,2008,1000,1505,1505,1505,1372,2008,1112,1014,-0.1538,-0.0695,0.1693,-0.0304,-0.0344,0.9964,0.3887,-0.1512,-0.3909,0.1534,0.5232,0.5140,0.1092,0.5232,0.5140,0.1092,0.3000,0.0600,0.0002,0,-0.3000,-100.0000,-0.0010,-0.3000,-100.0000,-0.0010,10.4456,39.4394,0.0200,0.0000
-27.1795,22.6871,-5.4637,-0.1657,0.0000,0.0000,0.0000,0.0000,0.0000,0.2709,-0.1187,-0.0010,996,1502,1500,1500,2008,1000,1505,1505,1505,1372,2008,1112,1014,-0.1386,0.0385,0.1242,-0.0288,-0.0319,0.9981,0.3886,-0.1512,-0.3905,0.1531,0.5232,0.5140,0.1092,0.5232,0.5140,0.1092,0.3000,0.0600,0.0002,0,-0.3000,-100.0000,-0.0010,-0.3000,-100.0000,-0.0010,10.4824,39.4800,0.0200,0.0000
-27.1453,22.6638,-5.4493,-0.1657,0.0000,0.0000,0.0000,0.0000,0.0000,0.2707,-0.1187,-0.0010,996,1502,1500,1500,2008,1000,1505,1505,1505,1372,2008,1112,1014,-0.1384,0.0950,0.1447,-0.0291,-0.0334,0.9993,0.3883,-0.1510,-0.3904,0.1530,0.5232,0.5140,0.1092,0.5232,0.5140,0.1092,0.3000,0.0600,0.0002,0,-0.3000,-100.0000,-0.0010,-0.3000,-100.0000,-0.0010,10.5193,39.5205,0.0200,0.0000
-27.1112,22.6412,-5.4349,-0.0829,0.0000,0.0000,0.0000,0.0000,0.0000,0.2705,-0.1186,-0.0020,996,1502,1500,1500,2008,1000,1505,1505,1505,1372,2008,1112,1014,-0.1633,0.1230,0.1553,-0.0293,-0.0328,0.9963,0.3871,-0.1499,-0.3911,0.1540,0.5232,0.5140,0.1092,0.5232,0.5140,0.1092,0.3000,0.0600,0.0002,0,-0.3000,-100.0000,-0.0010,-0.3000,-100.0000,-0.0010,10.5562,39.5611,0.0300,0.0000
-27.0774,22.6184,-5.4207,-0.0829,0.0000,0.0000,0.0000,0.0000,0.0000,0.2704,-0.1185,-0.0010,996,1502,1500,1500,2008,1000,1505,1505,1505,1372,2008,1112,1014,-0.1958,0.1118,0.1415,-0.0288,-0.0311,1.0005,0.3878,-0.1509,-0.3899,0.1530,0.5232,0.5140,0.1092,0.5232,0.5140,0.1092,0.3000,0.0600,0.0002,0,-0.3000,-100.0000,-0.0010,-0.3000,-100.0000,-0.0010,10.5931,39.6017,0.0200,0.0000
-27.0435,22.5950,-5.4057,-0.1657,0.0000,0.0000,0.0000,0.0000,0.0000,0.2702,-0.1182,-0.0010,996,1502,1500,1500,2008,1000,1505,1505,1505,1372,2008,1112,1014,-0.2025,-0.0060,0.1370,-0.0299,-0.0312,0.9991,0.3874,-0.1510,-0.3894,0.1530,0.5232,0.5140,0.1092,0.5232,0.5140,0.1092,0.3000,0.0600,0.0002,0,-0.3000,-100.0000,-0.0010,-0.3000,-100.0000,-0.0010,10.6300,39.6423,0.0200,0.0000
-27.0103,22.5707,-5.3906,-0.1657,0.0000,0.0000,0.0000,0.0000,0.0000,0.2701,-0.1180,-0.0009,996,1502,1500,1500,2008,1000,1505,1505,1505,1372,2008,1112,1014,-0.3025,-0.0793,0.0969,-0.0295,-0.0313,0.9972,0.3873,-0.1513,-0.3890,0.1530,0.5232,0.5140,0.1092,0.5232,0.5140,0.1092,0.3000,0.0600,0.0002,0,-0.3000,-100.0000,-0.0010,-0.3000,-100.0000,-0.0010,10.6670,39.6828,0.0200,0.0000
-26.9782,22.5453,-5.3758,-0.1657,0.0000,0.0000,0.0000,0.0000,0.0000,0.2701,-0.1179,-0.0007,996,1502,1500,1500,2008,1000,1505,1505,1505,1372,2008,1112,1014,-0.3732,-0.0912,0.0507,-0.0307,-0.0303,0.9964,0.3872,-0.1515,-0.3887,0.1529,0.5232,0.5140,0.1092,0.5232,0.5140,0.1092,0.3000,0.0600,0.0002,0,-0.3000,-100.0000,-0.0010,-0.3000,-100.0000,-0.0010,10.7039,39.7233,0.0200,0.0000
-26.9475,22.5200,-5.3619,-0.1657,0.0000,0.0000,0.0000,0.0000,0.0000,0.2701,-0.1177,-0.0004,996,1502,1500,1500,2008,1000,1505,1505,1505,1372,2008,1112,1014,-0.5390,-0.0788,-0.0665,-0.0300,-0.0313,0.9998,0.3874,-0.1520,-0.3882,0.1527,0.5232,0.5140,0.1092,0.5232,0.5140,0.1092,0.3000,0.0600,0.0002,0,-0.3000,-100.0000,-0.0010,-0.3000,-100.0000,-0.0010,10.7408,39.7638,0.0200,0.0000
-26.9181,22.4943,-5.3485,-0.2486,0.0000,0.0000,0.0000,0.0000,0.0000,0.2700,-0.1175,-0.0015,996,1502,1500,1500,1000,1000,1505,1505,1505,1372,2008,1112,1014,-0.5815,-0.1378,-0.0177,-0.0277,-0.0329,0.9959,0.3860,-0.1509,-0.3890,0.1539,0.5232,0.5140,0.1092,0.5232,0.5140,0.1092,0.3000,0.0600,0.0002,0,-0.3000,-100.0000,-0.0010,-0.3000,-100.0000,-0.0010,10.7778,39.8043,0.0300,0.0000
-26.8883,22.4685,-5.3339,-0.1657,0.0000,0.0000,0.0000,0.0000,0.0000,0.2698,-0.1174,-0.0008,996,1502,1500,1500,1000,1000,1505,1505,1505,1372,2008,1112,1014,-0.5713,-0.1052,0.0739,-0.0286,-0.0327,1.0009,0.3864,-0.1515,-0.3881,0.1532,0.5232,0.5140,0.1092,0.5232,0.5140,0.1092,0.3000,0.0600,0.0002,0,-0.3000,-100.0000,-0.0010,-0.3000,-100.0000,-0.0010,10.8147,39.8448,0.0200,0.0000
-26.8577,22.4425,-5.3184,-0.0829,0.0000,0.0000,0.0000,0.0000,0.0000,0.2695,-0.1172,-0.0008,996,1502,1500,1500,1000,1000,1505,1505,1505,1372,2008,1112,1014,-0.4581,-0.2267,0.0813,-0.0312,-0.0383,0.9993,0.3859,-0.1515,-0.3875,0.1531,0.5232,0.5140,0.1092,0.5232,0.5140,0.1092,0.3000,0.0600,0.0002,0,-0.3000,-100.0000,-0.0010,-0.3000,-100.0000,-0.0010,10.8517,39.8853,0.0200,0.0000
-26.8264,22.4156,-5.3036,-0.0829,-0.0821,0.0000,0.0000,0.0000,0.0000,0.2692,-0.1170,-0.0005,996,1502,1500,1500,1000,1000,1505,1505,1505,1372,2008,1112,1014,-0.3508,-0.2305,-0.0168,-0.0284,-0.0404,0.9970,0.3858,-0.1517,-0.3868,0.1527,0.5232,0.5140,0.1092,0.5232,0.5140,0.1092,0.3000,0.0600,0.0002,0,-0.3000,-100.0000,-0.0010,-0.3000,-100.0000,-0.0010,10.8886,39.9257,0.0200,0.0000
-26.7940,22.3886,-5.2905,-0.1657,0.0000,0.0000,0.0000,0.0000,0.0000,0.2689,-0.1170,0.0000,996,1502,1500,1500,1000,1000,1505,1505,1505,1372,2008,1112,1014,-0.1880,-0.1166,-0.1885,-0.0272,-0.0365,0.9965,0.3859,-0.1519,-0.3859,0.1519,0.5232,0.5140,0.1092,0.5232,0.5140,0.1092,0.3000,0.0600,0.0002,0,-0.3000,-100.0000,-0.0010,-0.3000,-100.0000,-0.0010,10.9256,39.9661,0.0200,0.0000
-26.7618,22.3611,-5.2798,-0.1657,0.0000,0.0000,0.0000,0.0000,0.0000,0.2687,-0.1170,0.0006,996,1502,1500,1500,1000,1000,1505,1505,1505,1372,2008,1112,1014,-0.1808,-0.0062,-0.4090,-0.0279,-0.0337,0.9962,0.3863,-0.1524,-0.3851,0.1511,0.5232,0.5140,0.1092,0.5232,0.5140,0.1092,0.3000,0.0600,0.0002,0,-0.3000,-100.0000,-0.0010,-0.3000,-100.0000,-0.0010,10.9625,40.0065,0.0200,0.0000
-26.7309,22.3357,-5.2717,-0.0829,0.0000,0.0000,0.0000,0.0000,0.0000,0.2686,-0.1171,-0.0000,996,1502,1500,1500,1000,1000,1505,1505,1505,1372,2008,1112,1014,-0.2692,0.2482,-0.5140,-0.0290,-0.0243,0.9946,0.3858,-0.1515,-0.3858,0.1515,0.5232,0.5140,0.1092,0.5232,0.5140,0.1092,0.3000,0.0600,0.0002,0,-0.3000,-100.0000,-0.0010,-0.3000,-100.0000,-0.0010,10.9995,40.0469,0.0300,0.0000
-26.7015,22.3120,-5.2646,-0.0829,-0.0821,0.0000,0.0000,0.0000,0.0000,0.2687,-0.1172,0.0007,996,1502,1500,1500,1000,1000,1505,1505,1505,1372,2008,1112,1014,-0.4657,0.4271,-0.4431,-0.0263,-0.0282,0.9938,0.3866,-0.1522,-0.3852,0.1508,0.5232,0.5140,0.1092,0.5232,0.5140,0.1092,0.3000,0.0600,0.0002,0,-0.3000,-100.0000,-0.0010,-0.3000,-100.0000,-0.0010,11.0365,40.0873,0.0200,0.0000
-26.6746,22.2908,-5.2577,-0.1657,0.0000,0.0000,0.0000,0.0000,0.0000,0.2688,-0.1173,0.0002,996,1502,1500,1500,1000,1000,1505,1505,1505,1372,2008,1112,1014,-0.7026,0.6453,-0.2715,-0.0316,-0.0276,0.9950,0.3863,-0.1517,-0.3860,0.1513,0.5232,0.5140,0.1092,0.5232,0.5140,0.1092,0.3000,0.0600,0.0002,0,-0.3000,-100.0000,-0.0010,-0.3000,-100.0000,-0.0010,11.0735,40.1277,0.0200,0.0000
-26.6497,22.2713,-5.2488,-0.0829,0.0000,0.0000,0.0000,0.0000,0.0000,0.2690,-0.1171,-0.0006,996,1502,1500,1500,1000,1000,1505,1505,1505,1372,2008,1112,1014,-0.9995,0.5698,-0.0164,-0.0297,-0.0332,0.9999,0.3856,-0.1513,-0.3868,0.1525,0.5232,0.5140,0.1092,0.5232,0.5140,0.1092,0.3000,0.0600,0.0002,0,-0.3000,-100.0000,-0.0010,-0.3000,-100.0000,-0.0010,11.1105,40.1681,0.0200,0.0000
-26.6270,22.2514,-5.2359,-0.1657,0.0000,0.0000,0.0000,0.0000,0.0000,0.2693,-0.1168,-0.0017,996,1502,1500,1500,1000,1000,1505,1505,1505,1372,2008,1112,1014,-1.3849,0.3119,0.3563,-0.0298,-0.0331,1.0025,0.3844,-0.1509,-0.3878,0.1543,0.5232,0.5140,0.1092,0.5232,0.5140,0.1092,0.3000,0.0600,0.0002,0,-0.3000,-100.0000,-0.0010,-0.3000,-100.0000,-0.0010,11.1475,40.2085,0.0200,0.0000
-26.6056,22.2313,-5.2173,-0.1657,0.0000,0.0000,0.0000,0.0000,0.0000,0.2695,-0.1164,-0.0030,996,1502,1500,1500,1000,1000,1505,1505,1505,1372,2008,1112,1014,-1.6445,0.0774,0.7984,-0.0351,-0.0325,1.0007,0.3829,-0.1501,-0.3889,0.1561,0.5232,0.5140,0.1092,0.5232,0.5140,0.1092,0.3000,0.0600,0.0002,0,-0.3000,-100.0000,-0.0010,-0.3000,-100.0000,-0.0010,11.1845,40.2488,0.0200,0.0000
-26.5857,22.2103,-5.1932,-0.1657,0.0821,0.0000,0.0000,0.0000,0.0000,0.2699,-0.1160,-0.0050,996,1502,1500,1500,1000,1000,1505,1505,1505,1372,2008,1112,1014,-2.0785,-0.2131,1.1481,-0.0257,-0.0308,0.9996,0.3808,-0.1489,-0.3909,0.1589,0.5232,0.5140,0.1092,0.5232,0.5140,0.1092,0.3000,0.0600,0.0002,0,-0.3000,-100.0000,-0.0010,-0.3000,-100.0000,-0.0010,11.2215,40.2892,0.0300,0.0000
-26.5691,22.1883,-5.1658,-0.1657,-0.0821,0.0000,0.0000,0.0000,0.0000,0.2701,-0.1156,-0.0044,996,1502,1500,1500,1000,1000,1505,1505,1505,1372,2008,1112,1014,-2.4179,-0.4072,1.2632,-0.0329,-0.0348,1.0004,0.3814,-0.1501,-0.3902,0.1589,0.5232,0.5140,0.1092,0.5232,0.5140,0.1092,0.3000,0.0600,0.0002,0,-0.3000,-100.0000,-0.0010,-0.3000,-100.0000,-0.0010,11.2586,40.3295,0.0200,0.0000
-26.5552,22.1636,-5.1371,-0.1657,0.0000,0.0000,0.0000,0.0000,0.0000,0.2704,-0.1152,-0.0038,996,1502,1500,1500,1000,1000,1505,1505,1505,1372,2008,1112,1014,-2.7290,-0.7252,1.0946,-0.0267,-0.0321,0.9970,0.3818,-0.1514,-0.3894,0.1591,0.5232,0.5140,0.1092,0.5232,0.5140,0.1092,0.3000,0.0600,0.0002,0,-0.3000,-100.0000,-0.0010,-0.3000,-100.0000,-0.0010,11.2956,40.3699,0.0200,0.0000
-26.5450,22.1360,-5.1098,-0.1657,-0.0821,0.0000,0.0000,0.0000,0.0000,0.2707,-0.1149,-0.0031,996,1502,1500,1500,1000,1000,1505,1505,1505,1372,2008,1112,1014,-3.0189,-0.8578,0.8609,-0.0316,-0.0370,0.9991,0.3824,-0.1527,-0.3887,0.1589,0.5232,0.5140,0.1092,0.5232,0.5140,0.1092,0.3000,0.0600,0.0002,0,-0.3000,-100.0000,-0.0010,-0.3000,-100.0000,-0.0010,11.3327,40.4103,0.0200,0.0000
-26.5384,22.1063,-5.0855,-0.0829,0.0000,0.0000,0.0000,0.0000,0.0000,0.2709,-0.1148,-0.0020,996,1502,1500,1500,1000,1000,1505,1505,1505,1372,2008,1112,1014,-3.2223,-0.7561,0.4843,-0.0261,-0.0337,0.9974,0.3837,-0.1540,-0.3877,0.1580,0.5232,0.5140,0.1092,0.5232,0.5140,0.1092,0.3000,0.0600,0.0002,0,-0.3000,-100.0000,-0.0010,-0.3000,-100.0000,-0.0010,11.3698,40.4506,0.0200,0.0000
-26.5359,22.0764,-5.0662,-0.1657,0.0000,0.0000,0.0000,0.0000,0.0000,0.2711,-0.1149,-0.0008,996,1502,1500,1500,1000,1000,1505,1505,1505,1372,2008,1112,1014,-3.4245,-0.5504,0.0993,-0.0209,-0.0383,0.9985,0.3851,-0.1553,-0.3868,0.1570,0.5232,0.5140,0.1092,0.5232,0.5140,0.1092,0.3000,0.0600,0.0002,0,-0.3000,-100.0000,-0.0010,-0.3000,-100.0000,-0.0010,11.4069,40.4910,0.0200,0.0000
-26.5372,22.0471,-5.0520,-0.1657,0.0821,0.0000,0.0000,0.0000,0.0000,0.2712,-0.1151,-0.0007,996,1502,1500,1500,1000,1000,1505,1505,1505,1372,2008,1112,1014,-3.5259,-0.2551,-0.2649,-0.0281,-0.0398,0.9976,0.3856,-0.1554,-0.3870,0.1568,0.5232,0.5140,0.1092,0.5232,0.5140,0.1092,0.3000,0.0600,0.0002,0,-0.3000,-100.0000,-0.0010,-0.3000,-100.0000,-0.0010,11.4440,40.5313,0.0300,0.0000
-26.5398,22.0184,-5.0419,-0.0829,0.0000,0.0000,0.0000,0.0000,0.0000,0.2711,-0.1151,0.0009,996,1502,1500,1500,1000,1000,1505,1505,1505,1372,2008,1112,1014,-3.4144,-0.0985,-0.4851,-0.0273,-0.0403,1.0005,0.3871,-0.1569,-0.3853,0.1551,0.5232,0.5140,0.1092,0.5232,0.5140,0.1092,0.3000,0.0600,0.0002,0,-0.3000,-100.0000,-0.0010,-0.3000,-100.0000,-0.0010,11.4810,40.5716,0.0200,0.0000
-26.5414,21.9905,-5.0339,-0.1657,-0.0821,0.0000,0.0000,0.0000,0.0000,0.2709,-0.1150,0.0011,996,1502,1500,1500,1000,1000,1505,1505,1505,1372,2008,1112,1014,-3.2713,-0.0357,-0.5656,-0.0314,-0.0373,0.9991,0.3870,-0.1570,-0.3849,0.1548,0.5232,0.5140,0.1092,0.5232,0.5140,0.1092,0.3000,0.0600,0.0002,0,-0.3000,-100.0000,-0.0010,-0.3000,-100.0000,-0.0010,11.5181,40.6118,0.0200,0.0000
-26.5406,21.9624,-5.0261,-0.0829,0.0000,0.0000,0.0000,0.0000,0.0000,0.2706,-0.1147,0.0010,996,1502,1500,1500,1000,1000,1505,1505,1505,1372,2008,1112,1014,-2.9423,-0.1457,-0.5501,-0.0313,-0.0395,1.0015,0.3864,-0.1569,-0.3843,0.1548,0.5232,0.5140,0.1092,0.5232,0.5140,0.1092,0.3000,0.0600,0.0002,0,-0.3000,-100.0000,-0.0010,-0.3000,-100.0000,-0.0010,11.5553,40.6521,0.0200,0.0000
-26.5353,21.9332,-5.0162,-0.1657,0.0821,0.0000,0.0000,0.0000,0.0000,0.2701,-0.1144,0.0004,996,1502,1500,1500,1000,1000,1505,1505,1505,1372,2008,1112,1014,-2.5545,-0.3118,-0.3519,-0.0302,-0.0408,0.9985,0.3850,-0.1562,-0.3841,0.1553,0.5232,0.5140,0.1092,0.5232,0.5140,0.1092,0.3000,0.0600,0.0002,0,-0.3000,-100.0000,-0.0010,-0.3000,-100.0000,-0.0010,11.5924,40.6923,0.0200,0.0000
-26.5241,21.9035,-5.0022,-0.2486,-0.0821,0.0000,0.0000,0.0000,0.0000,0.2695,-0.1140,-0.0009,996,1502,1500,1500,1000,1000,1505,1505,1505,1372,2008,1112,1014,-2.0568,-0.5059,0.0800,-0.0299,-0.0496,1.0006,0.3827,-0.1546,-0.3845,0.1564,0.5232,0.5140,0.1092,0.5232,0.5140,0.1092,0.3000,0.0600,0.0002,0,-0.3000,-100.0000,-0.0010,-0.3000,-100.0000,-0.0010,11.6295,40.7325,0.0200,0.0000
-26.5036,21.8735,-4.9846,-0.1657,0.0000,0.0000,0.0000,0.0000,0.0000,0.2687,-0.1138,-0.0031,996,1502,1500,1500,1000,1000,1505,1505,1505,1372,2008,1112,1014,-1.3720,-0.5807,0.4542,-0.0414,0.0047,1.0029,0.3794,-0.1518,-0.3856,0.1579,0.5232,0.5140,0.1092,0.5232,0.5140,0.1092,0.3000,0.0600,0.0002,0,-0.3000,-100.0000,-0.0010,-0.3000,-100.0000,-0.0010,11.6666,40.7727,0.0300,0.0000
-26.4820,21.8450,-4.9571,-0.1657,-0.0821,0.0000,0.0000,0.0000,0.0000,0.2682,-0.1135,-0.0046,996,1502,1500,1500,1000,1000,1505,1505,1505,1372,2008,1112,1014,-1.0440,-0.7481,1.3305,0.0075,-0.1168,0.9691,0.3771,-0.1501,-0.3863,0.1593,0.5232,0.5140,0.1092,0.5232,0.5140,0.1092,0.3000,0.0600,0.0002,0,-0.3000,-100.0000,-0.0010,-0.3000,-100.0000,-0.0010,11.7038,40.8129,0.0200,0.0000
-26.4463,21.8219,-4.9305,-0.0829,0.0000,0.0000,0.0000,0.0000,0.0000,0.2680,-0.1135,-0.0027,996,1502,1500,1500,1000,1000,1505,1505,1505,1372,2008,1112,1014,-1.0547,-0.5916,0.7514,-0.0402,-0.0381,1.0274,0.3789,-0.1518,-0.3842,0.1571,0.5232,0.5140,0.1092,0.5232,0.5140,0.1092,0.3000,0.0600,0.0002,0,-0.3000,-100.0000,-0.0010,-0.3000,-100.0000,-0.0010,11.7409,40.8531,0.0200,0.0000
-26.4196,21.7938,-4.9140,-0.0829,0.0000,0.0000,0.0000,0.0000,0.0000,0.2671,-0.1144,-0.0009,996,1502,1500,1500,1000,1000,1505,1505,1505,1372,2008,1112,1014,-0.3426,0.3797,0.0789,-0.0450,-0.0087,0.9746,0.3807,-0.1518,-0.3824,0.1535,0.5232,0.5140,0.1092,0.5232,0.5140,0.1092,0.3000,0.0600,0.0002,0,-0.3000,-100.0000,-0.0010,-0.3000,-100.0000,-0.0010,11.7781,40.8933,0.0200,0.0000
-26.3848,21.7722,-4.8983,-0.1657,-0.0821,0.0000,0.0000,0.0000,0.0000,0.2664,-0.1138,-0.0025,996,1502,1500,1500,1000,1000,1505,1505,1505,1372,2008,1112,1014,0.1539,-0.1341,0.6143,-0.0115,-0.0411,1.0032,0.3776,-0.1501,-0.3827,0.1551,0.5232,0.5140,0.1092,0.5232,0.5140,0.1092,0.3000,0.0600,0.0002,0,-0.3000,-100.0000,-0.0010,-0.3000,-100.0000,-0.0010,11.8152,40.9334,0.0200,0.0000
-26.3463,21.7526,-4.8794,-0.1657,-0.0821,0.0000,0.0000,0.0000,0.0000,0.2660,-0.1143,-0.0020,996,1502,1500,1500,1000,1000,1505,1505,1505,1372,2008,1112,1014,0.2811,0.4281,0.4951,-0.0406,-0.0947,0.9894,0.3783,-0.1498,-0.3823,0.1537,0.5232,0.5140,0.1092,0.5232,0.5140,0.1092,0.3000,0.0600,0.0002,0,-0.3000,-100.0000,-0.0010,-0.3000,-100.0000,-0.0010,11.8524,40.9736,0.0200,0.0000
-26.3046,21.7260,-4.8680,-0.2486,0.0000,0.0000,0.0000,0.0000,0.0000,0.2653,-0.1137,0.0006,996,1502,1500,1500,1000,1000,1505,1505,1505,1372,2008,1112,1014,0.7428,0.0394,-0.6993,-0.0162,-0.0091,1.0073,0.3796,-0.1522,-0.3784,0.1510,0.5232,0.5140,0.1092,0.5232,0.5140,0.1092,0.3000,0.0600,0.0002,0,-0.3000,-100.0000,-0.0010,-0.3000,-100.0000,-0.0010,11.8896,41.0137,0.0300,0.0000
-26.2626,21.6980,-4.8641,-0.1657,0.0821,0.0000,0.0000,0.0000,0.0000,0.2644,-0.1133,0.0015,996,1502,1500,1500,1000,1000,1505,1505,1505,1372,2008,1112,1014,1.3763,-0.2497,-0.7223,-0.0324,-0.0534,0.9843,0.3791,-0.1526,-0.3762,0.1497,0.5232,0.5140,0.1092,0.5232,0.5140,0.1092,0.3000,0.0600,0.0002,0,-0.3000,-100.0000,-0.0010,-0.3000,-100.0000,-0.0010,11.9268,41.0539,0.0200,0.0000
-26.2129,21.6697,-4.8557,-0.0829,0.0000,0.0000,0.0000,0.0000,0.0000,0.2638,-0.1135,0.0004,996,1502,1500,1500,1000,1000,1505,1505,1505,1372,2008,1112,1014,1.7049,0.1563,-0.3180,-0.0290,-0.0661,1.0174,0.3777,-0.1506,-0.3770,0.1499,0.5232,0.5140,0.1092,0.5232,0.5140,0.1092,0.3000,0.0600,0.0002,0,-0.3000,-100.0000,-0.0010,-0.3000,-100.0000,-0.0010,11.9640,41.0940,0.0200,0.0000
-26.1648,21.6416,-4.8484,-0.1657,0.0000,0.0000,0.0000,0.0000,0.0000,0.2639,-0.1134,0.0023,996,1502,1500,1500,1000,1000,1505,1505,1505,1372,2008,1112,1014,1.3270,0.1620,-0.9378,-0.0151,-0.0493,0.9800,0.3797,-0.1529,-0.3750,0.1482,0.5232,0.5140,0.1092,0.5232,0.5140,0.1092,0.3000,0.0600,0.0002,0,-0.3000,-100.0000,-0.0010,-0.3000,-100.0000,-0.0010,12.0012,41.1341,0.0200,0.0000
-26.1132,21.6129,-4.8484,-0.2486,0.0821,0.0000,0.0000,0.0000,0.0000,0.2627,-0.1131,0.0028,996,1502,1500,1500,1000,1000,1505,1505,1505,1372,2008,1112,1014,2.1962,0.0605,-1.1467,-0.0280,0.0039,1.0004,0.3787,-0.1524,-0.3731,0.1468,0.5232,0.5140,0.1092,0.5232,0.5140,0.1092,0.3000,0.0600,0.0002,0,-0.3000,-100.0000,-0.0010,-0.3000,-100.0000,-0.0010,12.0384,41.1742,0.0200,0.0000
-26.0608,21.5856,-4.8450,-0.1657,0.0000,0.0000,0.0000,0.0000,0.0000,0.2624,-0.1134,0.0012,996,1502,1500,1500,1000,1000,1505,1505,1505,1372,2008,1112,1014,2.2523,0.3831,-0.6099,-0.0238,-0.0711,0.9973,0.3769,-0.1502,-0.3746,0.1479,0.5232,0.5140,0.1092,0.5232,0.5140,0.1092,0.3000,0.0600,0.0002,0,-0.3000,-100.0000,-0.0010,-0.3000,-100.0000,-0.0010,12.0757,41.2143,0.0200,0.0000
-26.0015,21.5603,-4.8385,-0.1657,0.0000,0.0000,0.0000,0.0000,0.0000,0.2620,-0.1128,0.0002,996,1502,1500,1500,1000,1000,1505,1505,1505,1372,2008,1112,1014,2.3417,0.0368,-0.5741,-0.0277,-0.0182,0.9881,0.3750,-0.1493,-0.3747,0.1490,0.5232,0.5140,0.1092,0.5232,0.5140,0.1092,0.3000,0.0600,0.0002,0,-0.3000,-100.0000,-0.0010,-0.3000,-100.0000,-0.0010,12.1129,41.2544,0.0300,0.0000
-25.9429,21.5333,-4.8325,-0.0829,0.0000,0.0000,0.0000,0.0000,0.0000,0.2612,-0.1128,0.0010,996,1502,1500,1500,1000,1000,1505,1505,1505,1372,2008,1112,1014,2.7928,0.1102,-0.5547,-0.0346,-0.0430,1.0058,0.3750,-0.1495,-0.3729,0.1474,0.5232,0.5140,0.1092,0.5232,0.5140,0.1092,0.3000,0.0600,0.0002,0,-0.3000,-100.0000,-0.0010,-0.3000,-100.0000,-0.0010,12.1501,41.2945,0.0200,0.0000
-25.8798,21.5069,-4.8226,-0.1657,0.0000,0.0000,0.0000,0.0000,0.0000,0.2609,-0.1126,-0.0006,996,1502,1500,1500,1000,1000,1505,1505,1505,1372,2008,1112,1014,2.7815,0.0849,-0.0104,-0.0220,-0.0520,0.9945,0.3728,-0.1476,-0.3741,0.1489,0.5232,0.5140,0.1092,0.5232,0.5140,0.1092,0.3000,0.0600,0.0002,0,-0.3000,-100.0000,-0.0010,-0.3000,-100.0000,-0.0010,12.1874,41.3345,0.0200,0.0000
-25.8134,21.4818,-4.8081,-0.2486,0.0000,0.0000,0.0000,0.0000,0.0000,0.2603,-0.1123,-0.0015,996,1502,1500,1500,1000,1000,1505,1505,1505,1372,2008,1112,1014,2.9614,-0.0437,0.2813,-0.0327,-0.0343,0.9941,0.3712,-0.1465,-0.3741,0.1494,0.5232,0.5140,0.1092,0.5232,0.5140,0.1092,0.3000,0.0600,0.0002,0,-0.3000,-100.0000,-0.0010,-0.3000,-100.0000,-0.0010,12.2246,41.3746,0.0200,0.0000
-25.7452,21.4557,-4.7916,-0.1657,-0.0821,0.0000,0.0000,0.0000,0.0000,0.2596,-0.1118,-0.0013,996,1502,1500,1500,1000,1000,1505,1505,1505,1372,2008,1112,1014,3.2772,-0.3775,0.2484,-0.0292,-0.0494,1.0063,0.3701,-0.1465,-0.3728,0.1491,0.5232,0.5140,0.1092,0.5232,0.5140,0.1092,0.3000,0.0600,0.0002,0,-0.3000,-100.0000,-0.0010,-0.3000,-100.0000,-0.0010,12.2619,41.4146,0.0200,0.0000
-25.6737,21.4292,-4.7753,-0.2486,0.0000,0.0000,0.0000,0.0000,0.0000,0.2592,-0.1119,-0.0010,996,1502,1500,1500,1000,1000,1505,1505,1505,1372,2008,1112,1014,3.2779,-0.1768,0.1301,-0.0225,-0.0448,0.9968,0.3702,-0.1464,-0.3721,0.1483,0.5232,0.5140,0.1092,0.5232,0.5140,0.1092,0.3000,0.0600,0.0002,0,-0.3000,-100.0000,-0.0010,-0.3000,-100.0000,-0.0010,12.2992,41.4547,0.0200,0.0000
-25.6000,21.4022,-4.7604,-0.0829,0.0000,0.0000,0.0000,0.0000,0.0000,0.2585,-0.1120,-0.0018,996,1502,1500,1500,1000,1000,1505,1505,1505,1372,2008,1112,1014,3.6524,0.0660,0.0968,-0.0197,-0.0085,0.9858,0.3687,-0.1446,-0.3723,0.1482,0.5232,0.5140,0.1092,0.5232,0.5140,0.1092,0.3000,0.0600,0.0002,0,-0.3000,-100.0000,-0.0010,-0.3000,-100.0000,-0.0010,12.3365,41.4947,0.0300,0.0000
-25.5291,21.3773,-4.7486,-0.1657,-0.0821,0.0000,0.0000,0.0000,0.0000,0.2581,-0.1119,0.0002,996,1502,1500,1500,1000,1000,1505,1505,1505,1372,2008,1112,1014,3.6699,0.0564,-0.2410,-0.0268,-0.0540,1.0177,0.3702,-0.1463,-0.3698,0.1460,0.5232,0.5140,0.1092,0.5232,0.5140,0.1092,0.3000,0.0600,0.0002,0,-0.3000,-100.0000,-0.0010,-0.3000,-100.0000,-0.0010,12.3738,41.5347,0.0200,0.0000
-25.4599,21.3540,-4.7414,-0.1657,0.0000,0.0000,0.0000,0.0000,0.0000,0.2581,-0.1123,0.0008,996,1502,1500,1500,1000,1000,1505,1505,1505,1372,2008,1112,1014,3.3046,0.5432,-0.4581,-0.0244,-0.0553,0.9856,0.3712,-0.1466,-0.3696,0.1450,0.5232,0.5140,0.1092,0.5232,0.5140,0.1092,0.3000,0.0600,0.0002,0,-0.3000,-100.0000,-0.0010,-0.3000,-100.0000,-0.0010,12.4110,41.5747,0.0200,0.0000
-25.3904,21.3323,-4.7364,-0.1657,0.0000,0.0000,0.0000,0.0000,0.0000,0.2579,-0.1125,0.0008,996,1502,1500,1500,1000,1000,1505,1505,1505,1372,2008,1112,1014,3.1558,0.8379,-0.4584,-0.0336,0.0015,1.0053,0.3712,-0.1461,-0.3697,0.1446,0.5232,0.5140,0.1092,0.5232,0.5140,0.1092,0.3000,0.0600,0.0002,0,-0.3000,-100.0000,-0.0010,-0.3000,-100.0000,-0.0010,12.4484,41.6147,0.0200,0.0000
-25.3243,21.3103,-4.7313,-0.1657,0.0821,0.0000,0.0000,0.0000,0.0000,0.2571,-0.1120,0.0009,996,1502,1500,1500,1000,1000,1505,1505,1505,1372,2008,1112,1014,3.5579,0.4186,-0.4798,-0.0232,-0.0194,0.9985,0.3699,-0.1460,-0.3682,0.1443,0.5232,0.5140,0.1092,0.5232,0.5140,0.1092,0.3000,0.0600,0.0002,0,-0.3000,-100.0000,-0.0010,-0.3000,-100.0000,-0.0010,12.4857,41.6547,0.0200,0.0000
-25.2575,21.2885,-4.7246,-0.0829,0.0000,0.0000,0.0000,0.0000,0.0000,0.2571,-0.1119,0.0002,996,1502,1500,1500,1000,1000,1505,1505,1505,1372,2008,1112,1014,3.2132,0.4331,-0.2594,-0.0348,-0.0656,1.0011,0.3691,-0.1454,-0.3688,0.1451,0.5232,0.5140,0.1092,0.5232,0.5140,0.1092,0.3000,0.0600,0.0002,0,-0.3000,-100.0000,-0.0010,-0.3000,-100.0000,-0.0010,12.5230,41.6947,0.0200,0.0000
-25.1890,21.2652,-4.7139,-0.1657,0.0821,0.0000,0.0000,0.0000,0.0000,0.2570,-0.1113,-0.0016,996,1502,1500,1500,1000,1000,1505,1505,1505,1372,2008,1112,1014,2.9692,0.0750,0.0106,-0.0350,-0.0411,0.9968,0.3668,-0.1441,-0.3700,0.1473,0.5232,0.5140,0.1092,0.5232,0.5140,0.1092,0.3000,0.0600,0.0002,0,-0.3000,-100.0000,-0.0010,-0.3000,-100.0000,-0.0010,12.5603,41.7347,0.0300,0.0000
-25.1200,21.2392,-4.6996,-0.0829,-0.0821,0.0000,0.0000,0.0000,0.0000,0.2566,-0.1108,-0.0014,996,1502,1500,1500,1000,1000,1505,1505,1505,1372,2008,1112,1014,3.0324,-0.2991,0.2470,-0.0342,-0.0138,1.0045,0.3660,-0.1445,-0.3688,0.1472,0.5232,0.5140,0.1092,0.5232,0.5140,0.1092,0.3000,0.0600,0.0002,0,-0.3000,-100.0000,-0.0010,-0.3000,-100.0000,-0.0010,12.5977,41.7746,0.0200,0.0000
-25.0524,21.2122,-4.6813,-0.1657,0.0000,0.0000,0.0000,0.0000,0.0000,0.2564,-0.1107,-0.0021,996,1502,1500,1500,1000,1000,1505,1505,1505,1372,2008,1112,1014,2.9456,-0.2348,0.4913,-0.0263,-0.0428,0.9979,0.3650,-0.1436,-0.3692,0.1477,0.5232,0.5140,0.1092,0.5232,0.5140,0.1092,0.3000,0.0600,0.0002,0,-0.3000,-100.0000,-0.0010,-0.3000,-100.0000,-0.0010,12.6350,41.8145,0.0200,0.0000
-24.9843,21.1869,-4.6607,-0.1657,0.0000,0.0000,0.0000,0.0000,0.0000,0.2564,-0.1107,-0.0028,996,1502,1500,1500,1000,1000,1505,1505,1505,1372,2008,1112,1014,2.5884,-0.1625,0.7466,-0.0176,-0.0305,0.9909,0.3642,-0.1429,-0.3699,0.1486,0.5232,0.5140,0.1092,0.5232,0.5140,0.1092,0.3000,0.0600,0.0002,0,-0.3000,-100.0000,-0.0010,-0.3000,-100.0000,-0.0010,12.6724,41.8545,0.0200,0.0000
-24.9193,21.1640,-4.6406,-0.1657,0.0000,0.0000,0.0000,0.0000,0.0000,0.2562,-0.1108,-0.0024,996,1502,1500,1500,1000,1000,1505,1505,1505,1372,2008,1112,1014,2.4560,0.0457,0.6265,-0.0318,-0.0120,0.9954,0.3645,-0.1430,-0.3694,0.1479,0.5232,0.5140,0.1092,0.5232,0.5140,0.1092,0.3000,0.0600,0.0002,0,-0.3000,-100.0000,-0.0010,-0.3000,-100.0000,-0.0010,12.7097,41.8944,0.0200,0.0000
-24.8581,21.1430,-4.6238,-0.1657,0.0000,0.0000,0.0000,0.0000,0.0000,0.2561,-0.1111,-0.0016,996,1502,1500,1500,1000,1000,1505,1505,1505,1372,2008,1112,1014,2.2839,0.4401,0.3597,-0.0281,-0.0186,1.0024,0.3655,-0.1433,-0.3688,0.1466,0.5232,0.5140,0.1092,0.5232,0.5140,0.1092,0.3000,0.0600,0.0002,0,-0.3000,-100.0000,-0.0010,-0.3000,-100.0000,-0.0010,12.7471,41.9343,0.0200,0.0000
-24.8000,21.1246,-4.6102,-0.1657,0.0000,0.0000,0.0000,0.0000,0.0000,0.2561,-0.1112,-0.0026,996,1502,1500,1500,1000,1000,1505,1505,1505,1372,2008,1112,1014,1.9990,0.6369,0.3500,-0.0305,-0.0236,0.9965,0.3647,-0.1423,-0.3699,0.1475,0.5232,0.5140,0.1092,0.5232,0.5140,0.1092,0.3000,0.0600,0.0002,0,-0.3000,-100.0000,-0.0010,-0.3000,-100.0000,-0.0010,12.7845,41.9743,0.0300,0.0000
-24.7446,21.1066,-4.5970,-0.0829,0.0000,0.0000,0.0000,0.0000,0.0000,0.2560,-0.1111,-0.0014,996,1502,1500,1500,1000,1000,1505,1505,1505,1372,2008,1112,1014,1.7784,0.5719,0.2561,-0.0335,-0.0163,1.0036,0.3657,-0.1436,-0.3684,0.1463,0.5232,0.5140,0.1092,0.5232,0.5140,0.1092,0.3000,0.0600,0.0002,0,-0.3000,-100.0000,-0.0010,-0.3000,-100.0000,-0.0010,12.8219,42.0142,0.0200,0.0000
-24.6932,21.0870,-4.5847,-0.0829,-0.0821,0.0000,0.0000,0.0000,0.0000,0.2561,-0.1108,-0.0010,996,1502,1500,1500,1000,1000,1505,1505,1505,1372,2008,1112,1014,1.4632,0.4776,0.1345,-0.0322,-0.0263,1.0026,0.3660,-0.1443,-0.3679,0.1462,0.5232,0.5140,0.1092,0.5232,0.5140,0.1092,0.3000,0.0600,0.0002,0,-0.3000,-100.0000,-0.0010,-0.3000,-100.0000,-0.0010,12.8594,42.0542,0.0200,0.0000
-24.6453,21.0641,-4.5726,-0.0829,-0.0821,0.0000,0.0000,0.0000,0.0000,0.2562,-0.1103,-0.0008,996,1502,1500,1500,1000,1000,1505,1505,1505,1372,2008,1112,1014,1.1334,0.1153,0.0636,-0.0285,-0.0293,0.9956,0.3657,-0.1451,-0.3674,0.1467,0.5232,0.5140,0.1092,0.5232,0.5140,0.1092,0.3000,0.0600,0.0002,0,-0.3000,-100.0000,-0.0010,-0.3000,-100.0000,-0.0010,12.8968,42.0941,0.0200,0.0000
-24.6015,21.0387,-4.5591,-0.1657,0.0821,0.0000,0.0000,0.0000,0.0000,0.2565,-0.1099,-0.0008,996,1502,1500,1500,1000,1000,1505,1505,1505,1372,2008,1112,1014,0.6104,-0.1152,0.0657,-0.0356,-0.0291,1.0014,0.3657,-0.1458,-0.3673,0.1474,0.5232,0.5140,0.1092,0.5232,0.5140,0.1092,0.3000,0.0600,0.0002,0,-0.3000,-100.0000,-0.0010,-0.3000,-100.0000,-0.0010,12.9342,42.1340,0.0200,0.0000
-24.5616,21.0107,-4.5458,-0.1657,0.0000,0.0000,0.0000,0.0000,0.0000,0.2567,-0.1096,-0.0001,996,1502,1500,1500,1000,1000,1505,1505,1505,1372,2008,1112,1014,0.2397,-0.3092,-0.1450,-0.0316,-0.0167,1.0053,0.3662,-0.1470,-0.3665,0.1473,0.5232,0.5140,0.1092,0.5232,0.5140,0.1092,0.3000,0.0600,0.0002,0,-0.3000,-100.0000,-0.0010,-0.3000,-100.0000,-0.0010,12.9717,42.1739,0.0200,0.0000
-24.5258,20.9801,-4.5341,-0.0829,-0.0821,0.0000,0.0000,0.0000,0.0000,0.2569,-0.1093,-0.0005,996,1502,1500,1500,1000,1000,1505,1505,1505,1372,2008,1112,1014,-0.0774,-0.4175,-0.3540,-0.0340,-0.0189,1.0042,0.3657,-0.1471,-0.3667,0.1481,0.5232,0.5140,0.1092,0.5232,0.5140,0.1092,0.3000,0.0600,0.0002,0,-0.3000,-100.0000,-0.0010,-0.3000,-100.0000,-0.0010,13.0091,42.2138,0.0300,0.0000
-24.4928,20.9485,-4.5223,-0.2486,0.0000,0.0000,0.0000,0.0000,0.0000,0.2569,-0.1090,0.0001,996,1502,1500,1500,1000,1000,1505,1505,1505,1372,2008,1112,1014,-0.2252,-0.5831,-0.2366,-0.0367,-0.0254,0.9978,0.3660,-0.1480,-0.3658,0.1478,0.5232,0.5140,0.1092,0.5232,0.5140,0.1092,0.3000,0.0600,0.0002,0,-0.3000,-100.0000,-0.0010,-0.3000,-100.0000,-0.0010,13.0466,42.2537,0.0200,0.0000
-24.4589,20.9170,-4.5088,-0.1657,0.0000,0.0000,0.0000,0.0000,0.0000,0.2567,-0.1088,-0.0001,996,1502,1500,1500,1000,1000,1505,1505,1505,1372,2008,1112,1014,-0.2299,-0.5484,-0.1525,-0.0383,-0.0247,1.0038,0.3654,-0.1477,-0.3657,0.1480,0.5232,0.5140,0.1092,0.5232,0.5140,0.1092,0.3000,0.0600,0.0002,0,-0.3000,-100.0000,-0.0010,-0.3000,-100.0000,-0.0010,13.0841,42.2935,0.0200,0.0000
-24.4241,20.8856,-4.4952,-0.1657,-0.0821,0.0000,0.0000,0.0000,0.0000,0.2564,-0.1087,-0.0004,996,1502,1500,1500,1000,1000,1505,1505,1505,1372,2008,1112,1014,-0.0701,-0.5163,-0.0928,-0.0376,-0.0226,0.9944,0.3647,-0.1473,-0.3654,0.1480,0.5232,0.5140,0.1092,0.5232,0.5140,0.1092,0.3000,0.0600,0.0002,0,-0.3000,-100.0000,-0.0010,-0.3000,-100.0000,-0.0010,13.1215,42.3334,0.0200,0.0000
-24.3889,20.8561,-4.4801,-0.2486,0.0000,0.0000,0.0000,0.0000,0.0000,0.2562,-0.1088,-0.0015,996,1502,1500,1500,1000,1000,1505,1505,1505,1372,2008,1112,1014,-0.0793,-0.3201,0.2712,-0.0280,-0.0347,0.9952,0.3635,-0.1460,-0.3664,0.1489,0.5232,0.5140,0.1092,0.5232,0.5140,0.1092,0.3000,0.0600,0.0002,0,-0.3000,-100.0000,-0.0010,-0.3000,-100.0000,-0.0010,13.1590,42.3732,0.0200,0.0000
-24.3530,20.8314,-4.4629,-0.1657,0.0000,0.0000,0.0000,0.0000,0.0000,0.2562,-0.1092,-0.0021,996,1502,1500,1500,1000,1000,1505,1505,1505,1372,2008,1112,1014,-0.2332,0.1571,0.5015,-0.0316,-0.0335,0.9977,0.3633,-0.1450,-0.3674,0.1491,0.5232,0.5140,0.1092,0.5232,0.5140,0.1092,0.3000,0.0600,0.0002,0,-0.3000,-100.0000,-0.0010,-0.3000,-100.0000,-0.0010,13.1965,42.4129,0.0200,0.0000
-24.3184,20.8107,-4.4460,-0.1657,-0.0821,0.0000,0.0000,0.0000,0.0000,0.2559,-0.1094,-0.0030,996,1502,1500,1500,1000,1000,1505,1505,1505,1372,2008,1112,1014,-0.1932,0.4662,0.4760,-0.0294,-0.0227,0.9985,0.3623,-0.1436,-0.3683,0.1495,0.5232,0.5140,0.1092,0.5232,0.5140,0.1092,0.3000,0.0600,0.0002,0,-0.3000,-100.0000,-0.0010,-0.3000,-100.0000,-0.0010,13.2339,42.4527,0.0300,0.0000
-24.2846,20.7913,-4.4303,-0.0829,0.0000,0.0000,0.0000,0.0000,0.0000,0.2558,-0.1092,-0.0023,996,1502,1500,1500,1000,1000,1505,1505,1505,1372,2008,1112,1014,-0.1918,0.3745,0.5396,-0.0321,-0.0252,1.0050,0.3627,-0.1443,-0.3672,0.1488,0.5232,0.5140,0.1092,0.5232,0.5140,0.1092,0.3000,0.0600,0.0002,0,-0.3000,-100.0000,-0.0010,-0.3000,-100.0000,-0.0010,13.2714,42.4924,0.0200,0.0000
-24.2500,20.7706,-4.4123,-0.0829,-0.0821,0.0000,0.0000,0.0000,0.0000,0.2557,-0.1087,-0.0028,996,1502,1500,1500,1000,1000,1505,1505,1505,1372,2008,1112,1014,-0.2929,-0.0002,0.7190,-0.0442,-0.0265,1.0037,0.3616,-0.1442,-0.3671,0.1498,0.5232,0.5140,0.1092,0.5232,0.5140,0.1092,0.3000,0.0600,0.0002,0,-0.3000,-100.0000,-0.0010,-0.3000,-100.0000,-0.0010,13.3089,42.5321,0.0200,0.0000
-24.2150,20.7474,-4.3913,-0.1657,0.0000,0.0000,0.0000,0.0000,0.0000,0.2557,-0.1082,-0.0031,996,1502,1500,1500,1000,1000,1505,1505,1505,1372,2008,1112,1014,-0.4585,-0.3574,0.8240,-0.0319,-0.0268,0.9974,0.3608,-0.1444,-0.3669,0.1506,0.5232,0.5140,0.1092,0.5232,0.5140,0.1092,0.3000,0.0600,0.0002,0,-0.3000,-100.0000,-0.0010,-0.3000,-100.0000,-0.0010,13.3464,42.5718,0.0200,0.0000
-24.1789,20.7206,-4.3675,-0.0829,-0.0821,0.0000,0.0000,0.0000,0.0000,0.2552,-0.1077,-0.0037,996,1502,1500,1500,1000,1000,1505,1505,1505,1372,2008,1112,1014,-0.1995,-0.6492,0.9922,-0.0284,-0.0371,0.9967,0.3593,-0.1439,-0.3666,0.1512,0.5232,0.5140,0.1092,0.5232,0.5140,0.1092,0.3000,0.0600,0.0002,0,-0.3000,-100.0000,-0.0010,-0.3000,-100.0000,-0.0010,13.3839,42.6115,0.0200,0.0000
-24.1392,20.6908,-4.3387,-0.1657,0.0000,0.0000,0.0000,0.0000,0.0000,0.2547,-0.1073,-0.0046,996,1502,1500,1500,1000,1000,1505,1505,1505,1372,2008,1112,1014,0.0473,-0.8978,1.3303,-0.0279,-0.0370,1.0022,0.3574,-0.1428,-0.3667,0.1521,0.5232,0.5140,0.1092,0.5232,0.5140,0.1092,0.3000,0.0600,0.0002,0,-0.3000,-100.0000,-0.0010,-0.3000,-100.0000,-0.0010,13.4215,42.6511,0.0200,0.0000
-24.0984,20.6594,-4.3077,-0.1657,-0.0821,0.0000,0.0000,0.0000,0.0000,0.2547,-0.1067,-0.0051,996,1502,1500,1500,1000,1000,1505,1505,1505,1372,2008,1112,1014,-0.1014,-1.2742,1.2092,-0.0290,-0.0326,0.9935,0.3563,-0.1429,-0.3665,0.1531,0.5232,0.5140,0.1092,0.5232,0.5140,0.1092,0.3000,0.0600,0.0002,0,-0.3000,-100.0000,-0.0010,-0.3000,-100.0000,-0.0010,13.4590,42.6908,0.0300,0.0000
-24.0602,20.6278,-4.2860,0.0000,-0.1642,0.0000,0.0000,0.0000,0.0000,0.2546,-0.1076,-0.0019,996,1502,1500,1500,1000,1000,1505,1505,1505,1372,2008,1112,1014,-0.2112,-0.3252,0.3313,-0.0686,0.0282,0.9920,0.3602,-0.1451,-0.3641,0.1490,0.5232,0.5140,0.1092,0.5232,0.5140,0.1092,0.3000,0.0600,0.0002,0,-0.3000,-100.0000,-0.0010,-0.3000,-100.0000,-0.0010,13.4965,42.7305,0.0200,0.0000
-24.0313,20.6020,-4.2661,-0.1657,-0.1642,0.0000,0.0000,0.0000,0.0000,0.2546,-0.1079,-0.0030,996,1502,1500,1500,1000,1000,1505,1505,1505,1372,2008,1112,1014,-0.2955,0.1197,0.7636,0.0233,-0.1056,1.0151,0.3595,-0.1436,-0.3655,0.1496,0.5232,0.5140,0.1092,0.5232,0.5140,0.1092,0.3000,0.0600,0.0002,0,-0.3000,-100.0000,-0.0010,-0.3000,-100.0000,-0.0010,13.5341,42.7702,0.0200,0.0000
-23.9908,20.5916,-4.2496,0.0000,0.0000,0.0000,0.0000,0.0000,0.0000,0.2537,-0.1088,-0.0038,996,1502,1500,1500,1000,1000,1505,1505,1505,1372,2008,1112,1014,0.2974,1.0180,1.0475,-0.0500,-0.0288,0.9949,0.3588,-0.1411,-0.3663,0.1486,0.5232,0.5140,0.1092,0.5232,0.5140,0.1092,0.3000,0.0600,0.0002,0,-0.3000,-100.0000,-0.0010,-0.3000,-100.0000,-0.0010,13.5717,42.8099,0.0200,0.0000
-23.9398,20.5766,-4.2294,-0.0829,0.0000,0.0000,0.0000,0.0000,0.0000,0.2508,-0.1090,-0.0047,996,1502,1500,1500,1000,1000,1505,1505,1505,1372,2008,1112,1014,2.7126,1.2300,1.3725,-0.0647,-0.0180,0.9821,0.3550,-0.1370,-0.3645,0.1465,0.5232,0.5140,0.1092,0.5232,0.5140,0.1092,0.3000,0.0600,0.0002,0,-0.3000,-100.0000,-0.0010,-0.3000,-100.0000,-0.0010,13.6093,42.8495,0.0200,0.0000
-23.8494,20.5619,-4.2077,-0.2486,-0.0821,0.0000,0.0000,0.0000,0.0000,0.2451,-0.1072,-0.0041,996,1502,1500,1500,1000,1000,1505,1505,1505,1372,2008,1112,1014,7.5058,-0.3595,1.1610,-0.0381,-0.1185,1.0500,0.3481,-0.1338,-0.3564,0.1420,0.5232,0.5140,0.1092,0.5232,0.5140,0.1092,0.3000,0.0600,0.0002,0,-0.3000,-100.0000,-0.0010,-0.3000,-100.0000,-0.0010,13.6469,42.8892,0.0200,0.0000
-23.7079,20.5368,-4.1837,-0.1657,0.0000,0.0000,0.0000,0.0000,0.0000,0.2389,-0.1073,-0.0058,996,1502,1500,1500,1000,1000,1505,1505,1505,1372,2008,1112,1014,12.4464,-0.0916,1.3733,-0.0456,-0.1142,0.9606,0.3405,-0.1258,-0.3521,0.1374,0.5232,0.5140,0.1092,0.5232,0.5140,0.1092,0.3000,0.0600,0.0002,0,-0.3000,-100.0000,-0.0010,-0.3000,-100.0000,-0.0010,13.6845,42.9289,0.0300,0.0000
-23.5067,20.5062,-4.1546,-0.1657,0.0000,0.0000,0.0000,0.0000,0.0000,0.2318,-0.1072,-0.0051,996,1502,1500,1500,1000,1000,1505,1505,1505,1372,2008,1112,1014,18.0343,-0.1097,1.4807,0.0149,-0.0743,0.9923,0.3338,-0.1195,-0.3441,0.1297,0.5232,0.5140,0.1092,0.5232,0.5140,0.1092,0.3000,0.0600,0.0002,0,-0.3000,-100.0000,-0.0010,-0.3000,-100.0000,-0.0010,13.7221,42.9685,0.0200,0.0000
-23.2529,20.4902,-4.1335,-0.0829,0.0000,0.0000,0.0000,0.0000,0.0000,0.2247,-0.1088,-0.0050,996,1502,1500,1500,1000,1000,1505,1505,1505,1372,2008,1112,1014,23.3530,1.4207,1.4379,-0.0221,-0.0861,0.9953,0.3284,-0.1109,-0.3384,0.1209,0.5232,0.5140,0.1092,0.5232,0.5140,0.1092,0.3000,0.0600,0.0002,0,-0.3000,-100.0000,-0.0010,-0.3000,-100.0000,-0.0010,13.7597,43.0081,0.0200,0.0000
-22.9538,20.4942,-4.1208,-0.1657,0.0000,0.0000,0.0000,0.0000,0.0000,0.2187,-0.1124,-0.0048,996,1502,1500,1500,1000,1000,1505,1505,1505,1372,2008,1112,1014,27.3884,4.7336,1.3612,0.0061,-0.0952,0.9761,0.3263,-0.1015,-0.3359,0.1111,0.5232,0.5140,0.1092,0.5232,0.5140,0.1092,0.3000,0.0600,0.0002,0,-0.3000,-100.0000,-0.0010,-0.3000,-100.0000,-0.0010,13.7973,43.0478,0.0200,0.0000
-22.6184,20.5338,-4.1287,-0.1657,0.0000,0.0000,0.0000,0.0000,0.0000,0.2125,-0.1162,-0.0032,996,1502,1500,1500,1000,1000,1505,1505,1505,1372,2008,1112,1014,31.4240,8.0276,0.8388,-0.0249,-0.0488,1.0329,0.3255,-0.0931,-0.3319,0.0995,0.5232,0.5140,0.1092,0.5232,0.5140,0.1092,0.3000,0.0600,0.0002,0,-0.3000,-100.0000,-0.0010,-0.3000,-100.0000,-0.0010,13.8350,43.0874,0.0200,0.0000
-22.2439,20.6025,-4.1523,-0.1657,0.0000,0.0000,0.0000,0.0000,0.0000,0.2059,-0.1198,-0.0043,996,1502,1500,1500,1000,1000,1505,1505,1505,1372,2008,1112,1014,35.6584,10.9906,1.1206,-0.0382,-0.0760,0.9532,0.3214,-0.0818,-0.3300,0.0905,0.5232,0.5140,0.1092,0.5232,0.5140,0.1092,0.3000,0.0600,0.0002,0,-0.3000,-100.0000,-0.0010,-0.3000,-100.0000,-0.0010,13.8726,43.1270,0.0200,0.0000
-21.8216,20.6905,-4.1732,-0.2486,0.0821,0.0000,0.0000,0.0000,0.0000,0.1989,-0.1207,-0.0076,996,1502,1500,1500,1000,1000,1505,1505,1505,1372,2008,1112,1014,40.0713,11.3637,1.9650,-0.0849,-0.0252,1.0542,0.3120,-0.0707,-0.3272,0.0858,0.5232,0.5140,0.1092,0.5232,0.5140,0.1092,0.3000,0.0600,0.0002,0,-0.3000,-100.0000,-0.0010,-0.3000,-100.0000,-0.0010,13.9103,43.1666,0.0300,0.0000
-21.3589,20.7762,-4.1799,-0.1657,0.0000,0.0000,0.0000,0.0000,0.0000,0.1942,-0.1198,-0.0084,996,1502,1500,1500,1000,1000,1505,1505,1505,1372,2008,1112,1014,42.1921,10.2008,2.5956,-0.0300,0.0062,0.9283,0.3056,-0.0659,-0.3224,0.0828,0.5232,0.5140,0.1092,0.5232,0.5140,0.1092,0.3000,0.0600,0.0002,0,-0.3000,-100.0000,-0.0010,-0.3000,-100.0000,-0.0010,13.9479,43.2062,0.0200,0.0000
-20.8668,20.8518,-4.1758,-0.1657,0.0000,0.0000,0.0000,0.0000,0.0000,0.1895,-0.1177,-0.0089,996,1502,1500,1500,1000,1000,1505,1505,1505,1372,2008,1112,1014,44.1167,7.8582,2.7259,-0.0718,0.0538,1.0334,0.2982,-0.0629,-0.3161,0.0808,0.5232,0.5140,0.1092,0.5232,0.5140,0.1092,0.3000,0.0600,0.0002,0,-0.3000,-100.0000,-0.0010,-0.3000,-100.0000,-0.0010,13.9856,43.2458,0.0200,0.0000
-20.3721,20.9113,-4.1657,-0.2486,0.0000,0.0000,0.0000,0.0000,0.0000,0.1879,-0.1172,-0.0075,996,1502,1500,1500,1000,1000,1505,1505,1505,1372,2008,1112,1014,43.1981,7.0904,2.2964,-0.0808,0.0783,0.9698,0.2976,-0.0633,-0.3125,0.0782,0.5232,0.5140,0.1092,0.5232,0.5140,0.1092,0.3000,0.0600,0.0002,0,-0.3000,-100.0000,-0.0010,-0.3000,-100.0000,-0.0010,14.0233,43.2853,0.0200,0.0000
-19.8886,20.9503,-4.1547,-0.0829,0.0000,0.0000,0.0000,0.0000,0.0000,0.1874,-0.1148,-0.0041,996,1502,1500,1500,1000,1000,1505,1505,1505,1372,2008,1112,1014,41.3868,4.7563,1.1894,-0.0357,0.0713,0.9760,0.2981,-0.0685,-0.3062,0.0766,0.5232,0.5140,0.1092,0.5232,0.5140,0.1092,0.3000,0.0600,0.0002,0,-0.3000,-100.0000,-0.0010,-0.3000,-100.0000,-0.0010,14.0610,43.3249,0.0200,0.0000
-19.4335,20.9701,-4.1542,-0.1657,0.0000,0.0000,0.0000,0.0000,0.0000,0.1873,-0.1138,0.0013,996,1502,1500,1500,1000,1000,1505,1505,1505,1372,2008,1112,1014,39.2749,3.7174,-0.5568,-0.0612,0.0286,1.0254,0.3024,-0.0749,-0.2997,0.0722,0.5232,0.5140,0.1092,0.5232,0.5140,0.1092,0.3000,0.0600,0.0002,0,-0.3000,-100.0000,-0.0010,-0.3000,-100.0000,-0.0010,14.0987,43.3645,0.0200,0.0000
-19.0098,20.9635,-4.1677,-0.0829,0.0821,0.0000,0.0000,0.0000,0.0000,0.1883,-0.1117,0.0069,996,1502,1500,1500,1000,1000,1505,1505,1505,1372,2008,1112,1014,36.3479,1.8221,-2.7745,-0.0543,0.0896,1.0009,0.3068,-0.0835,-0.2931,0.0697,0.5232,0.5140,0.1092,0.5232,0.5140,0.1092,0.3000,0.0600,0.0002,0,-0.3000,-100.0000,-0.0010,-0.3000,-100.0000,-0.0010,14.1364,43.4040,0.0300,0.0000
-18.6243,20.9400,-4.1987,-0.1657,-0.0821,0.0000,0.0000,0.0000,0.0000,0.1898,-0.1104,0.0131,996,1502,1500,1500,1000,1000,1505,1505,1505,1372,2008,1112,1014,33.0895,0.7705,-4.5418,-0.0481,0.0904,1.0064,0.3133,-0.0925,-0.2871,0.0663,0.5232,0.5140,0.1092,0.5232,0.5140,0.1092,0.3000,0.0600,0.0002,0,-0.3000,-100.0000,-0.0010,-0.3000,-100.0000,-0.0010,14.1741,43.4435,0.0200,0.0000
-18.2767,20.9042,-4.2434,0.0000,0.0000,0.0000,0.0000,0.0000,0.0000,0.1916,-0.1098,0.0172,996,1502,1500,1500,1000,1000,1505,1505,1505,1372,2008,1112,1014,29.7813,0.4123,-5.8829,-0.0531,0.1311,0.9865,0.3186,-0.0990,-0.2842,0.0646,0.5232,0.5140,0.1092,0.5232,0.5140,0.1092,0.3000,0.0600,0.0002,0,-0.3000,-100.0000,-0.0010,-0.3000,-100.0000,-0.0010,14.2118,43.4831,0.0200,0.0000
-17.9680,20.8594,-4.2984,-0.0829,-0.0821,0.0000,0.0000,0.0000,0.0000,0.1932,-0.1087,0.0197,996,1502,1500,1500,1000,1000,1505,1505,1505,1372,2008,1112,1014,26.8135,-0.4154,-6.7745,-0.0464,0.1466,1.0058,0.3216,-0.1043,-0.2822,0.0648,0.5232,0.5140,0.1092,0.5232,0.5140,0.1092,0.3000,0.0600,0.0002,0,-0.3000,-100.0000,-0.0010,-0.3000,-100.0000,-0.0010,14.2496,43.5227,0.0200,0.0000
-17.6877,20.8087,-4.3576,-0.1657,-0.1642,0.0000,0.0000,0.0000,0.0000,0.1947,-0.1083,0.0210,996,1502,1500,1500,1000,1000,1505,1505,1505,1372,2008,1112,1014,24.1585,-0.5205,-7.1927,-0.0192,0.1392,0.9629,0.3240,-0.1074,-0.2820,0.0654,0.5232,0.5140,0.1092,0.5232,0.5140,0.1092,0.3000,0.0600,0.0002,0,-0.3000,-100.0000,-0.0010,-0.3000,-100.0000,-0.0010,14.2873,43.5622,0.0200,0.0000
-17.4414,20.7587,-4.4196,-0.1657,0.0000,0.0000,0.0000,0.0000,0.0000,0.1976,-0.1083,0.0211,996,1502,1500,1500,1000,1000,1505,1505,1505,1372,2008,1112,1014,20.3034,-0.2435,-7.2205,-0.0469,0.1294,1.0021,0.3270,-0.1103,-0.2848,0.0681,0.5232,0.5140,0.1092,0.5232,0.5140,0.1092,0.3000,0.0600,0.0002,0,-0.3000,-100.0000,-0.0010,-0.3000,-100.0000,-0.0010,14.3251,43.6017,0.0200,0.0000
-17.2391,20.7139,-4.4846,-0.0829,0.0000,0.0000,0.0000,0.0000,0.0000,0.2002,-0.1095,0.0190,996,1502,1500,1500,1000,1000,1505,1505,1505,1372,2008,1112,1014,16.8950,0.9956,-6.8717,-0.0479,0.1234,1.0206,0.3287,-0.1098,-0.2907,0.0718,0.5232,0.5140,0.1092,0.5232,0.5140,0.1092,0.3000,0.0600,0.0002,0,-0.3000,-100.0000,-0.0010,-0.3000,-100.0000,-0.0010,14.3629,43.6412,0.0300,0.0000
-17.0752,20.6771,-4.5425,-0.0829,-0.0821,0.0000,0.0000,0.0000,0.0000,0.2044,-0.1093,0.0168,996,1502,1500,1500,1000,1000,1505,1505,1505,1372,2008,1112,1014,12.2961,1.0261,-5.8333,-0.0321,0.0778,0.9578,0.3305,-0.1119,-0.2969,0.0783,0.5232,0.5140,0.1092,0.5232,0.5140,0.1092,0.3000,0.0600,0.0002,0,-0.3000,-100.0000,-0.0010,-0.3000,-100.0000,-0.0010,14.4006,43.6807,0.0200,0.0000
-16.9397,20.6454,-4.5861,0.0000,-0.0821,0.0000,0.0000,0.0000,0.0000,0.2062,-0.1086,0.0120,996,1502,1500,1500,1000,1000,1505,1505,1505,1372,2008,1112,1014,9.9881,0.5049,-4.2436,-0.0454,0.0642,1.0110,0.3268,-0.1097,-0.3028,0.0856,0.5232,0.5140,0.1092,0.5232,0.5140,0.1092,0.3000,0.0600,0.0002,0,-0.3000,-100.0000,-0.0010,-0.3000,-100.0000,-0.0010,14.4384,43.7202,0.0200,0.0000
-16.8201,20.6088,-4.6081,-0.0829,-0.0821,0.0000,0.0000,0.0000,0.0000,0.2078,-0.1071,0.0064,996,1502,1500,1500,1000,1000,1505,1505,1505,1372,2008,1112,1014,7.9639,-0.6647,-2.3882,-0.0703,0.1519,1.0235,0.3213,-0.1071,-0.3085,0.0943,0.5232,0.5140,0.1092,0.5232,0.5140,0.1092,0.3000,0.0600,0.0002,0,-0.3000,-100.0000,-0.0010,-0.3000,-100.0000,-0.0010,14.4762,43.7596,0.0200,0.0000
-16.7117,20.5614,-4.6064,-0.1657,0.0000,0.0000,0.0000,0.0000,0.0000,0.2084,-0.1046,0.0023,996,1502,1500,1500,1000,1000,1505,1505,1505,1372,2008,1112,1014,6.8854,-2.7119,-0.9600,-0.0591,0.1002,0.9539,0.3153,-0.1061,-0.3107,0.1015,0.5232,0.5140,0.1092,0.5232,0.5140,0.1092,0.3000,0.0600,0.0002,0,-0.3000,-100.0000,-0.0010,-0.3000,-100.0000,-0.0010,14.5140,43.7991,0.0200,0.0000
-16.6081,20.5043,-4.5876,-0.0829,0.0000,0.0000,0.0000,0.0000,0.0000,0.2096,-0.1036,-0.0001,996,1502,1500,1500,1000,1000,1505,1505,1505,1372,2008,1112,1014,5.2822,-3.3563,-0.1322,-0.0398,0.0759,0.9731,0.3132,-0.1059,-0.3133,0.1061,0.5232,0.5140,0.1092,0.5232,0.5140,0.1092,0.3000,0.0600,0.0002,0,-0.3000,-100.0000,-0.0010,-0.3000,-100.0000,-0.0010,14.5518,43.8385,0.0200,0.0000
-16.5157,20.4402,-4.5594,-0.0829,0.0000,0.0000,0.0000,0.0000,0.0000,0.2111,-0.1023,-0.0025,996,1502,1500,1500,1000,1000,1505,1505,1505,1372,2008,1112,1014,3.4890,-4.2546,0.3757,-0.0358,0.1437,0.9986,0.3109,-0.1063,-0.3159,0.1113,0.5232,0.5140,0.1092,0.5232,0.5140,0.1092,0.3000,0.0600,0.0002,0,-0.3000,-100.0000,-0.0010,-0.3000,-100.0000,-0.0010,14.5896,43.8779,0.0300,0.0000
-16.4361,20.3694,-4.5282,-0.1657,0.0000,0.0000,0.0000,0.0000,0.0000,0.2106,-0.1010,-0.0022,996,1502,1500,1500,1000,1000,1505,1505,1505,1372,2008,1112,1014,3.5560,-5.1462,0.5772,-0.0879,0.1145,1.0173,0.3093,-0.1074,-0.3138,0.1119,0.5232,0.5140,0.1092,0.5232,0.5140,0.1092,0.3000,0.0600,0.0002,0,-0.3000,-100.0000,-0.0010,-0.3000,-100.0000,-0.0010,14.6274,43.9174,0.0200,0.0000
-16.3586,20.2848,-4.4887,-0.0829,0.0000,0.0000,0.0000,0.0000,0.0000,0.2102,-0.0991,-0.0032,996,1502,1500,1500,1000,1000,1505,1505,1505,1372,2008,1112,1014,3.5449,-6.4463,0.8952,-0.0496,0.0090,0.9882,0.3061,-0.1080,-0.3125,0.1143,0.5232,0.5140,0.1092,0.5232,0.5140,0.1092,0.3000,0.0600,0.0002,0,-0.3000,-100.0000,-0.0010,-0.3000,-100.0000,-0.0010,14.6652,43.9568,0.0200,0.0000
-16.2697,20.1861,-4.4422,-0.1657,0.0000,0.0000,0.0000,0.0000,0.0000,0.2092,-0.0969,-0.0034,996,1502,1500,1500,1000,1000,1505,1505,1505,1372,2008,1112,1014,4.0255,-7.9991,0.9910,-0.0263,0.0286,0.9974,0.3027,-0.1090,-0.3095,0.1157,0.5232,0.5140,0.1092,0.5232,0.5140,0.1092,0.3000,0.0600,0.0002,0,-0.3000,-100.0000,-0.0010,-0.3000,-100.0000,-0.0010,14.7031,43.9962,0.0200,0.0000
-16.1738,20.0775,-4.3948,-0.1657,0.0000,0.0000,0.0000,0.0000,0.0000,0.2079,-0.0961,-0.0030,996,1502,1500,1500,1000,1000,1505,1505,1505,1372,2008,1112,1014,4.7553,-8.1588,0.8548,-0.0311,0.1157,1.0134,0.3011,-0.1088,-0.3070,0.1148,0.5232,0.5140,0.1092,0.5232,0.5140,0.1092,0.3000,0.0600,0.0002,0,-0.3000,-100.0000,-0.0010,-0.3000,-100.0000,-0.0010,14.7409,44.0355,0.0200,0.0000
-16.0730,19.9714,-4.3517,-0.2486,0.0000,0.0000,0.0000,0.0000,0.0000,0.2059,-0.0966,-0.0021,996,1502,1500,1500,1000,1000,1505,1505,1505,1372,2008,1112,1014,6.0847,-7.2530,0.5421,-0.0318,0.0801,0.9909,0.3005,-0.1073,-0.3046,0.1114,0.5232,0.5140,0.1092,0.5232,0.5140,0.1092,0.3000,0.0600,0.0002,0,-0.3000,-100.0000,-0.0010,-0.3000,-100.0000,-0.0010,14.7788,44.0748,0.0200,0.0000
-15.9679,19.8853,-4.3162,-0.2486,0.0000,0.0000,0.0000,0.0000,0.0000,0.2053,-0.0992,-0.0028,996,1502,1500,1500,1000,1000,1505,1505,1505,1372,2008,1112,1014,6.2206,-4.4765,0.4497,0.0013,0.0487,0.9506,0.3016,-0.1033,-0.3072,0.1089,0.5232,0.5140,0.1092,0.5232,0.5140,0.1092,0.3000,0.0600,0.0002,0,-0.3000,-100.0000,-0.0010,-0.3000,-100.0000,-0.0010,14.8166,44.1141,0.0300,0.0000
-15.8490,19.8254,-4.2881,-0.1657,0.0000,0.0000,0.0000,0.0000,0.0000,0.2028,-0.1015,-0.0022,996,1502,1500,1500,1000,1000,1505,1505,1505,1372,2008,1112,1014,7.8718,-2.0225,0.5814,0.0057,0.1069,0.9940,0.3022,-0.0991,-0.3065,0.1035,0.5232,0.5140,0.1092,0.5232,0.5140,0.1092,0.3000,0.0600,0.0002,0,-0.3000,-100.0000,-0.0010,-0.3000,-100.0000,-0.0010,14.8545,44.1535,0.0200,0.0000
-15.7120,19.7930,-4.2663,-0.1657,-0.0821,0.0000,0.0000,0.0000,0.0000,0.1991,-0.1041,-0.0037,996,1502,1500,1500,1000,1000,1505,1505,1505,1372,2008,1112,1014,10.5871,0.4648,1.0390,-0.0306,0.1448,0.9895,0.2995,-0.0914,-0.3069,0.0988,0.5232,0.5140,0.1092,0.5232,0.5140,0.1092,0.3000,0.0600,0.0002,0,-0.3000,-100.0000,-0.0010,-0.3000,-100.0000,-0.0010,14.8924,44.1928,0.0200,0.0000
-15.5510,19.7823,-4.2451,-0.1657,0.0000,0.0000,0.0000,0.0000,0.0000,0.1954,-0.1060,-0.0050,996,1502,1500,1500,1000,1000,1505,1505,1505,1372,2008,1112,1014,13.2432,2.2667,1.4759,-0.0192,0.0568,0.9951,0.2964,-0.0844,-0.3064,0.0944,0.5232,0.5140,0.1092,0.5232,0.5140,0.1092,0.3000,0.0600,0.0002,0,-0.3000,-100.0000,-0.0010,-0.3000,-100.0000,-0.0010,14.9303,44.2321,0.0200,0.0000
-15.3607,19.7893,-4.2221,-0.0829,0.0000,0.0000,0.0000,0.0000,0.0000,0.1921,-0.1073,-0.0068,996,1502,1500,1500,1000,1000,1505,1505,1505,1372,2008,1112,1014,15.3416,3.4209,2.0704,-0.0265,0.0432,0.9805,0.2926,-0.0781,-0.3062,0.0916,0.5232,0.5140,0.1092,0.5232,0.5140,0.1092,0.3000,0.0600,0.0002,0,-0.3000,-100.0000,-0.0010,-0.3000,-100.0000,-0.0010,14.9682,44.2714,0.0200,0.0000
-15.1440,19.8047,-4.1951,0.0000,0.0000,0.0000,0.0000,0.0000,0.0000,0.1886,-0.1078,-0.0089,996,1502,1500,1500,1000,1000,1505,1505,1505,1372,2008,1112,1014,17.5340,3.8401,2.7587,-0.0449,0.1056,1.0022,0.2875,-0.0719,-0.3053,0.0896,0.5232,0.5140,0.1092,0.5232,0.5140,0.1092,0.3000,0.0600,0.0002,0,-0.3000,-100.0000,-0.0010,-0.3000,-100.0000,-0.0010,15.0061,44.3108,0.0200,0.0000
-14.9065,19.8193,-4.1624,-0.0829,0.0821,0.0000,0.0000,0.0000,0.0000,0.1845,-0.1074,-0.0110,996,1502,1500,1500,1000,1000,1505,1505,1505,1372,2008,1112,1014,20.1461,3.3714,3.1682,-0.0541,0.0652,1.0202,0.2808,-0.0661,-0.3029,0.0882,0.5232,0.5140,0.1092,0.5232,0.5140,0.1092,0.3000,0.0600,0.0002,0,-0.3000,-100.0000,-0.0010,-0.3000,-100.0000,-0.0010,15.0441,44.3501,0.0300,0.0000
-14.6438,19.8291,-4.1225,-0.1657,-0.0821,0.0000,0.0000,0.0000,0.0000,0.1816,-0.1065,-0.0106,996,1502,1500,1500,1000,1000,1505,1505,1505,1372,2008,1112,1014,21.5294,2.5462,3.3645,-0.0292,0.0296,0.9524,0.2776,-0.0645,-0.2987,0.0857,0.5232,0.5140,0.1092,0.5232,0.5140,0.1092,0.3000,0.0600,0.0002,0,-0.3000,-100.0000,-0.0010,-0.3000,-100.0000,-0.0010,15.0820,44.3894,0.0200,0.0000
-14.3602,19.8319,-4.0806,0.0000,0.0000,0.0000,0.0000,0.0000,0.0000,0.1785,-0.1055,-0.0102,996,1502,1500,1500,1000,1000,1505,1505,1505,1372,2008,1112,1014,23.0412,1.6323,3.2285,-0.0486,0.1125,1.0014,0.2738,-0.0627,-0.2942,0.0831,0.5232,0.5140,0.1092,0.5232,0.5140,0.1092,0.3000,0.0600,0.0002,0,-0.3000,-100.0000,-0.0010,-0.3000,-100.0000,-0.0010,15.1200,44.4286,0.0200,0.0000
-14.0613,19.8252,-4.0405,-0.1657,0.0000,0.0000,0.0000,0.0000,0.0000,0.1746,-0.1052,-0.0086,996,1502,1500,1500,1000,1000,1505,1505,1505,1372,2008,1112,1014,25.1941,1.3947,2.6874,-0.0496,0.1467,1.0142,0.2712,-0.0607,-0.2884,0.0779,0.5232,0.5140,0.1092,0.5232,0.5140,0.1092,0.3000,0.0600,0.0002,0,-0.3000,-100.0000,-0.0010,-0.3000,-100.0000,-0.0010,15.1579,44.4679,0.0200,0.0000
-13.7491,19.8177,-4.0069,0.0000,-0.0821,0.0000,0.0000,0.0000,0.0000,0.1719,-0.1053,-0.0055,996,1502,1500,1500,1000,1000,1505,1505,1505,1372,2008,1112,1014,26.1108,1.4993,1.7198,-0.0224,0.1093,0.9509,0.2717,-0.0610,-0.2828,0.0721,0.5232,0.5140,0.1092,0.5232,0.5140,0.1092,0.3000,0.0600,0.0002,0,-0.3000,-100.0000,-0.0010,-0.3000,-100.0000,-0.0010,15.1959,44.5071,0.0200,0.0000
-13.4291,19.8130,-3.9870,-0.1657,-0.0821,0.0000,0.0000,0.0000,0.0000,0.1694,-0.1059,-0.0022,996,1502,1500,1500,1000,1000,1505,1505,1505,1372,2008,1112,1014,26.8834,2.0465,0.5797,-0.0316,0.1172,1.0023,0.2731,-0.0614,-0.2775,0.0657,0.5232,0.5140,0.1092,0.5232,0.5140,0.1092,0.3000,0.0600,0.0002,0,-0.3000,-100.0000,-0.0010,-0.3000,-100.0000,-0.0010,15.2339,44.5464,0.0200,0.0000
-13.1023,19.8065,-3.9806,-0.1657,-0.0821,0.0000,0.0000,0.0000,0.0000,0.1659,-0.1062,-0.0001,996,1502,1500,1500,1000,1000,1505,1505,1505,1372,2008,1112,1014,28.5475,2.3265,-0.4765,-0.0551,0.1487,1.0280,0.2720,-0.0597,-0.2721,0.0598,0.5232,0.5140,0.1092,0.5232,0.5140,0.1092,0.3000,0.0600,0.0002,0,-0.3000,-100.0000,-0.0010,-0.3000,-100.0000,-0.0010,15.2719,44.5856,0.0300,0.0000
-12.7694,19.7984,-3.9825,-0.1657,-0.0821,0.0000,0.0000,0.0000,0.0000,0.1634,-0.1061,0.0026,996,1502,1500,1500,1000,1000,1505,1505,1505,1372,2008,1112,1014,29.1919,2.3029,-1.0373,-0.0240,0.1008,0.9494,0.2721,-0.0599,-0.2670,0.0548,0.5232,0.5140,0.1092,0.5232,0.5140,0.1092,0.3000,0.0600,0.0002,0,-0.3000,-100.0000,-0.0010,-0.3000,-100.0000,-0.0010,15.3098,44.6249,0.0200,0.0000
-12.4285,19.7965,-3.9889,-0.0829,0.0000,0.0000,0.0000,0.0000,0.0000,0.1610,-0.1065,0.0030,996,1502,1500,1500,1000,1000,1505,1505,1505,1372,2008,1112,1014,29.7744,2.7087,-1.1694,-0.0412,0.1249,0.9840,0.2705,-0.0574,-0.2646,0.0515,0.5232,0.5140,0.1092,0.5232,0.5140,0.1092,0.3000,0.0600,0.0002,0,-0.3000,-100.0000,-0.0010,-0.3000,-100.0000,-0.0010,15.3478,44.6641,0.0200,0.0000
-12.0847,19.7956,-3.9966,-0.1657,-0.0821,0.0000,0.0000,0.0000,0.0000,0.1588,-0.1075,0.0031,996,1502,1500,1500,1000,1000,1505,1505,1505,1372,2008,1112,1014,30.1104,3.6346,-1.2139,-0.0283,0.1653,0.9887,0.2695,-0.0544,-0.2633,0.0482,0.5232,0.5140,0.1092,0.5232,0.5140,0.1092,0.3000,0.0600,0.0002,0,-0.3000,-100.0000,-0.0010,-0.3000,-100.0000,-0.0010,15.3858,44.7033,0.0200,0.0000
-11.7373,19.8035,-4.0054,-0.0829,0.0000,0.0000,0.0000,0.0000,0.0000,0.1570,-0.1078,0.0031,996,1502,1500,1500,1000,1000,1505,1505,1505,1372,2008,1112,1014,30.1068,3.8086,-1.2058,-0.0278,0.1672,0.9846,0.2679,-0.0523,-0.2617,0.0462,0.5232,0.5140,0.1092,0.5232,0.5140,0.1092,0.3000,0.0600,0.0002,0,-0.3000,-100.0000,-0.0010,-0.3000,-100.0000,-0.0010,15.4238,44.7424,0.0200,0.0000
-11.3906,19.8219,-4.0162,-0.1657,0.0000,0.0000,0.0000,0.0000,0.0000,0.1550,-0.1092,0.0030,996,1502,1500,1500,1000,1000,1505,1505,1505,1372,2008,1112,1014,30.3008,5.0473,-1.1748,-0.0585,0.1774,0.9760,0.2672,-0.0487,-0.2613,0.0428,0.5232,0.5140,0.1092,0.5232,0.5140,0.1092,0.3000,0.0600,0.0002,0,-0.3000,-100.0000,-0.0010,-0.3000,-100.0000,-0.0010,15.4618,44.7816,0.0200,0.0000
-11.0446,19.8458,-4.0276,-0.0829,0.0000,0.0000,0.0000,0.0000,0.0000,0.1535,-0.1103,0.0018,996,1502,1500,1500,1000,1000,1505,1505,1505,1372,2008,1112,1014,30.0157,5.9458,-1.1104,-0.0203,0.1688,0.9696,0.2657,-0.0450,-0.2620,0.0414,0.5232,0.5140,0.1092,0.5232,0.5140,0.1092,0.3000,0.0600,0.0002,0,-0.3000,-100.0000,-0.0010,-0.3000,-100.0000,-0.0010,15.4999,44.8208,0.0300,0.0000
-10.6962,19.8797,-4.0380,-0.0829,0.0000,0.0000,0.0000,0.0000,0.0000,0.1517,-0.1107,0.0017,996,1502,1500,1500,1000,1000,1505,1505,1505,1372,2008,1112,1014,29.9662,6.1261,-0.7718,-0.0408,0.1680,0.9892,0.2642,-0.0428,-0.2607,0.0393,0.5232,0.5140,0.1092,0.5232,0.5140,0.1092,0.3000,0.0600,0.0002,0,-0.3000,-100.0000,-0.0010,-0.3000,-100.0000,-0.0010,15.5379,44.8599,0.0200,0.0000
-10.3537,19.9175,-4.0455,-0.0829,0.0000,0.0000,0.0000,0.0000,0.0000,0.1498,-0.1119,0.0006,996,1502,1500,1500,1000,1000,1505,1505,1505,1372,2008,1112,1014,30.0846,7.0141,-0.4058,-0.0555,0.1722,0.9920,0.2623,-0.0385,-0.2611,0.0374,0.5232,0.5140,0.1092,0.5232,0.5140,0.1092,0.3000,0.0600,0.0002,0,-0.3000,-100.0000,-0.0010,-0.3000,-100.0000,-0.0010,15.5760,44.8991,0.0200,0.0000
-10.0116,19.9606,-4.0481,-0.0829,0.0000,0.0000,0.0000,0.0000,0.0000,0.1491,-0.1117,-0.0003,996,1502,1500,1500,1000,1000,1505,1505,1505,1372,2008,1112,1014,29.1378,6.6918,-0.0806,-0.0321,0.1812,0.9722,0.2605,-0.0370,-0.2611,0.0376,0.5232,0.5140,0.1092,0.5232,0.5140,0.1092,0.3000,0.0600,0.0002,0,-0.3000,-100.0000,-0.0010,-0.3000,-100.0000,-0.0010,15.6140,44.9383,0.0200,0.0000
-9.6701,20.0071,-4.0476,0.0000,-0.0821,0.0000,0.0000,0.0000,0.0000,0.1474,-0.1121,-0.0013,996,1502,1500,1500,1000,1000,1505,1505,1505,1372,2008,1112,1014,29.0128,6.7633,0.2420,-0.0680,0.2166,0.9811,0.2582,-0.0341,-0.2607,0.0366,0.5232,0.5140,0.1092,0.5232,0.5140,0.1092,0.3000,0.0600,0.0002,0,-0.3000,-100.0000,-0.0010,-0.3000,-100.0000,-0.0010,15.6521,44.9774,0.0200,0.0000
-9.3302,20.0445,-4.0433,-0.0829,-0.0821,0.0000,0.0000,0.0000,0.0000,0.1452,-0.1119,-0.0011,996,1502,1500,1500,1000,1000,1505,1505,1505,1372,2008,1112,1014,29.3808,6.4505,0.2015,-0.0349,0.1887,0.9485,0.2560,-0.0322,-0.2583,0.0345,0.5232,0.5140,0.1092,0.5232,0.5140,0.1092,0.3000,0.0600,0.0002,0,-0.3000,-100.0000,-0.0010,-0.3000,-100.0000,-0.0010,15.6902,45.0165,0.0200,0.0000
-8.9850,20.0791,-4.0371,0.0000,0.0821,0.0000,0.0000,0.0000,0.0000,0.1438,-0.1105,-0.0024,996,1502,1500,1500,1000,1000,1505,1505,1505,1372,2008,1112,1014,29.0437,4.9990,0.3101,-0.0542,0.2161,0.9877,0.2519,-0.0308,-0.2568,0.0357,0.5232,0.5140,0.1092,0.5232,0.5140,0.1092,0.3000,0.0600,0.0002,0,-0.3000,-100.0000,-0.0010,-0.3000,-100.0000,-0.0010,15.7283,45.0557,0.0300,0.0000
-8.6398,20.1023,-4.0275,0.0000,-0.0821,0.0000,0.0000,0.0000,0.0000,0.1414,-0.1104,-0.0024,996,1502,1500,1500,1000,1000,1505,1505,1505,1372,2008,1112,1014,29.5411,4.7402,0.6026,-0.0803,0.2187,0.9830,0.2494,-0.0286,-0.2542,0.0335,0.5232,0.5140,0.1092,0.5232,0.5140,0.1092,0.3000,0.0600,0.0002,0,-0.3000,-100.0000,-0.0010,-0.3000,-100.0000,-0.0010,15.7664,45.0948,0.0200,0.0000
-8.2937,20.1168,-4.0104,-0.0829,0.0000,0.0000,0.0000,0.0000,0.0000,0.1402,-0.1089,-0.0042,996,1502,1500,1500,1000,1000,1505,1505,1505,1372,2008,1112,1014,29.0137,3.3033,1.1992,-0.0384,0.1957,0.9678,0.2448,-0.0271,-0.2533,0.0356,0.5232,0.5140,0.1092,0.5232,0.5140,0.1092,0.3000,0.0600,0.0002,0,-0.3000,-100.0000,-0.0010,-0.3000,-100.0000,-0.0010,15.8045,45.1340,0.0200,0.0000
-7.9489,20.1292,-3.9863,-0.0829,0.0000,0.0000,0.0000,0.0000,0.0000,0.1391,-0.1090,-0.0062,996,1502,1500,1500,1000,1000,1505,1505,1505,1372,2008,1112,1014,28.3793,3.3870,1.8400,-0.0652,0.2283,0.9871,0.2420,-0.0239,-0.2543,0.0362,0.5232,0.5140,0.1092,0.5232,0.5140,0.1092,0.3000,0.0600,0.0002,0,-0.3000,-100.0000,-0.0010,-0.3000,-100.0000,-0.0010,15.8426,45.1731,0.0200,0.0000
-7.6101,20.1344,-3.9546,-0.0829,0.0000,0.0000,0.0000,0.0000,0.0000,0.1379,-0.1092,-0.0075,996,1502,1500,1500,1000,1000,1505,1505,1505,1372,2008,1112,1014,27.8321,3.5080,2.2933,-0.0230,0.2080,0.9502,0.2396,-0.0213,-0.2546,0.0362,0.5232,0.5140,0.1092,0.5232,0.5140,0.1092,0.3000,0.0600,0.0002,0,-0.3000,-100.0000,-0.0010,-0.3000,-100.0000,-0.0010,15.8808,45.2122,0.0200,0.0000
-7.2765,20.1451,-3.9188,-0.0829,0.0000,0.0000,0.0000,0.0000,0.0000,0.1372,-0.1086,-0.0085,996,1502,1500,1500,1000,1000,1505,1505,1505,1372,2008,1112,1014,26.8720,2.9519,2.6254,-0.0567,0.2287,0.9848,0.2373,-0.0201,-0.2544,0.0371,0.5232,0.5140,0.1092,0.5232,0.5140,0.1092,0.3000,0.0600,0.0002,0,-0.3000,-100.0000,-0.0010,-0.3000,-100.0000,-0.0010,15.9189,45.2513,0.0200,0.0000
-6.9517,20.1545,-3.8814,0.0000,0.0000,0.0000,0.0000,0.0000,0.0000,0.1363,-0.1098,-0.0090,996,1502,1500,1500,1000,1000,1505,1505,1505,1372,2008,1112,1014,26.1390,3.9908,2.4884,-0.0504,0.2459,0.9557,0.2371,-0.0175,-0.2551,0.0355,0.5232,0.5140,0.1092,0.5232,0.5140,0.1092,0.3000,0.0600,0.0002,0,-0.3000,-100.0000,-0.0010,-0.3000,-100.0000,-0.0010,15.9571,45.2903,0.0300,0.0000
-6.6348,20.1680,-3.8467,0.0829,0.0000,0.0000,0.0000,0.0000,0.0000,0.1356,-0.1091,-0.0068,996,1502,1500,1500,1000,1000,1505,1505,1505,1372,2008,1112,1014,25.3114,3.2341,2.1065,-0.0481,0.2572,0.9806,0.2378,-0.0197,-0.2515,0.0334,0.5232,0.5140,0.1092,0.5232,0.5140,0.1092,0.3000,0.0600,0.0002,0,-0.3000,-100.0000,-0.0010,-0.3000,-100.0000,-0.0010,15.9952,45.3294,0.0200,0.0000
-6.3292,20.1833,-3.8188,0.0000,-0.0821,0.0000,0.0000,0.0000,0.0000,0.1347,-0.1104,-0.0051,996,1502,1500,1500,1000,1000,1505,1505,1505,1372,2008,1112,1014,24.6838,4.3559,1.5094,-0.0695,0.2595,0.9706,0.2399,-0.0192,-0.2501,0.0294,0.5232,0.5140,0.1092,0.5232,0.5140,0.1092,0.3000,0.0600,0.0002,0,-0.3000,-100.0000,-0.0010,-0.3000,-100.0000,-0.0010,16.0334,45.3685,0.0200,0.0000
-6.0294,20.1970,-3.7939,0.0829,0.0000,0.0000,0.0000,0.0000,0.0000,0.1336,-0.1094,-0.0048,996,1502,1500,1500,1000,1000,1505,1505,1505,1372,2008,1112,1014,24.2104,3.4086,1.3814,-0.0396,0.2503,0.9688,0.2382,-0.0194,-0.2478,0.0290,0.5232,0.5140,0.1092,0.5232,0.5140,0.1092,0.3000,0.0600,0.0002,0,-0.3000,-100.0000,-0.0010,-0.3000,-100.0000,-0.0010,16.0716,45.4075,0.0200,0.0000
-5.7357,20.2116,-3.7697,0.0000,0.0000,0.0000,0.0000,0.0000,0.0000,0.1327,-0.1099,-0.0048,996,1502,1500,1500,1000,1000,1505,1505,1505,1372,2008,1112,1014,23.6718,3.8448,1.3681,-0.0807,0.2647,0.9679,0.2379,-0.0180,-0.2474,0.0275,0.5232,0.5140,0.1092,0.5232,0.5140,0.1092,0.3000,0.0600,0.0002,0,-0.3000,-100.0000,-0.0010,-0.3000,-100.0000,-0.0010,16.1097,45.4466,0.0200,0.0000
-5.4457,20.2197,-3.7430,0.0000,0.0000,0.0000,0.0000,0.0000,0.0000,0.1317,-0.1096,-0.0056,996,1502,1500,1500,1000,1000,1505,1505,1505,1372,2008,1112,1014,23.1828,3.4600,1.6198,-0.0276,0.2486,0.9424,0.2357,-0.0166,-0.2468,0.0277,0.5232,0.5140,0.1092,0.5232,0.5140,0.1092,0.3000,0.0600,0.0002,0,-0.3000,-100.0000,-0.0010,-0.3000,-100.0000,-0.0010,16.1479,45.4856,0.0200,0.0000
-5.1638,20.2350,-3.7139,0.0000,-0.0821,0.0000,0.0000,0.0000,0.0000,0.1313,-0.1100,-0.0072,996,1502,1500,1500,1000,1000,1505,1505,1505,1372,2008,1112,1014,22.2042,3.7809,1.8694,-0.0767,0.2759,0.9959,0.2340,-0.0140,-0.2485,0.0285,0.5232,0.5140,0.1092,0.5232,0.5140,0.1092,0.3000,0.0600,0.0002,0,-0.3000,-100.0000,-0.0010,-0.3000,-100.0000,-0.0010,16.1862,45.5246,0.0300,0.0000
-4.8934,20.2456,-3.6828,0.0000,-0.0821,0.0000,0.0000,0.0000,0.0000,0.1313,-0.1106,-0.0065,996,1502,1500,1500,1000,1000,1505,1505,1505,1372,2008,1112,1014,20.8443,4.2961,1.9220,-0.0285,0.2535,0.9187,0.2355,-0.0142,-0.2484,0.0272,0.5232,0.5140,0.1092,0.5232,0.5140,0.1092,0.3000,0.0600,0.0002,0,-0.3000,-100.0000,-0.0010,-0.3000,-100.0000,-0.0010,16.2244,45.5636,0.0200,0.0000
-4.6343,20.2656,-3.6506,0.0829,0.0000,0.0000,0.0000,0.0000,0.0000,0.1312,-0.1100,-0.0072,996,1502,1500,1500,1000,1000,1505,1505,1505,1372,2008,1112,1014,19.7756,3.6483,2.1628,-0.0854,0.2843,1.0022,0.2339,-0.0139,-0.2484,0.0284,0.5232,0.5140,0.1092,0.5232,0.5140,0.1092,0.3000,0.0600,0.0002,0,-0.3000,-100.0000,-0.0010,-0.3000,-100.0000,-0.0010,16.2626,45.6026,0.0200,0.0000
-4.3859,20.2768,-3.6152,0.0000,0.0000,0.0000,0.0000,0.0000,0.0000,0.1307,-0.1108,-0.0078,996,1502,1500,1500,1000,1000,1505,1505,1505,1372,2008,1112,1014,18.9787,4.3046,2.3482,-0.0358,0.2614,0.9162,0.2337,-0.0122,-0.2493,0.0277,0.5232,0.5140,0.1092,0.5232,0.5140,0.1092,0.3000,0.0600,0.0002,0,-0.3000,-100.0000,-0.0010,-0.3000,-100.0000,-0.0010,16.3009,45.6416,0.0200,0.0000
-4.1405,20.2906,-3.5763,0.0000,0.0000,0.0000,0.0000,0.0000,0.0000,0.1300,-0.1092,-0.0089,996,1502,1500,1500,1000,1000,1505,1505,1505,1372,2008,1112,1014,18.4704,2.8136,2.7208,-0.0792,0.2974,0.9986,0.2303,-0.0118,-0.2482,0.0297,0.5232,0.5140,0.1092,0.5232,0.5140,0.1092,0.3000,0.0600,0.0002,0,-0.3000,-100.0000,-0.0010,-0.3000,-100.0000,-0.0010,16.3391,45.6806,0.0200,0.0000
-3.9017,20.2938,-3.5345,-0.0829,0.0000,0.0000,0.0000,0.0000,0.0000,0.1294,-0.1097,-0.0089,996,1502,1500,1500,1000,1000,1505,1505,1505,1372,2008,1112,1014,17.8631,3.1835,2.7248,-0.0496,0.2730,0.9004,0.2302,-0.0109,-0.2479,0.0286,0.5232,0.5140,0.1092,0.5232,0.5140,0.1092,0.3000,0.0600,0.0002,0,-0.3000,-100.0000,-0.0010,-0.3000,-100.0000,-0.0010,16.3774,45.7195,0.0200,0.0000
-3.6653,20.2940,-3.4921,0.0000,0.0000,0.0000,0.0000,0.0000,0.0000,0.1284,-0.1079,-0.0099,996,1502,1500,1500,1000,1000,1505,1505,1505,1372,2008,1112,1014,17.6373,1.5880,2.7306,-0.0701,0.2932,0.9897,0.2264,-0.0106,-0.2462,0.0304,0.5232,0.5140,0.1092,0.5232,0.5140,0.1092,0.3000,0.0600,0.0002,0,-0.3000,-100.0000,-0.0010,-0.3000,-100.0000,-0.0010,16.4156,45.7584,0.0300,0.0000
-3.4347,20.2848,-3.4498,0.0000,0.0000,0.0000,0.0000,0.0000,0.0000,0.1278,-0.1082,-0.0086,996,1502,1500,1500,1000,1000,1505,1505,1505,1372,2008,1112,1014,17.0703,1.9348,2.6333,-0.0557,0.2748,0.9071,0.2274,-0.0110,-0.2447,0.0282,0.5232,0.5140,0.1092,0.5232,0.5140,0.1092,0.3000,0.0600,0.0002,0,-0.3000,-100.0000,-0.0010,-0.3000,-100.0000,-0.0010,16.4539,45.7974,0.0200,0.0000
-3.2067,20.2718,-3.4086,0.0829,-0.0821,0.0000,0.0000,0.0000,0.0000,0.1266,-0.1068,-0.0084,996,1502,1500,1500,1000,1000,1505,1505,1505,1372,2008,1112,1014,17.0673,0.6812,2.5455,-0.0631,0.2899,0.9855,0.2250,-0.0114,-0.2419,0.0283,0.5232,0.5140,0.1092,0.5232,0.5140,0.1092,0.3000,0.0600,0.0002,0,-0.3000,-100.0000,-0.0010,-0.3000,-100.0000,-0.0010,16.4922,45.8363,0.0200,0.0000
-2.9847,20.2543,-3.3679,0.0000,0.0000,0.0000,0.0000,0.0000,0.0000,0.1264,-0.1074,-0.0081,996,1502,1500,1500,1000,1000,1505,1505,1505,1372,2008,1112,1014,16.2626,1.3523,2.4500,-0.0534,0.2821,0.9211,0.2257,-0.0108,-0.2419,0.0270,0.5232,0.5140,0.1092,0.5232,0.5140,0.1092,0.3000,0.0600,0.0002,0,-0.3000,-100.0000,-0.0010,-0.3000,-100.0000,-0.0010,16.5305,45.8751,0.0200,0.0000
-2.7675,20.2374,-3.3288,0.0000,0.0000,0.0000,0.0000,0.0000,0.0000,0.1256,-0.1067,-0.0076,996,1502,1500,1500,1000,1000,1505,1505,1505,1372,2008,1112,1014,15.8823,0.7253,2.2708,-0.0593,0.3020,0.9861,0.2247,-0.0113,-0.2399,0.0266,0.5232,0.5140,0.1092,0.5232,0.5140,0.1092,0.3000,0.0600,0.0002,0,-0.3000,-100.0000,-0.0010,-0.3000,-100.0000,-0.0010,16.5688,45.9140,0.0200,0.0000
-2.5593,20.2221,-3.2919,0.0829,0.0000,0.0000,0.0000,0.0000,0.0000,0.1255,-0.1078,-0.0072,996,1502,1500,1500,1000,1000,1505,1505,1505,1372,2008,1112,1014,15.0213,1.8320,2.1351,-0.0506,0.2925,0.9293,0.2261,-0.0104,-0.2405,0.0249,0.5232,0.5140,0.1092,0.5232,0.5140,0.1092,0.3000,0.0600,0.0002,0,-0.3000,-100.0000,-0.0010,-0.3000,-100.0000,-0.0010,16.6070,45.9529,0.0200,0.0000
-2.3560,20.2104,-3.2552,0.0829,0.0000,0.0000,0.0000,0.0000,0.0000,0.1248,-0.1070,-0.0084,996,1502,1500,1500,1000,1000,1505,1505,1505,1372,2008,1112,1014,14.6361,1.1663,2.1773,-0.0645,0.3045,0.9717,0.2235,-0.0095,-0.2402,0.0262,0.5232,0.5140,0.1092,0.5232,0.5140,0.1092,0.3000,0.0600,0.0002,0,-0.3000,-100.0000,-0.0010,-0.3000,-100.0000,-0.0010,16.6453,45.9918,0.0300,0.0000
-2.1579,20.1996,-3.2170,0.0829,0.0000,0.0000,0.0000,0.0000,0.0000,0.1241,-0.1081,-0.0079,996,1502,1500,1500,1000,1000,1505,1505,1505,1372,2008,1112,1014,14.3398,2.2340,2.3494,-0.0608,0.2903,0.9308,0.2244,-0.0081,-0.2402,0.0239,0.5232,0.5140,0.1092,0.5232,0.5140,0.1092,0.3000,0.0600,0.0002,0,-0.3000,-100.0000,-0.0010,-0.3000,-100.0000,-0.0010,16.6837,46.0307,0.0200,0.0000
-1.9594,20.1905,-3.1765,0.0829,-0.0821,0.0000,0.0000,0.0000,0.0000,0.1233,-0.1069,-0.0089,996,1502,1500,1500,1000,1000,1505,1505,1505,1372,2008,1112,1014,14.1684,1.1979,2.6617,-0.0657,0.3049,0.9664,0.2213,-0.0074,-0.2391,0.0253,0.5232,0.5140,0.1092,0.5232,0.5140,0.1092,0.3000,0.0600,0.0002,0,-0.3000,-100.0000,-0.0010,-0.3000,-100.0000,-0.0010,16.7220,46.0695,0.0200,0.0000
-1.7635,20.1768,-3.1321,0.0829,0.0000,0.0000,0.0000,0.0000,0.0000,0.1224,-0.1075,-0.0098,996,1502,1500,1500,1000,1000,1505,1505,1505,1372,2008,1112,1014,14.0471,1.7990,2.9479,-0.0486,0.2945,0.9179,0.2202,-0.0051,-0.2397,0.0246,0.5232,0.5140,0.1092,0.5232,0.5140,0.1092,0.3000,0.0600,0.0002,0,-0.3000,-100.0000,-0.0010,-0.3000,-100.0000,-0.0010,16.7603,46.1083,0.0200,0.0000
-1.5647,20.1647,-3.0866,0.0829,0.0000,0.0000,0.0000,0.0000,0.0000,0.1213,-0.1067,-0.0095,996,1502,1500,1500,1000,1000,1505,1505,1505,1372,2008,1112,1014,14.1327,1.0614,2.8780,-0.0636,0.3202,0.9688,0.2184,-0.0051,-0.2374,0.0241,0.5232,0.5140,0.1092,0.5232,0.5140,0.1092,0.3000,0.0600,0.0002,0,-0.3000,-100.0000,-0.0010,-0.3000,-100.0000,-0.0010,16.7987,46.1472,0.0200,0.0000
-1.3681,20.1498,-3.0425,0.1657,0.0000,0.0000,0.0000,0.0000,0.0000,0.1202,-0.1074,-0.0089,996,1502,1500,1500,1000,1000,1505,1505,1505,1372,2008,1112,1014,14.1117,1.7927,2.6773,-0.0509,0.2952,0.9295,0.2187,-0.0040,-0.2365,0.0218,0.5232,0.5140,0.1092,0.5232,0.5140,0.1092,0.3000,0.0600,0.0002,0,-0.3000,-100.0000,-0.0010,-0.3000,-100.0000,-0.0010,16.8371,46.1860,0.0200,0.0000
-1.1726,20.1377,-3.0023,0.0829,0.0000,0.0000,0.0000,0.0000,0.0000,0.1193,-0.1067,-0.0086,996,1502,1500,1500,1000,1000,1505,1505,1505,1372,2008,1112,1014,14.0235,1.2132,2.2683,-0.0680,0.3187,0.9683,0.2174,-0.0040,-0.2346,0.0213,0.5232,0.5140,0.1092,0.5232,0.5140,0.1092,0.3000,0.0600,0.0002,0,-0.3000,-100.0000,-0.0010,-0.3000,-100.0000,-0.0010,16.8754,46.2249,0.0300,0.0000
-0.9807,20.1237,-2.9659,0.1657,0.0000,0.0000,0.0000,0.0000,0.0000,0.1185,-0.1074,-0.0067,996,1502,1500,1500,1000,1000,1505,1505,1505,1372,2008,1112,1014,13.8125,1.8986,1.9374,-0.0519,0.3014,0.9320,0.2192,-0.0045,-0.2326,0.0179,0.5232,0.5140,0.1092,0.5232,0.5140,0.1092,0.3000,0.0600,0.0002,0,-0.3000,-100.0000,-0.0010,-0.3000,-100.0000,-0.0010,16.9138,46.2637,0.0200,0.0000
-0.7898,20.1139,-2.9329,0.0829,0.0000,0.0000,0.0000,0.0000,0.0000,0.1174,-0.1069,-0.0062,996,1502,1500,1500,1000,1000,1505,1505,1505,1372,2008,1112,1014,13.9134,1.4877,1.7222,-0.0702,0.3278,0.9649,0.2181,-0.0044,-0.2305,0.0167,0.5232,0.5140,0.1092,0.5232,0.5140,0.1092,0.3000,0.0600,0.0002,0,-0.3000,-100.0000,-0.0010,-0.3000,-100.0000,-0.0010,16.9522,46.3026,0.0200,0.0000
-0.6017,20.1013,-2.8999,0.1657,0.0000,0.0000,0.0000,0.0000,0.0000,0.1170,-0.1074,-0.0065,996,1502,1500,1500,1000,1000,1505,1505,1505,1372,2008,1112,1014,13.4388,2.0563,1.8321,-0.0479,0.3056,0.9259,0.2179,-0.0031,-0.2309,0.0160,0.5232,0.5140,0.1092,0.5232,0.5140,0.1092,0.3000,0.0600,0.0002,0,-0.3000,-100.0000,-0.0010,-0.3000,-100.0000,-0.0010,16.9907,46.3414,0.0200,0.0000
-0.4164,20.0940,-2.8669,0.1657,0.0000,0.0000,0.0000,0.0000,0.0000,0.1163,-0.1072,-0.0063,996,1502,1500,1500,1000,1000,1505,1505,1505,1372,2008,1112,1014,13.1727,1.8993,1.7676,-0.0753,0.3319,0.9566,0.2172,-0.0028,-0.2298,0.0154,0.5232,0.5140,0.1092,0.5232,0.5140,0.1092,0.3000,0.0600,0.0002,0,-0.3000,-100.0000,-0.0010,-0.3000,-100.0000,-0.0010,17.0291,46.3803,0.0200,0.0000
-0.2362,20.0859,-2.8340,0.2486,0.0000,0.0000,0.0000,0.0000,0.0000,0.1160,-0.1079,-0.0063,996,1502,1500,1500,1000,1000,1505,1505,1505,1372,2008,1112,1014,12.5479,2.5472,1.7771,-0.0416,0.3103,0.9184,0.2176,-0.0018,-0.2302,0.0145,0.5232,0.5140,0.1092,0.5232,0.5140,0.1092,0.3000,0.0600,0.0002,0,-0.3000,-100.0000,-0.0010,-0.3000,-100.0000,-0.0010,17.0675,46.4191,0.0200,0.0000
-0.0609,20.0840,-2.8032,0.1657,0.0000,0.0000,0.0000,0.0000,0.0000,0.1152,-0.1077,-0.0062,996,1502,1500,1500,1000,1000,1505,1505,1505,1372,2008,1112,1014,12.4416,2.4443,1.4313,-0.0839,0.3308,0.9700,0.2167,-0.0012,-0.2292,0.0137,0.5232,0.5140,0.1092,0.5232,0.5140,0.1092,0.3000,0.0600,0.0002,0,-0.3000,-100.0000,-0.0010,-0.3000,-100.0000,-0.0010,17.1060,46.4578,0.0300,0.0000
0.1105,20.0778,-2.7756,0.3315,-0.0821,0.0000,0.0000,0.0000,0.0000,0.1149,-0.1075,-0.0044,996,1502,1500,1500,1000,1000,1505,1505,1505,1372,2008,1112,1014,11.9634,2.2759,1.1337,-0.0524,0.3128,0.9223,0.2180,-0.0030,-0.2267,0.0117,0.5232,0.5140,0.1092,0.5232,0.5140,0.1092,0.3000,0.0600,0.0002,0,-0.3000,-100.0000,-0.0010,-0.3000,-100.0000,-0.0010,17.1444,46.4966,0.0200,0.0000
0.2799,20.0721,-2.7516,0.4144,0.0000,0.0000,0.0000,0.0000,0.0000,0.1136,-0.1071,-0.0032,996,1502,1500,1500,1000,1000,1505,1505,1505,1372,2008,1112,1014,12.2595,1.9254,0.7492,-0.0824,0.3426,0.9712,0.2175,-0.0033,-0.2240,0.0097,0.5232,0.5140,0.1092,0.5232,0.5140,0.1092,0.3000,0.0600,0.0002,0,-0.3000,-100.0000,-0.0010,-0.3000,-100.0000,-0.0010,17.1829,46.5354,0.0200,0.0000
0.4496,20.0595,-2.7300,0.4144,0.0000,0.0000,0.0000,0.0000,0.0000,0.1130,-0.1065,-0.0031,996,1502,1500,1500,1000,1000,1505,1505,1505,1372,2008,1112,1014,12.0286,1.4233,0.6716,-0.0439,0.3293,0.9159,0.2164,-0.0034,-0.2225,0.0095,0.5232,0.5140,0.1092,0.5232,0.5140,0.1092,0.3000,0.0600,0.0002,0,-0.3000,-100.0000,-0.0010,-0.3000,-100.0000,-0.0010,17.2213,46.5742,0.0200,0.0000
0.6187,20.0450,-2.7103,0.3315,0.0000,0.0000,0.0000,0.0000,0.0000,0.1116,-0.1062,-0.0022,996,1502,1500,1500,1000,1000,1505,1505,1505,1372,2008,1112,1014,12.4198,1.2372,0.4182,-0.0807,0.3374,0.9644,0.2156,-0.0032,-0.2201,0.0076,0.5232,0.5140,0.1092,0.5232,0.5140,0.1092,0.3000,0.0600,0.0002,0,-0.3000,-100.0000,-0.0010,-0.3000,-100.0000,-0.0010,17.2598,46.6130,0.0200,0.0000
0.7885,20.0241,-2.6934,0.3315,-0.0821,0.0000,0.0000,0.0000,0.0000,0.1111,-0.1054,-0.0016,996,1502,1500,1500,1000,1000,1505,1505,1505,1372,2008,1112,1014,12.1001,0.6151,0.2109,-0.0480,0.3317,0.9109,0.2149,-0.0040,-0.2181,0.0072,0.5232,0.5140,0.1092,0.5232,0.5140,0.1092,0.3000,0.0600,0.0002,0,-0.3000,-100.0000,-0.0010,-0.3000,-100.0000,-0.0010,17.2983,46.6517,0.0200,0.0000
0.9527,20.0028,-2.6797,0.4144,0.0821,0.0000,0.0000,0.0000,0.0000,0.1103,-0.1058,-0.0015,996,1502,1500,1500,1000,1000,1505,1505,1505,1372,2008,1112,1014,11.9476,1.0224,-0.1543,-0.0651,0.3325,0.9576,0.2146,-0.0031,-0.2176,0.0060,0.5232,0.5140,0.1092,0.5232,0.5140,0.1092,0.3000,0.0600,0.0002,0,-0.3000,-100.0000,-0.0010,-0.3000,-100.0000,-0.0010,17.3368,46.6905,0.0300,0.0000
1.1139,19.9808,-2.6691,0.4144,0.0000,0.0000,0.0000,0.0000,0.0000,0.1101,-0.1052,-0.0003,996,1502,1500,1500,1000,1000,1505,1505,1505,1372,2008,1112,1014,11.3207,0.6503,-0.2720,-0.0488,0.3470,0.9207,0.2151,-0.0046,-0.2156,0.0051,0.5232,0.5140,0.1092,0.5232,0.5140,0.1092,0.3000,0.0600,0.0002,0,-0.3000,-100.0000,-0.0010,-0.3000,-100.0000,-0.0010,17.3753,46.7292,0.0200,0.0000
1.2668,19.9612,-2.6595,0.4972,0.0000,0.0000,0.0000,0.0000,0.0000,0.1097,-0.1060,0.0004,996,1502,1500,1500,1000,1000,1505,1505,1505,1372,2008,1112,1014,10.8898,1.4180,-0.4674,-0.0615,0.3374,0.9465,0.2161,-0.0042,-0.2153,0.0033,0.5232,0.5140,0.1092,0.5232,0.5140,0.1092,0.3000,0.0600,0.0002,0,-0.3000,-100.0000,-0.0010,-0.3000,-100.0000,-0.0010,17.4139,46.7680,0.0200,0.0000
1.4162,19.9452,-2.6522,0.5801,0.0000,0.0000,0.0000,0.0000,0.0000,0.1094,-0.1054,0.0007,996,1502,1500,1500,1000,1000,1505,1505,1505,1372,2008,1112,1014,10.3902,0.9739,-0.6007,-0.0655,0.3586,0.9370,0.2156,-0.0047,-0.2141,0.0032,0.5232,0.5140,0.1092,0.5232,0.5140,0.1092,0.3000,0.0600,0.0002,0,-0.3000,-100.0000,-0.0010,-0.3000,-100.0000,-0.0010,17.4524,46.8068,0.0200,0.0000
1.5588,19.9283,-2.6443,0.6630,0.0000,0.0000,0.0000,0.0000,0.0000,0.1090,-0.1059,0.0006,996,1502,1500,1500,1000,1000,1505,1505,1505,1372,2008,1112,1014,10.0463,1.4645,-0.5328,-0.0621,0.3429,0.9345,0.2155,-0.0037,-0.2142,0.0024,0.5232,0.5140,0.1092,0.5232,0.5140,0.1092,0.3000,0.0600,0.0002,0,-0.3000,-100.0000,-0.0010,-0.3000,-100.0000,-0.0010,17.4909,46.8455,0.0200,0.0000
1.7010,19.9149,-2.6358,0.7459,0.0000,0.0000,0.0000,0.0000,0.0000,0.1085,-0.1056,0.0001,996,1502,1500,1500,1000,1000,1505,1505,1505,1372,2008,1112,1014,9.7041,1.2548,-0.3803,-0.0728,0.3674,0.9426,0.2141,-0.0030,-0.2140,0.0029,0.5232,0.5140,0.1092,0.5232,0.5140,0.1092,0.3000,0.0600,0.0002,0,-0.3000,-100.0000,-0.0010,-0.3000,-100.0000,-0.0010,17.5295,46.8841,0.0200,0.0000
1.8388,19.8975,-2.6239,0.8287,0.0000,0.0000,0.0000,0.0000,0.0000,0.1080,-0.1056,-0.0023,996,1502,1500,1500,1000,1000,1505,1505,1505,1372,2008,1112,1014,9.4451,1.3544,0.0712,-0.0637,0.3337,0.9162,0.2113,-0.0001,-0.2158,0.0047,0.5232,0.5140,0.1092,0.5232,0.5140,0.1092,0.3000,0.0600,0.0002,0,-0.3000,-100.0000,-0.0010,-0.3000,-100.0000,-0.0010,17.5680,46.9228,0.0300,0.0000
1.9768,19.8816,-2.6087,0.9116,0.0000,0.0000,0.0000,0.0000,0.0000,0.1074,-0.1053,-0.0018,996,1502,1500,1500,1000,1000,1505,1505,1505,1372,2008,1112,1014,9.2382,1.1765,0.2413,-0.0808,0.3622,0.9406,0.2109,-0.0003,-0.2145,0.0038,0.5232,0.5140,0.1092,0.5232,0.5140,0.1092,0.3000,0.0600,0.0002,0,-0.3000,-100.0000,-0.0010,-0.3000,-100.0000,-0.0010,17.6066,46.9614,0.0200,0.0000
2.1110,19.8614,-2.5894,0.9945,0.0000,0.0000,0.0000,0.0000,0.0000,0.1073,-0.1049,-0.0033,996,1502,1500,1500,1000,1000,1505,1505,1505,1372,2008,1112,1014,8.5874,0.9447,0.7490,-0.0471,0.3364,0.9170,0.2089,0.0010,-0.2155,0.0056,0.5232,0.5140,0.1092,0.5232,0.5140,0.1092,0.3000,0.0600,0.0002,0,-0.3000,-100.0000,-0.0010,-0.3000,-100.0000,-0.0010,17.6452,47.0000,0.0200,0.0000
2.2426,19.8428,-2.5668,0.9116,0.0000,0.0000,0.0000,0.0000,0.0000,0.1066,-0.1051,-0.0036,996,1502,1500,1500,1000,1000,1505,1505,1505,1372,2008,1112,1014,8.4867,1.1992,0.8371,-0.0721,0.3585,0.9549,0.2081,0.0022,-0.2153,0.0050,0.5232,0.5140,0.1092,0.5232,0.5140,0.1092,0.3000,0.0600,0.0002,0,-0.3000,-100.0000,-0.0010,-0.3000,-100.0000,-0.0010,17.6837,47.0386,0.0200,0.0000
2.3716,19.8223,-2.5433,0.9945,0.0000,0.0000,0.0000,0.0000,0.0000,0.1064,-0.1045,-0.0040,996,1502,1500,1500,1000,1000,1505,1505,1505,1372,2008,1112,1014,7.8687,0.7147,0.9937,-0.0580,0.3519,0.9210,0.2069,0.0021,-0.2149,0.0060,0.5232,0.5140,0.1092,0.5232,0.5140,0.1092,0.3000,0.0600,0.0002,0,-0.3000,-100.0000,-0.0010,-0.3000,-100.0000,-0.0010,17.7223,47.0773,0.0200,0.0000
2.4960,19.8012,-2.5185,0.9116,0.0000,0.0000,0.0000,0.0000,0.0000,0.1057,-0.1049,-0.0039,996,1502,1500,1500,1000,1000,1505,1505,1505,1372,2008,1112,1014,7.8242,1.1572,0.9719,-0.0656,0.3564,0.9407,0.2066,0.0031,-0.2145,0.0048,0.5232,0.5140,0.1092,0.5232,0.5140,0.1092,0.3000,0.0600,0.0002,0,-0.3000,-100.0000,-0.0010,-0.3000,-100.0000,-0.0010,17.7609,47.1159,0.0200,0.0000
2.6195,19.7803,-2.4950,1.0773,0.0821,0.0000,0.0000,0.0000,0.0000,0.1053,-0.1040,-0.0045,996,1502,1500,1500,1000,1000,1505,1505,1505,1372,2008,1112,1014,7.4991,0.4770,0.8528,-0.0703,0.3658,0.9287,0.2047,0.0033,-0.2138,0.0058,0.5232,0.5140,0.1092,0.5232,0.5140,0.1092,0.3000,0.0600,0.0002,0,-0.3000,-100.0000,-0.0010,-0.3000,-100.0000,-0.0010,17.7995,47.1545,0.0300,0.0000
2.7388,19.7555,-2.4716,1.0773,-0.0821,0.0000,0.0000,0.0000,0.0000,0.1047,-0.1043,-0.0035,996,1502,1500,1500,1000,1000,1505,1505,1505,1372,2008,1112,1014,7.2873,0.8242,0.8301,-0.0580,0.3562,0.9240,0.2055,0.0030,-0.2125,0.0039,0.5232,0.5140,0.1092,0.5232,0.5140,0.1092,0.3000,0.0600,0.0002,0,-0.3000,-100.0000,-0.0010,-0.3000,-100.0000,-0.0010,17.8381,47.1931,0.0200,0.0000
2.8551,19.7343,-2.4502,1.0773,-0.0821,0.0000,0.0000,0.0000,0.0000,0.1045,-0.1039,-0.0028,996,1502,1500,1500,1000,1000,1505,1505,1505,1372,2008,1112,1014,6.8439,0.5998,0.5948,-0.0735,0.3709,0.9355,0.2055,0.0023,-0.2112,0.0034,0.5232,0.5140,0.1092,0.5232,0.5140,0.1092,0.3000,0.0600,0.0002,0,-0.3000,-100.0000,-0.0010,-0.3000,-100.0000,-0.0010,17.8767,47.2316,0.0200,0.0000
2.9651,19.7088,-2.4302,1.1602,-0.0821,0.0000,0.0000,0.0000,0.0000,0.1042,-0.1038,-0.0029,996,1502,1500,1500,1000,1000,1505,1505,1505,1372,2008,1112,1014,6.4535,0.6079,0.6228,-0.0542,0.3454,0.9120,0.2051,0.0025,-0.2108,0.0033,0.5232,0.5140,0.1092,0.5232,0.5140,0.1092,0.3000,0.0600,0.0002,0,-0.3000,-100.0000,-0.0010,-0.3000,-100.0000,-0.0010,17.9154,47.2702,0.0200,0.0000
3.0721,19.6859,-2.4116,1.1602,0.0000,0.0000,0.0000,0.0000,0.0000,0.1036,-0.1037,-0.0021,996,1502,1500,1500,1000,1000,1505,1505,1505,1372,2008,1112,1014,6.2598,0.6470,0.3672,-0.0824,0.3702,0.9531,0.2052,0.0022,-0.2095,0.0021,0.5232,0.5140,0.1092,0.5232,0.5140,0.1092,0.3000,0.0600,0.0002,0,-0.3000,-100.0000,-0.0010,-0.3000,-100.0000,-0.0010,17.9540,47.3087,0.0200,0.0000
3.1759,19.6601,-2.3936,1.0773,0.0000,0.0000,0.0000,0.0000,0.0000,0.1034,-0.1032,-0.0026,996,1502,1500,1500,1000,1000,1505,1505,1505,1372,2008,1112,1014,5.8532,0.3207,0.5151,-0.0552,0.3602,0.9148,0.2040,0.0025,-0.2092,0.0028,0.5232,0.5140,0.1092,0.5232,0.5140,0.1092,0.3000,0.0600,0.0002,0,-0.3000,-100.0000,-0.0010,-0.3000,-100.0000,-0.0010,17.9927,47.3473,0.0200,0.0000
3.2779,19.6347,-2.3744,1.0773,0.0821,0.0000,0.0000,0.0000,0.0000,0.1027,-0.1036,-0.0036,996,1502,1500,1500,1000,1000,1505,1505,1505,1372,2008,1112,1014,5.7853,0.7616,0.5167,-0.0636,0.3664,0.9390,0.2027,0.0044,-0.2099,0.0028,0.5232,0.5140,0.1092,0.5232,0.5140,0.1092,0.3000,0.0600,0.0002,0,-0.3000,-100.0000,-0.0010,-0.3000,-100.0000,-0.0010,18.0313,47.3859,0.0300,0.0000
3.3800,19.6096,-2.3543,1.1602,0.0000,0.0000,0.0000,0.0000,0.0000,0.1022,-0.1028,-0.0034,996,1502,1500,1500,1000,1000,1505,1505,1505,1372,2008,1112,1014,5.6603,0.1719,0.7675,-0.0632,0.3679,0.9269,0.2015,0.0041,-0.2084,0.0028,0.5232,0.5140,0.1092,0.5232,0.5140,0.1092,0.3000,0.0600,0.0002,0,-0.3000,-100.0000,-0.0010,-0.3000,-100.0000,-0.0010,18.0700,47.4245,0.0200,0.0000
3.4791,19.5822,-2.3304,1.0773,-0.0821,0.0000,0.0000,0.0000,0.0000,0.1018,-0.1032,-0.0045,996,1502,1500,1500,1000,1000,1505,1505,1505,1372,2008,1112,1014,5.3526,0.6818,1.1316,-0.0557,0.3594,0.9217,0.2005,0.0059,-0.2095,0.0031,0.5232,0.5140,0.1092,0.5232,0.5140,0.1092,0.3000,0.0600,0.0002,0,-0.3000,-100.0000,-0.0010,-0.3000,-100.0000,-0.0010,18.1088,47.4630,0.0200,0.0000
3.5777,19.5594,-2.3029,1.1602,0.0000,0.0000,0.0000,0.0000,0.0000,0.1014,-0.1030,-0.0055,996,1502,1500,1500,1000,1000,1505,1505,1505,1372,2008,1112,1014,5.1101,0.5779,1.4259,-0.0786,0.3720,0.9309,0.1989,0.0071,-0.2098,0.0038,0.5232,0.5140,0.1092,0.5232,0.5140,0.1092,0.3000,0.0600,0.0002,0,-0.3000,-100.0000,-0.0010,-0.3000,-100.0000,-0.0010,18.1475,47.5016,0.0200,0.0000
3.6751,19.5317,-2.2700,1.0773,0.0000,0.0000,0.0000,0.0000,0.0000,0.1009,-0.1027,-0.0075,996,1502,1500,1500,1000,1000,1505,1505,1505,1372,2008,1112,1014,4.8933,0.4727,2.1115,-0.0529,0.3515,0.9130,0.1961,0.0093,-0.2111,0.0057,0.5232,0.5140,0.1092,0.5232,0.5140,0.1092,0.3000,0.0600,0.0002,0,-0.3000,-100.0000,-0.0010,-0.3000,-100.0000,-0.0010,18.1862,47.5402,0.0200,0.0000
3.7722,19.5055,-2.2307,1.2431,0.0000,0.0000,0.0000,0.0000,0.0000,0.1002,-0.1028,-0.0089,996,1502,1500,1500,1000,1000,1505,1505,1505,1372,2008,1112,1014,4.8634,0.6642,2.5662,-0.0724,0.3641,0.9361,0.1941,0.0115,-0.2119,0.0063,0.5232,0.5140,0.1092,0.5232,0.5140,0.1092,0.3000,0.0600,0.0002,0,-0.3000,-100.0000,-0.0010,-0.3000,-100.0000,-0.0010,18.2249,47.5787,0.0200,0.0000
3.8733,19.4767,-2.1863,1.2431,0.0000,0.0000,0.0000,0.0000,0.0000,0.0995,-0.1020,-0.0113,996,1502,1500,1500,1000,1000,1505,1505,1505,1372,2008,1112,1014,4.8127,0.0576,3.0338,-0.0599,0.3760,0.9177,0.1902,0.0137,-0.2128,0.0089,0.5232,0.5140,0.1092,0.5232,0.5140,0.1092,0.3000,0.0600,0.0002,0,-0.3000,-100.0000,-0.0010,-0.3000,-100.0000,-0.0010,18.2637,47.6173,0.0300,0.0000
3.9740,19.4469,-2.1381,1.1602,-0.0821,0.0000,0.0000,0.0000,0.0000,0.0988,-0.1024,-0.0107,996,1502,1500,1500,1000,1000,1505,1505,1505,1372,2008,1112,1014,4.8381,0.5649,3.1853,-0.0562,0.3562,0.9319,0.1904,0.0143,-0.2118,0.0071,0.5232,0.5140,0.1092,0.5232,0.5140,0.1092,0.3000,0.0600,0.0002,0,-0.3000,-100.0000,-0.0010,-0.3000,-100.0000,-0.0010,18.3024,47.6558,0.0200,0.0000
4.0758,19.4201,-2.0910,1.1602,-0.0821,0.0000,0.0000,0.0000,0.0000,0.0979,-0.1020,-0.0099,996,1502,1500,1500,1000,1000,1505,1505,1505,1372,2008,1112,1014,4.9694,0.3456,2.9313,-0.0702,0.3847,0.9232,0.1899,0.0140,-0.2098,0.0058,0.5232,0.5140,0.1092,0.5232,0.5140,0.1092,0.3000,0.0600,0.0002,0,-0.3000,-100.0000,-0.0010,-0.3000,-100.0000,-0.0010,18.3412,47.6943,0.0200,0.0000
4.1767,19.3920,-2.0460,1.2431,0.0000,0.0000,0.0000,0.0000,0.0000,0.0972,-0.1022,-0.0094,996,1502,1500,1500,1000,1000,1505,1505,1505,1372,2008,1112,1014,4.9272,0.7140,2.7508,-0.0576,0.3612,0.9213,0.1900,0.0145,-0.2088,0.0043,0.5232,0.5140,0.1092,0.5232,0.5140,0.1092,0.3000,0.0600,0.0002,0,-0.3000,-100.0000,-0.0010,-0.3000,-100.0000,-0.0010,18.3800,47.7328,0.0200,0.0000
4.2764,19.3689,-2.0054,1.1602,-0.0821,0.0000,0.0000,0.0000,0.0000,0.0962,-0.1025,-0.0075,996,1502,1500,1500,1000,1000,1505,1505,1505,1372,2008,1112,1014,5.1051,1.0320,2.1208,-0.0714,0.3742,0.9333,0.1912,0.0137,-0.2062,0.0012,0.5232,0.5140,0.1092,0.5232,0.5140,0.1092,0.3000,0.0600,0.0002,0,-0.3000,-100.0000,-0.0010,-0.3000,-100.0000,-0.0010,18.4187,47.7713,0.0200,0.0000
4.3752,19.3463,-1.9708,1.3260,-0.0821,0.0000,0.0000,0.0000,0.0000,0.0959,-0.1021,-0.0064,996,1502,1500,1500,1000,1000,1505,1505,1505,1372,2008,1112,1014,4.7485,0.7823,1.7386,-0.0563,0.3746,0.9084,0.1916,0.0126,-0.2043,0.0002,0.5232,0.5140,0.1092,0.5232,0.5140,0.1092,0.3000,0.0600,0.0002,0,-0.3000,-100.0000,-0.0010,-0.3000,-100.0000,-0.0010,18.4575,47.8097,0.0200,0.0000
4.4690,19.3241,-1.9394,1.2431,0.0000,0.0000,0.0000,0.0000,0.0000,0.0950,-0.1025,-0.0065,996,1502,1500,1500,1000,1000,1505,1505,1505,1372,2008,1112,1014,4.8280,1.2720,1.4597,-0.0553,0.3629,0.9262,0.1910,0.0140,-0.2040,-0.0009,0.5232,0.5140,0.1092,0.5232,0.5140,0.1092,0.3000,0.0600,0.0002,0,-0.3000,-100.0000,-0.0010,-0.3000,-100.0000,-0.0010,18.4963,47.8482,0.0300,0.0000
4.5625,19.3053,-1.9120,1.2431,0.0000,0.0000,0.0000,0.0000,0.0000,0.0946,-0.1020,-0.0045,996,1502,1500,1500,1000,1000,1505,1505,1505,1372,2008,1112,1014,4.6010,0.9392,1.0775,-0.0719,0.3799,0.9262,0.1921,0.0119,-0.2010,-0.0030,0.5232,0.5140,0.1092,0.5232,0.5140,0.1092,0.3000,0.0600,0.0002,0,-0.3000,-100.0000,-0.0010,-0.3000,-100.0000,-0.0010,18.5350,47.8866,0.0200,0.0000
4.6518,19.2831,-1.8865,1.3260,0.0000,0.0000,0.0000,0.0000,0.0000,0.0941,-0.1020,-0.0043,996,1502,1500,1500,1000,1000,1505,1505,1505,1372,2008,1112,1014,4.3410,1.0079,1.0395,-0.0633,0.3653,0.9160,0.1918,0.0122,-0.2004,-0.0035,0.5232,0.5140,0.1092,0.5232,0.5140,0.1092,0.3000,0.0600,0.0002,0,-0.3000,-100.0000,-0.0010,-0.3000,-100.0000,-0.0010,18.5738,47.9250,0.0200,0.0000
4.7388,19.2632,-1.8639,1.3260,-0.1642,0.0000,0.0000,0.0000,0.0000,0.0934,-0.1021,-0.0029,996,1502,1500,1500,1000,1000,1505,1505,1505,1372,2008,1112,1014,4.3500,1.1675,0.5623,-0.0730,0.3818,0.9302,0.1926,0.0115,-0.1983,-0.0058,0.5232,0.5140,0.1092,0.5232,0.5140,0.1092,0.3000,0.0600,0.0002,0,-0.3000,-100.0000,-0.0010,-0.3000,-100.0000,-0.0010,18.6127,47.9635,0.0200,0.0000
4.8224,19.2413,-1.8455,1.3260,0.0000,0.0000,0.0000,0.0000,0.0000,0.0934,-0.1013,-0.0025,996,1502,1500,1500,1000,1000,1505,1505,1505,1372,2008,1112,1014,3.7543,0.6051,0.3990,-0.0575,0.3820,0.9173,0.1922,0.0104,-0.1972,-0.0055,0.5232,0.5140,0.1092,0.5232,0.5140,0.1092,0.3000,0.0600,0.0002,0,-0.3000,-100.0000,-0.0010,-0.3000,-100.0000,-0.0010,18.6516,48.0020,0.0200,0.0000
4.9003,19.2181,-1.8288,1.3260,0.0000,0.0000,0.0000,0.0000,0.0000,0.0929,-0.1016,-0.0017,996,1502,1500,1500,1000,1000,1505,1505,1505,1372,2008,1112,1014,3.5911,0.9788,0.1714,-0.0561,0.3677,0.9186,0.1928,0.0104,-0.1962,-0.0070,0.5232,0.5140,0.1092,0.5232,0.5140,0.1092,0.3000,0.0600,0.0002,0,-0.3000,-100.0000,-0.0010,-0.3000,-100.0000,-0.0010,18.6904,48.0405,0.0200,0.0000
4.9742,19.1988,-1.8156,1.3260,0.0000,0.0000,0.0000,0.0000,0.0000,0.0929,-0.1013,-0.0017,996,1502,1500,1500,1000,1000,1505,1505,1505,1372,2008,1112,1014,2.9512,0.7536,-0.1717,-0.0786,0.3962,0.9288,0.1925,0.0100,-0.1959,-0.0067,0.5232,0.5140,0.1092,0.5232,0.5140,0.1092,0.3000,0.0600,0.0002,0,-0.3000,-100.0000,-0.0010,-0.3000,-100.0000,-0.0010,18.7292,48.0789,0.0300,0.0000
5.0401,19.1751,-1.8036,1.4917,0.0000,0.0000,0.0000,0.0000,0.0000,0.0929,-0.1011,-0.0011,996,1502,1500,1500,1000,1000,1505,1505,1505,1372,2008,1112,1014,2.4259,0.7484,-0.0489,-0.0599,0.3717,0.9123,0.1929,0.0094,-0.1951,-0.0072,0.5232,0.5140,0.1092,0.5232,0.5140,0.1092,0.3000,0.0600,0.0002,0,-0.3000,-100.0000,-0.0010,-0.3000,-100.0000,-0.0010,18.7681,48.1172,0.0200,0.0000
5.1016,19.1534,-1.7912,1.3260,-0.0821,0.0000,0.0000,0.0000,0.0000,0.0928,-0.1013,-0.0007,996,1502,1500,1500,1000,1000,1505,1505,1505,1372,2008,1112,1014,1.9851,1.0355,-0.1592,-0.0619,0.3843,0.9276,0.1934,0.0093,-0.1948,-0.0078,0.5232,0.5140,0.1092,0.5232,0.5140,0.1092,0.3000,0.0600,0.0002,0,-0.3000,-100.0000,-0.0010,-0.3000,-100.0000,-0.0010,18.8069,48.1556,0.0200,0.0000
5.1576,19.1310,-1.7794,1.3260,0.0000,0.0000,0.0000,0.0000,0.0000,0.0930,-0.1006,-0.0009,996,1502,1500,1500,1000,1000,1505,1505,1505,1372,2008,1112,1014,1.2490,0.4999,-0.1275,-0.0638,0.3867,0.9304,0.1927,0.0085,-0.1945,-0.0067,0.5232,0.5140,0.1092,0.5232,0.5140,0.1092,0.3000,0.0600,0.0002,0,-0.3000,-100.0000,-0.0010,-0.3000,-100.0000,-0.0010,18.8458,48.1939,0.0200,0.0000
5.2062,19.1062,-1.7666,1.4088,0.0821,0.0000,0.0000,0.0000,0.0000,0.0930,-0.1006,-0.0013,996,1502,1500,1500,1000,1000,1505,1505,1505,1372,2008,1112,1014,0.7630,0.5786,0.0152,-0.0601,0.3824,0.9184,0.1923,0.0089,-0.1949,-0.0063,0.5232,0.5140,0.1092,0.5232,0.5140,0.1092,0.3000,0.0600,0.0002,0,-0.3000,-100.0000,-0.0010,-0.3000,-100.0000,-0.0010,18.8847,48.2323,0.0200,0.0000
5.2497,19.0829,-1.7546,1.3260,0.0000,0.0000,0.0000,0.0000,0.0000,0.0931,-0.1004,-0.0004,996,1502,1500,1500,1000,1000,1505,1505,1505,1372,2008,1112,1014,0.1784,0.5493,-0.2683,-0.0833,0.3934,0.9299,0.1932,0.0077,-0.1940,-0.0069,0.5232,0.5140,0.1092,0.5232,0.5140,0.1092,0.3000,0.0600,0.0002,0,-0.3000,-100.0000,-0.0010,-0.3000,-100.0000,-0.0010,18.9236,48.2706,0.0200,0.0000
5.2855,19.0563,-1.7447,1.5746,-0.0821,0.0000,0.0000,0.0000,0.0000,0.0933,-0.0998,-0.0015,996,1502,1500,1500,1000,1000,1505,1505,1505,1372,2008,1112,1014,-0.4411,0.1109,-0.2551,-0.0633,0.3753,0.9100,0.1917,0.0080,-0.1946,-0.0050,0.5232,0.5140,0.1092,0.5232,0.5140,0.1092,0.3000,0.0600,0.0002,0,-0.3000,-100.0000,-0.0010,-0.3000,-100.0000,-0.0010,18.9625,48.3090,0.0300,0.0000
5.3167,19.0253,-1.7344,1.4088,0.0000,0.0000,0.0000,0.0000,0.0000,0.0932,-0.0996,-0.0005,996,1502,1500,1500,1000,1000,1505,1505,1505,1372,2008,1112,1014,-0.7417,0.0343,-0.2186,-0.0616,0.3730,0.9201,0.1923,0.0069,-0.1933,-0.0058,0.5232,0.5140,0.1092,0.5232,0.5140,0.1092,0.3000,0.0600,0.0002,0,-0.3000,-100.0000,-0.0010,-0.3000,-100.0000,-0.0010,19.0014,48.3473,0.0200,0.0000
5.3442,18.9940,-1.7252,1.3260,0.0000,0.0000,0.0000,0.0000,0.0000,0.0933,-0.0990,-0.0004,996,1502,1500,1500,1000,1000,1505,1505,1505,1372,2008,1112,1014,-1.2307,-0.3834,-0.2728,-0.0748,0.3870,0.9200,0.1918,0.0061,-0.1927,-0.0052,0.5232,0.5140,0.1092,0.5232,0.5140,0.1092,0.3000,0.0600,0.0002,0,-0.3000,-100.0000,-0.0010,-0.3000,-100.0000,-0.0010,19.0403,48.3856,0.0200,0.0000
5.3693,18.9571,-1.7134,1.4088,-0.0821,0.0000,0.0000,0.0000,0.0000,0.0928,-0.0984,-0.0019,996,1502,1500,1500,1000,1000,1505,1505,1505,1372,2008,1112,1014,-1.1925,-0.7275,0.1934,-0.0624,0.3744,0.9131,0.1893,0.0074,-0.1931,-0.0037,0.5232,0.5140,0.1092,0.5232,0.5140,0.1092,0.3000,0.0600,0.0002,0,-0.3000,-100.0000,-0.0010,-0.3000,-100.0000,-0.0010,19.0793,48.4239,0.0200,0.0000
5.3952,18.9197,-1.6989,1.4088,0.0000,0.0000,0.0000,0.0000,0.0000,0.0925,-0.0985,-0.0020,996,1502,1500,1500,1000,1000,1505,1505,1505,1372,2008,1112,1014,-1.2532,-0.4454,0.2359,-0.0671,0.3803,0.9301,0.1890,0.0080,-0.1929,-0.0041,0.5232,0.5140,0.1092,0.5232,0.5140,0.1092,0.3000,0.0600,0.0002,0,-0.3000,-100.0000,-0.0010,-0.3000,-100.0000,-0.0010,19.1182,48.4622,0.0200,0.0000
5.4219,18.8822,-1.6839,1.4088,0.0000,0.0000,0.0000,0.0000,0.0000,0.0920,-0.0979,-0.0026,996,1502,1500,1500,1000,1000,1505,1505,1505,1372,2008,1112,1014,-1.1672,-0.7953,0.4317,-0.0739,0.3776,0.9264,0.1873,0.0086,-0.1925,-0.0033,0.5232,0.5140,0.1092,0.5232,0.5140,0.1092,0.3000,0.0600,0.0002,0,-0.3000,-100.0000,-0.0010,-0.3000,-100.0000,-0.0010,19.1572,48.5005,0.0200,0.0000
5.4504,18.8420,-1.6659,1.4088,-0.0821,0.0000,0.0000,0.0000,0.0000,0.0913,-0.0979,-0.0042,996,1502,1500,1500,1000,1000,1505,1505,1505,1372,2008,1112,1014,-0.9251,-0.6423,0.6819,-0.0516,0.3634,0.9171,0.1849,0.0109,-0.1934,-0.0024,0.5232,0.5140,0.1092,0.5232,0.5140,0.1092,0.3000,0.0600,0.0002,0,-0.3000,-100.0000,-0.0010,-0.3000,-100.0000,-0.0010,19.1962,48.5388,0.0300,0.0000
5.4826,18.8059,-1.6472,1.4088,0.0821,0.0000,0.0000,0.0000,0.0000,0.0904,-0.0980,-0.0030,996,1502,1500,1500,1000,1000,1505,1505,1505,1372,2008,1112,1014,-0.5895,-0.3521,0.6111,-0.0756,0.3736,0.9306,0.1854,0.0106,-0.1915,-0.0045,0.5232,0.5140,0.1092,0.5232,0.5140,0.1092,0.3000,0.0600,0.0002,0,-0.3000,-100.0000,-0.0010,-0.3000,-100.0000,-0.0010,19.2352,48.5772,0.0200,0.0000
5.5178,18.7691,-1.6272,1.4917,-0.0821,0.0000,0.0000,0.0000,0.0000,0.0898,-0.0976,-0.0040,996,1502,1500,1500,1000,1000,1505,1505,1505,1372,2008,1112,1014,-0.4734,-0.5538,0.9009,-0.0608,0.3712,0.9160,0.1834,0.0118,-0.1914,-0.0038,0.5232,0.5140,0.1092,0.5232,0.5140,0.1092,0.3000,0.0600,0.0002,0,-0.3000,-100.0000,-0.0010,-0.3000,-100.0000,-0.0010,19.2742,48.6155,0.0200,0.0000
5.5550,18.7331,-1.6056,1.4088,0.0000,0.0000,0.0000,0.0000,0.0000,0.0888,-0.0981,-0.0039,996,1502,1500,1500,1000,1000,1505,1505,1505,1372,2008,1112,1014,0.0116,0.0807,0.8745,-0.0560,0.3603,0.9287,0.1830,0.0132,-0.1908,-0.0054,0.5232,0.5140,0.1092,0.5232,0.5140,0.1092,0.3000,0.0600,0.0002,0,-0.3000,-100.0000,-0.0010,-0.3000,-100.0000,-0.0010,19.3132,48.6539,0.0200,0.0000
5.5980,18.7029,-1.5839,1.4088,-0.0821,0.0000,0.0000,0.0000,0.0000,0.0881,-0.0980,-0.0037,996,1502,1500,1500,1000,1000,1505,1505,1505,1372,2008,1112,1014,0.2036,0.1028,0.8124,-0.0755,0.3814,0.9254,0.1823,0.0136,-0.1897,-0.0062,0.5232,0.5140,0.1092,0.5232,0.5140,0.1092,0.3000,0.0600,0.0002,0,-0.3000,-100.0000,-0.0010,-0.3000,-100.0000,-0.0010,19.3523,48.6922,0.0200,0.0000
5.6428,18.6706,-1.5617,1.4917,0.0000,0.0000,0.0000,0.0000,0.0000,0.0872,-0.0977,-0.0043,996,1502,1500,1500,1000,1000,1505,1505,1505,1372,2008,1112,1014,0.5355,-0.0245,1.0002,-0.0547,0.3695,0.9163,0.1806,0.0148,-0.1891,-0.0062,0.5232,0.5140,0.1092,0.5232,0.5140,0.1092,0.3000,0.0600,0.0002,0,-0.3000,-100.0000,-0.0010,-0.3000,-100.0000,-0.0010,19.3913,48.7304,0.0200,0.0000
5.6920,18.6411,-1.5381,1.4088,0.0000,0.0000,0.0000,0.0000,0.0000,0.0862,-0.0982,-0.0053,996,1502,1500,1500,1000,1000,1505,1505,1505,1372,2008,1112,1014,0.8955,0.5760,1.0032,-0.0619,0.3851,0.9211,0.1791,0.0172,-0.1896,-0.0067,0.5232,0.5140,0.1092,0.5232,0.5140,0.1092,0.3000,0.0600,0.0002,0,-0.3000,-100.0000,-0.0010,-0.3000,-100.0000,-0.0010,19.4303,48.7687,0.0300,0.0000
5.7425,18.6145,-1.5149,1.4917,0.0000,0.0000,0.0000,0.0000,0.0000,0.0858,-0.0977,-0.0040,996,1502,1500,1500,1000,1000,1505,1505,1505,1372,2008,1112,1014,0.6916,0.2545,0.9165,-0.0711,0.3724,0.9332,0.1795,0.0159,-0.1876,-0.0078,0.5232,0.5140,0.1092,0.5232,0.5140,0.1092,0.3000,0.0600,0.0002,0,-0.3000,-100.0000,-0.0010,-0.3000,-100.0000,-0.0010,19.4694,48.8069,0.0200,0.0000
5.7923,18.5851,-1.4911,1.4917,0.0821,0.0000,0.0000,0.0000,0.0000,0.0850,-0.0977,-0.0048,996,1502,1500,1500,1000,1000,1505,1505,1505,1372,2008,1112,1014,0.9244,0.4566,1.1720,-0.0509,0.3693,0.9120,0.1779,0.0175,-0.1876,-0.0079,0.5232,0.5140,0.1092,0.5232,0.5140,0.1092,0.3000,0.0600,0.0002,0,-0.3000,-100.0000,-0.0010,-0.3000,-100.0000,-0.0010,19.5084,48.8452,0.0200,0.0000
5.8427,18.5594,-1.4659,1.4917,0.0000,0.0000,0.0000,0.0000,0.0000,0.0848,-0.0979,-0.0045,996,1502,1500,1500,1000,1000,1505,1505,1505,1372,2008,1112,1014,0.6291,0.7612,1.0783,-0.0749,0.3790,0.9343,0.1782,0.0177,-0.1872,-0.0087,0.5232,0.5140,0.1092,0.5232,0.5140,0.1092,0.3000,0.0600,0.0002,0,-0.3000,-100.0000,-0.0010,-0.3000,-100.0000,-0.0010,19.5475,48.8834,0.0200,0.0000
5.8894,18.5333,-1.4411,1.4088,0.0000,0.0000,0.0000,0.0000,0.0000,0.0846,-0.0973,-0.0051,996,1502,1500,1500,1000,1000,1505,1505,1505,1372,2008,1112,1014,0.3093,0.3240,1.2315,-0.0706,0.3762,0.9133,0.1768,0.0178,-0.1869,-0.0077,0.5232,0.5140,0.1092,0.5232,0.5140,0.1092,0.3000,0.0600,0.0002,0,-0.3000,-100.0000,-0.0010,-0.3000,-100.0000,-0.0010,19.5865,48.9216,0.0200,0.0000
5.9356,18.5047,-1.4129,1.4917,0.0000,0.0000,0.0000,0.0000,0.0000,0.0841,-0.0974,-0.0058,996,1502,1500,1500,1000,1000,1505,1505,1505,1372,2008,1112,1014,0.1806,0.5550,1.5072,-0.0561,0.3785,0.9206,0.1758,0.0191,-0.1874,-0.0075,0.5232,0.5140,0.1092,0.5232,0.5140,0.1092,0.3000,0.0600,0.0002,0,-0.3000,-100.0000,-0.0010,-0.3000,-100.0000,-0.0010,19.6256,48.9598,0.0200,0.0000
5.9795,18.4792,-1.3837,1.4917,0.0000,0.0000,0.0000,0.0000,0.0000,0.0840,-0.0973,-0.0067,996,1502,1500,1500,1000,1000,1505,1505,1505,1372,2008,1112,1014,-0.2228,0.5324,1.4645,-0.0795,0.3882,0.9261,0.1746,0.0199,-0.1880,-0.0066,0.5232,0.5140,0.1092,0.5232,0.5140,0.1092,0.3000,0.0600,0.0002,0,-0.3000,-100.0000,-0.0010,-0.3000,-100.0000,-0.0010,19.6647,48.9980,0.0300,0.0000
6.0210,18.4500,-1.3549,1.4088,0.0000,0.0000,0.0000,0.0000,0.0000,0.0835,-0.0966,-0.0059,996,1502,1500,1500,1000,1000,1505,1505,1505,1372,2008,1112,1014,-0.2611,0.0786,1.5157,-0.0630,0.3861,0.9041,0.1743,0.0190,-0.1860,-0.0072,0.5232,0.5140,0.1092,0.5232,0.5140,0.1092,0.3000,0.0600,0.0002,0,-0.3000,-100.0000,-0.0010,-0.3000,-100.0000,-0.0010,19.7038,49.0362,0.0200,0.0000
6.0618,18.4184,-1.3264,1.4917,-0.0821,0.0000,0.0000,0.0000,0.0000,0.0829,-0.0965,-0.0053,996,1502,1500,1500,1000,1000,1505,1505,1505,1372,2008,1112,1014,-0.1884,0.1478,1.3603,-0.0644,0.3719,0.9314,0.1741,0.0190,-0.1848,-0.0083,0.5232,0.5140,0.1092,0.5232,0.5140,0.1092,0.3000,0.0600,0.0002,0,-0.3000,-100.0000,-0.0010,-0.3000,-100.0000,-0.0010,19.7429,49.0744,0.0200,0.0000
6.1004,18.3877,-1.3023,1.4917,0.0000,0.0000,0.0000,0.0000,0.0000,0.0827,-0.0962,-0.0037,996,1502,1500,1500,1000,1000,1505,1505,1505,1372,2008,1112,1014,-0.4597,-0.0231,0.8056,-0.0756,0.3800,0.9257,0.1752,0.0172,-0.1825,-0.0098,0.5232,0.5140,0.1092,0.5232,0.5140,0.1092,0.3000,0.0600,0.0002,0,-0.3000,-100.0000,-0.0010,-0.3000,-100.0000,-0.0010,19.7820,49.1126,0.0200,0.0000
6.1364,18.3531,-1.2840,1.4088,0.0000,0.0000,0.0000,0.0000,0.0000,0.0821,-0.0956,-0.0028,996,1502,1500,1500,1000,1000,1505,1505,1505,1372,2008,1112,1014,-0.3830,-0.3789,0.4859,-0.0555,0.3731,0.9171,0.1749,0.0163,-0.1805,-0.0108,0.5232,0.5140,0.1092,0.5232,0.5140,0.1092,0.3000,0.0600,0.0002,0,-0.3000,-100.0000,-0.0010,-0.3000,-100.0000,-0.0010,19.8212,49.1508,0.0200,0.0000
6.1704,18.3172,-1.2694,1.4917,0.0000,0.0000,0.0000,0.0000,0.0000,0.0816,-0.0956,-0.0015,996,1502,1500,1500,1000,1000,1505,1505,1505,1372,2008,1112,1014,-0.3973,-0.1986,0.0800,-0.0613,0.3690,0.9256,0.1757,0.0156,-0.1787,-0.0125,0.5232,0.5140,0.1092,0.5232,0.5140,0.1092,0.3000,0.0600,0.0002,0,-0.3000,-100.0000,-0.0010,-0.3000,-100.0000,-0.0010,19.8604,49.1890,0.0200,0.0000
6.2018,18.2844,-1.2605,1.4088,0.0000,0.0000,0.0000,0.0000,0.0000,0.0814,-0.0953,-0.0007,996,1502,1500,1500,1000,1000,1505,1505,1505,1372,2008,1112,1014,-0.6624,-0.3408,-0.5236,-0.0699,0.3783,0.9206,0.1760,0.0146,-0.1773,-0.0133,0.5232,0.5140,0.1092,0.5232,0.5140,0.1092,0.3000,0.0600,0.0002,0,-0.3000,-100.0000,-0.0010,-0.3000,-100.0000,-0.0010,19.8995,49.2272,0.0300,0.0000
6.2316,18.2488,-1.2571,1.4917,0.0000,0.0000,0.0000,0.0000,0.0000,0.0806,-0.0950,0.0012,996,1502,1500,1500,1000,1000,1505,1505,1505,1372,2008,1112,1014,-0.4109,-0.4275,-0.8258,-0.0560,0.3755,0.9150,0.1768,0.0132,-0.1744,-0.0156,0.5232,0.5140,0.1092,0.5232,0.5140,0.1092,0.3000,0.0600,0.0002,0,-0.3000,-100.0000,-0.0010,-0.3000,-100.0000,-0.0010,19.9387,49.2653,0.0200,0.0000
6.2625,18.2158,-1.2563,1.4917,-0.0821,0.0000,0.0000,0.0000,0.0000,0.0800,-0.0952,0.0023,996,1502,1500,1500,1000,1000,1505,1505,1505,1372,2008,1112,1014,-0.3014,-0.0829,-1.1830,-0.0631,0.3770,0.9246,0.1775,0.0130,-0.1729,-0.0175,0.5232,0.5140,0.1092,0.5232,0.5140,0.1092,0.3000,0.0600,0.0002,0,-0.3000,-100.0000,-0.0010,-0.3000,-100.0000,-0.0010,19.9778,49.3034,0.0200,0.0000
6.2911,18.1866,-1.2601,1.4917,-0.0821,0.0000,0.0000,0.0000,0.0000,0.0797,-0.0952,0.0036,996,1502,1500,1500,1000,1000,1505,1505,1505,1372,2008,1112,1014,-0.5012,0.0346,-1.6353,-0.0612,0.3828,0.9276,0.1785,0.0118,-0.1713,-0.0191,0.5232,0.5140,0.1092,0.5232,0.5140,0.1092,0.3000,0.0600,0.0002,0,-0.3000,-100.0000,-0.0010,-0.3000,-100.0000,-0.0010,20.0170,49.3415,0.0200,0.0000
6.3191,18.1582,-1.2664,1.4917,0.0000,0.0000,0.0000,0.0000,0.0000,0.0791,-0.0953,0.0034,996,1502,1500,1500,1000,1000,1505,1505,1505,1372,2008,1112,1014,-0.3771,0.2745,-1.5696,-0.0598,0.3772,0.9150,0.1777,0.0129,-0.1710,-0.0196,0.5232,0.5140,0.1092,0.5232,0.5140,0.1092,0.3000,0.0600,0.0002,0,-0.3000,-100.0000,-0.0010,-0.3000,-100.0000,-0.0010,20.0562,49.3796,0.0200,0.0000
6.3465,18.1344,-1.2709,1.4917,0.0000,0.0000,0.0000,0.0000,0.0000,0.0789,-0.0957,0.0034,996,1502,1500,1500,1000,1000,1505,1505,1505,1372,2008,1112,1014,-0.6765,0.7389,-1.5586,-0.0663,0.3753,0.9239,0.1780,0.0134,-0.1712,-0.0201,0.5232,0.5140,0.1092,0.5232,0.5140,0.1092,0.3000,0.0600,0.0002,0,-0.3000,-100.0000,-0.0010,-0.3000,-100.0000,-0.0010,20.0954,49.4177,0.0200,0.0000
6.3709,18.1133,-1.2753,1.4088,-0.0821,0.0000,0.0000,0.0000,0.0000,0.0787,-0.0956,0.0023,996,1502,1500,1500,1000,1000,1505,1505,1505,1372,2008,1112,1014,-0.8949,0.7669,-1.5266,-0.0679,0.3752,0.9249,0.1766,0.0146,-0.1720,-0.0192,0.5232,0.5140,0.1092,0.5232,0.5140,0.1092,0.3000,0.0600,0.0002,0,-0.3000,-100.0000,-0.0010,-0.3000,-100.0000,-0.0010,20.1347,49.4558,0.0300,0.0000
6.3950,18.0904,-1.2769,1.5746,-0.0821,0.0000,0.0000,0.0000,0.0000,0.0783,-0.0954,0.0016,996,1502,1500,1500,1000,1000,1505,1505,1505,1372,2008,1112,1014,-0.9606,0.6425,-0.9962,-0.0605,0.3740,0.9220,0.1753,0.0154,-0.1720,-0.0187,0.5232,0.5140,0.1092,0.5232,0.5140,0.1092,0.3000,0.0600,0.0002,0,-0.3000,-100.0000,-0.0010,-0.3000,-100.0000,-0.0010,20.1739,49.4939,0.0200,0.0000
6.4190,18.0676,-1.2720,1.4917,0.0000,0.0000,0.0000,0.0000,0.0000,0.0782,-0.0953,0.0002,996,1502,1500,1500,1000,1000,1505,1505,1505,1372,2008,1112,1014,-1.2772,0.7385,-0.5083,-0.0671,0.3803,0.9179,0.1737,0.0170,-0.1733,-0.0173,0.5232,0.5140,0.1092,0.5232,0.5140,0.1092,0.3000,0.0600,0.0002,0,-0.3000,-100.0000,-0.0010,-0.3000,-100.0000,-0.0010,20.2131,49.5320,0.0200,0.0000
6.4413,18.0448,-1.2631,1.4917,-0.0821,0.0000,0.0000,0.0000,0.0000,0.0780,-0.0950,-0.0007,996,1502,1500,1500,1000,1000,1505,1505,1505,1372,2008,1112,1014,-1.5849,0.5568,-0.2151,-0.0704,0.3865,0.9269,0.1724,0.0177,-0.1738,-0.0163,0.5232,0.5140,0.1092,0.5232,0.5140,0.1092,0.3000,0.0600,0.0002,0,-0.3000,-100.0000,-0.0010,-0.3000,-100.0000,-0.0010,20.2523,49.5700,0.0200,0.0000
