roll_imu,pitch_imu,yaw_imu,alpha,beta,roll_des,pitch_des,yaw_des,throttle_des,roll_pid,pitch_pid,yaw_pid,radio_ch1,radio_ch2,radio_ch3,radio_ch4,radio_ch5,radio_ch6,radio_ch7,radio_ch8,radio_ch9,radio_ch10,radio_ch11,radio_ch12,radio_ch13,GyroX,GyroY,GyroZ,AccX,AccY,AccZ,s1_command,s2_command,s3_command,s4_command,kp_roll,ki_roll,kd_roll,kp_pitch,ki_pitch,kd_pitch,kp_yaw,ki_yaw,kd_yaw,failsafeTriggered,kp_alphaRoll,ki_alphaRoll,kd_alphaRoll,kp_betaPitch,ki_betaPitch,kd_betaPitch,ripIMU_roll,ripIMU_pitch,ripRoll_des,ripPitch_des
0.0000,0.0000,0.0000,1.6575,6.1970,0.0000,0.0000,0.0000,0.0000,0.0000,0.0000,0.0000,1000,1500,1500,1500,2000,1000,1000,1000,1500,1500,1500,1500,1500,0.0000,0.0000,0.0000,0.0000,0.0000,0.0000,0.0000,0.0000,0.0000,0.0000,0.2204,0.0300,0.0438,0.2204,0.0300,0.0438,0.3000,0.0600,0.0002,0,-0.3000,-100.0000,-0.0010,-0.3000,-100.0000,-0.0010,0.0000,0.0000,0.0000,0.0000
-48.6875,15.7435,-6.9201,-0.1657,-0.0821,-8.1000,-8.1000,-43.2000,0.0000,0.0970,-0.0525,-0.1299,973,1463,1460,1460,2008,1000,1505,1000,1000,1982,1371,1699,1016,-0.1334,-0.2052,0.0511,-0.0245,-0.0612,0.4515,0.0195,0.0854,-0.2794,0.1745,0.2204,0.0300,0.0438,0.2204,0.0300,0.0438,0.3000,0.0600,0.0002,0,-2.2500,-350.0000,-0.0060,-2.2500,-350.0000,-0.0060,14.5636,48.9864,-1.3500,-1.3500
-48.2387,15.6214,-6.7648,0.0000,0.2462,-2.3400,-2.4000,-12.8000,0.0000,0.1085,-0.0394,-0.0397,971,1461,1460,1460,2008,1000,1505,1000,1000,1982,1371,1699,1016,0.3541,-0.6512,0.0461,-0.0518,-0.1292,0.9713,0.1082,-0.0294,-0.1877,0.1088,0.2204,0.0300,0.0438,0.2204,0.0300,0.0438,0.3000,0.0600,0.0002,0,-3.5514,-259.7000,-0.0080,-3.5514,-259.7000,-0.0080,14.8870,49.4644,-0.3900,-0.4000
-48.1960,15.6099,-6.7499,-0.1657,-0.0000,0.0000,-0.1800,-0.9600,0.0000,0.1135,-0.0346,0.0053,996,1500,1497,1497,2008,1000,1505,1000,1000,1982,1370,1698,1016,0.6160,-0.3753,0.0767,-0.0489,-0.1370,0.9951,0.1534,-0.0841,-0.1428,0.0736,0.2204,0.0300,0.0438,0.2204,0.0300,0.0438,0.3000,0.0600,0.0002,0,-3.5514,-259.0000,-0.0080,-3.5514,-259.0000,-0.0080,14.9276,49.5025,0.0000,-0.0300
-48.1525,15.6013,-6.7387,0.0829,0.1642,0.1200,0.0000,0.0000,0.0000,0.1136,-0.0345,-0.0012,996,1502,1500,1500,2008,1000,1505,1000,1000,1982,1371,1699,1016,0.7442,0.1778,0.0290,-0.0506,-0.1376,0.9904,0.1468,-0.0779,-0.1493,0.0803,0.2204,0.0300,0.0438,0.2204,0.0300,0.0438,0.3000,0.0600,0.0002,0,-3.5514,-259.7000,-0.0080,-3.5514,-259.7000,-0.0080,14.9689,49.5405,0.0200,0.0000
-48.1088,15.5955,-6.7318,0.0829,0.0821,0.1200,0.0000,0.0000,0.0000,0.1134,-0.0346,-0.0012,996,1502,1500,1500,2008,1000,1505,1000,1000,1982,1371,1699,1016,0.8600,0.5082,0.0108,-0.0499,-0.1338,0.9997,0.1468,-0.0777,-0.1492,0.0800,0.2204,0.0300,0.0438,0.2204,0.0300,0.0438,0.3000,0.0600,0.0002,0,-3.5514,-259.7000,-0.0080,-3.5514,-259.7000,-0.0080,15.0103,49.5785,0.0200,0.0000
-48.0641,15.5919,-6.7276,0.0829,0.3283,0.1200,0.0000,0.0000,0.0000,0.1133,-0.0347,-0.0013,996,1502,1500,1500,2008,1000,1505,1000,1000,1982,1370,1699,1016,0.9669,0.7068,0.0286,-0.0521,-0.1350,0.9951,0.1466,-0.0773,-0.1493,0.0799,0.2204,0.0300,0.0438,0.2204,0.0300,0.0438,0.3000,0.0600,0.0002,0,-3.5514,-259.0000,-0.0080,-3.5514,-259.0000,-0.0080,15.0516,49.6164,0.0200,0.0000
-48.0193,15.5891,-6.7256,0.0829,0.0821,0.1200,0.0000,0.0000,0.0000,0.1132,-0.0348,-0.0009,996,1502,1500,1500,2008,1000,1505,1000,1000,1982,1370,1699,1016,1.0154,1.0186,-0.0983,-0.0532,-0.1344,0.9927,0.1470,-0.0774,-0.1489,0.0793,0.2204,0.0300,0.0438,0.2204,0.0300,0.0438,0.3000,0.0600,0.0002,0,-3.5514,-259.0000,-0.0080,-3.5514,-259.0000,-0.0080,15.0930,49.6543,0.0200,0.0000
-47.9753,15.5872,-6.7255,0.0000,0.1642,0.1200,0.0000,0.0000,0.0000,0.1131,-0.0348,-0.0008,996,1502,1500,1500,2008,1000,1505,1000,1000,1982,1370,1699,1016,1.0085,1.0341,-0.1417,-0.0591,-0.1348,0.9965,0.1471,-0.0775,-0.1487,0.0790,0.2204,0.0300,0.0438,0.2204,0.0300,0.0438,0.3000,0.0600,0.0002,0,-3.5514,-259.0000,-0.0080,-3.5514,-259.0000,-0.0080,15.1344,49.6921,0.0200,0.0000
-47.9302,15.5855,-6.7245,0.0000,0.0821,0.2400,0.0600,0.3200,0.0000,0.1132,-0.0347,0.0009,997,1503,1500,1500,2008,1000,1505,1000,1000,1982,1371,1699,1016,1.1322,1.0124,-0.0833,-0.0537,-0.1324,0.9977,0.1488,-0.0794,-0.1469,0.0776,0.2204,0.0300,0.0438,0.2204,0.0300,0.0438,0.3000,0.0600,0.0002,0,-3.5514,-259.7000,-0.0080,-3.5514,-259.7000,-0.0080,15.1758,49.7300,0.0400,0.0100
-47.8843,15.5840,-6.7233,0.1657,0.0821,0.1200,0.0000,0.0000,0.0000,0.1128,-0.0348,-0.0013,996,1502,1500,1500,2008,1000,1505,1000,1000,1982,1371,1699,1016,1.2047,0.9885,0.0261,-0.0593,-0.1309,0.9967,0.1463,-0.0767,-0.1489,0.0793,0.2204,0.0300,0.0438,0.2204,0.0300,0.0438,0.3000,0.0600,0.0002,0,-3.5514,-259.7000,-0.0080,-3.5514,-259.7000,-0.0080,15.2172,49.7678,0.0200,0.0000
-47.8366,15.5830,-6.7208,0.0829,0.3283,0.1200,0.0000,0.0000,0.0000,0.1126,-0.0347,-0.0013,996,1502,1500,1500,2008,1000,1505,1000,1000,1982,1371,1699,1016,1.3501,0.8800,0.0561,-0.0583,-0.1319,0.9958,0.1460,-0.0765,-0.1487,0.0792,0.2204,0.0300,0.0438,0.2204,0.0300,0.0438,0.3000,0.0600,0.0002,0,-3.5514,-259.7000,-0.0080,-3.5514,-259.7000,-0.0080,15.2586,49.8057,0.0200,0.0000
-47.7872,15.5808,-6.7174,0.0000,0.1642,0.1200,0.0000,0.0000,0.0000,0.1124,-0.0347,-0.0015,996,1502,1500,1500,2008,1000,1505,1000,1000,1982,1371,1699,1016,1.5351,0.7232,0.0934,-0.0600,-0.1318,0.9903,0.1456,-0.0763,-0.1486,0.0793,0.2204,0.0300,0.0438,0.2204,0.0300,0.0438,0.3000,0.0600,0.0002,0,-3.5514,-259.7000,-0.0080,-3.5514,-259.7000,-0.0080,15.3000,49.8435,0.0200,0.0000
-47.7354,15.5777,-6.7122,0.1657,0.3283,0.1200,0.0000,0.0000,0.0000,0.1123,-0.0346,-0.0016,996,1502,1500,1500,2008,1000,1505,1000,1000,1982,1370,1699,1016,1.5963,0.5804,0.1301,-0.0553,-0.1356,0.9942,0.1453,-0.0761,-0.1485,0.0793,0.2204,0.0300,0.0438,0.2204,0.0300,0.0438,0.3000,0.0600,0.0002,0,-3.5514,-259.0000,-0.0080,-3.5514,-259.0000,-0.0080,15.3415,49.8813,0.0200,0.0000
-47.6818,15.5739,-6.7064,0.0829,0.3283,0.1200,0.0000,0.0000,0.0000,0.1120,-0.0345,-0.0012,996,1502,1500,1500,2008,1000,1505,1000,1000,1982,1370,1699,1016,1.8536,0.4447,0.0041,-0.0578,-0.1334,0.9961,0.1453,-0.0763,-0.1478,0.0788,0.2204,0.0300,0.0438,0.2204,0.0300,0.0438,0.3000,0.0600,0.0002,0,-3.5514,-259.0000,-0.0080,-3.5514,-259.0000,-0.0080,15.3829,49.9191,0.0200,0.0000
-47.6267,15.5698,-6.6991,0.0829,0.1642,0.2400,0.0600,0.3200,0.0000,0.1122,-0.0344,0.0001,997,1503,1500,1500,2008,1000,1505,1000,1000,1982,1370,1699,1016,1.9357,0.4036,0.1945,-0.0591,-0.1326,0.9953,0.1466,-0.0779,-0.1464,0.0777,0.2204,0.0300,0.0438,0.2204,0.0300,0.0438,0.3000,0.0600,0.0002,0,-3.5514,-259.0000,-0.0080,-3.5514,-259.0000,-0.0080,15.4244,49.9570,0.0400,0.0100
-47.5698,15.5645,-6.6905,0.0829,0.0821,0.1200,0.0000,0.0000,0.0000,0.1117,-0.0344,-0.0014,996,1502,1500,1500,2008,1000,1505,1000,1000,1982,1371,1699,1016,2.0851,0.1670,0.0674,-0.0579,-0.1316,0.9918,0.1446,-0.0759,-0.1475,0.0787,0.2204,0.0300,0.0438,0.2204,0.0300,0.0438,0.3000,0.0600,0.0002,0,-3.5514,-259.7000,-0.0080,-3.5514,-259.7000,-0.0080,15.4660,49.9948,0.0200,0.0000
-47.5122,15.5583,-6.6813,0.0829,0.3283,0.1200,0.0000,0.0000,0.0000,0.1116,-0.0343,-0.0018,996,1502,1500,1500,2008,1000,1505,1000,1000,1982,1371,1699,1016,2.0058,0.1317,0.1878,-0.0566,-0.1289,1.0003,0.1441,-0.0754,-0.1478,0.0791,0.2204,0.0300,0.0438,0.2204,0.0300,0.0438,0.3000,0.0600,0.0002,0,-3.5514,-259.7000,-0.0080,-3.5514,-259.7000,-0.0080,15.5075,50.0326,0.0200,0.0000
-47.4535,15.5514,-6.6710,0.1657,0.4104,0.1200,0.0000,0.0000,0.0000,0.1114,-0.0343,-0.0014,996,1502,1500,1500,2008,1000,1505,1000,1000,1982,1370,1699,1016,2.2062,-0.0233,0.0684,-0.0563,-0.1279,0.9960,0.1442,-0.0757,-0.1471,0.0786,0.2204,0.0300,0.0438,0.2204,0.0300,0.0438,0.3000,0.0600,0.0002,0,-3.5514,-259.0000,-0.0080,-3.5514,-259.0000,-0.0080,15.5490,50.0704,0.0200,0.0000
-47.3933,15.5440,-6.6599,0.0829,0.1642,0.1200,0.0000,0.0000,0.0000,0.1112,-0.0342,-0.0015,996,1502,1500,1500,2008,1000,1505,1000,1000,1982,1370,1699,1016,2.2676,-0.1444,0.1047,-0.0591,-0.1258,0.9964,0.1439,-0.0755,-0.1470,0.0786,0.2204,0.0300,0.0438,0.2204,0.0300,0.0438,0.3000,0.0600,0.0002,0,-3.5514,-259.0000,-0.0080,-3.5514,-259.0000,-0.0080,15.5906,50.1083,0.0200,0.0000
-47.3316,15.5351,-6.6467,-0.1657,0.0821,0.1200,0.0000,0.0000,0.0000,0.1111,-0.0341,-0.0018,996,1502,1500,1500,2008,1000,1505,1000,1000,1982,1371,1699,1016,2.3329,-0.3703,0.1976,-0.0600,-0.1289,0.9921,0.1433,-0.0752,-0.1470,0.0788,0.2204,0.0300,0.0438,0.2204,0.0300,0.0438,0.3000,0.0600,0.0002,0,-3.5514,-259.7000,-0.0080,-3.5514,-259.7000,-0.0080,15.6322,50.1461,0.0200,0.0000
-47.2698,15.5258,-6.6327,0.1657,0.1642,0.2400,0.0600,0.3200,0.0000,0.1112,-0.0339,0.0002,997,1503,1500,1500,2008,1000,1505,1000,1000,1982,1370,1699,1016,2.3246,-0.4713,0.1464,-0.0582,-0.1296,0.9955,0.1453,-0.0776,-0.1448,0.0771,0.2204,0.0300,0.0438,0.2204,0.0300,0.0438,0.3000,0.0600,0.0002,0,-3.5514,-259.0000,-0.0080,-3.5514,-259.0000,-0.0080,15.6738,50.1838,0.0400,0.0100
-47.2071,15.5146,-6.6161,0.0000,-0.0000,0.1200,0.0000,0.0000,0.0000,0.1108,-0.0339,-0.0018,996,1502,1500,1500,2008,1000,1505,1000,1000,1982,1370,1699,1016,2.2807,-0.7737,0.1812,-0.0600,-0.1271,0.9943,0.1429,-0.0752,-0.1464,0.0787,0.2204,0.0300,0.0438,0.2204,0.0300,0.0438,0.3000,0.0600,0.0002,0,-3.5514,-259.0000,-0.0080,-3.5514,-259.0000,-0.0080,15.7154,50.2216,0.0200,0.0000
-47.1452,15.5024,-6.5989,0.0829,0.2462,0.1200,0.0000,0.0000,0.0000,0.1107,-0.0338,-0.0019,996,1502,1500,1500,2008,1000,1505,1000,1000,1982,1370,1699,1016,2.2081,-0.8623,0.2164,-0.0563,-0.1269,0.9918,0.1426,-0.0750,-0.1464,0.0788,0.2204,0.0300,0.0438,0.2204,0.0300,0.0438,0.3000,0.0600,0.0002,0,-3.5514,-259.0000,-0.0080,-3.5514,-259.0000,-0.0080,15.7570,50.2594,0.0200,0.0000
-47.0847,15.4893,-6.5810,-0.0829,-0.0000,0.1200,0.0000,0.0000,0.0000,0.1107,-0.0337,-0.0017,996,1502,1500,1500,2008,1000,1505,1000,1000,1982,1370,1699,1016,1.9838,-0.8912,0.1453,-0.0571,-0.1216,0.9967,0.1427,-0.0753,-0.1461,0.0786,0.2204,0.0300,0.0438,0.2204,0.0300,0.0438,0.3000,0.0600,0.0002,0,-3.5514,-259.0000,-0.0080,-3.5514,-259.0000,-0.0080,15.7986,50.2971,0.0200,0.0000
-47.0265,15.4762,-6.5629,0.0829,0.1642,0.1200,0.0000,0.0000,0.0000,0.1107,-0.0337,-0.0018,996,1502,1500,1500,2008,1000,1505,1000,1000,1982,1371,1699,1016,1.7295,-0.8963,0.2005,-0.0582,-0.1229,0.9949,0.1426,-0.0751,-0.1462,0.0787,0.2204,0.0300,0.0438,0.2204,0.0300,0.0438,0.3000,0.0600,0.0002,0,-3.5514,-259.7000,-0.0080,-3.5514,-259.7000,-0.0080,15.8403,50.3349,0.0200,0.0000
-46.9719,15.4634,-6.5456,0.0000,0.2462,0.1200,0.0000,0.0000,0.0000,0.1107,-0.0337,-0.0015,996,1502,1500,1500,2008,1000,1505,1000,1000,1982,1371,1699,1016,1.4332,-0.7697,0.0880,-0.0558,-0.1212,0.9917,0.1429,-0.0754,-0.1459,0.0784,0.2204,0.0300,0.0438,0.2204,0.0300,0.0438,0.3000,0.0600,0.0002,0,-3.5514,-259.7000,-0.0080,-3.5514,-259.7000,-0.0080,15.8819,50.3726,0.0200,0.0000
-46.9198,15.4509,-6.5300,0.1657,0.4104,0.2400,0.0600,0.3200,0.0000,0.1109,-0.0337,0.0003,997,1503,1500,1500,2008,1000,1505,1000,1000,1982,1371,1699,1016,1.2971,-0.5876,0.1139,-0.0544,-0.1269,0.9960,0.1449,-0.0775,-0.1442,0.0769,0.2204,0.0300,0.0438,0.2204,0.0300,0.0438,0.3000,0.0600,0.0002,0,-3.5514,-259.7000,-0.0080,-3.5514,-259.7000,-0.0080,15.9236,50.4103,0.0400,0.0100
-46.8688,15.4397,-6.5150,0.1657,0.1642,0.1200,0.0000,0.0000,0.0000,0.1105,-0.0338,-0.0016,996,1502,1500,1500,2008,1000,1505,1000,1000,1982,1370,1699,1016,1.2243,-0.4686,0.1514,-0.0545,-0.1252,0.9934,0.1427,-0.0751,-0.1460,0.0783,0.2204,0.0300,0.0438,0.2204,0.0300,0.0438,0.3000,0.0600,0.0002,0,-3.5514,-259.0000,-0.0080,-3.5514,-259.0000,-0.0080,15.9653,50.4481,0.0200,0.0000
-46.8179,15.4296,-6.5014,0.0829,0.0821,0.1200,0.0000,0.0000,0.0000,0.1104,-0.0339,-0.0016,996,1502,1500,1500,2008,1000,1505,1000,1000,1982,1370,1699,1016,1.3501,-0.3031,0.1482,-0.0552,-0.1293,0.9973,0.1426,-0.0748,-0.1459,0.0781,0.2204,0.0300,0.0438,0.2204,0.0300,0.0438,0.3000,0.0600,0.0002,0,-3.5514,-259.0000,-0.0080,-3.5514,-259.0000,-0.0080,16.0070,50.4858,0.0200,0.0000
-46.7653,15.4203,-6.4889,0.0000,0.4104,0.1200,0.0000,0.0000,0.0000,0.1101,-0.0339,-0.0017,996,1502,1500,1500,2008,1000,1505,1000,1000,1982,1370,1699,1016,1.5795,-0.2261,0.1598,-0.0548,-0.1319,0.9955,0.1423,-0.0745,-0.1457,0.0780,0.2204,0.0300,0.0438,0.2204,0.0300,0.0438,0.3000,0.0600,0.0002,0,-3.5514,-259.0000,-0.0080,-3.5514,-259.0000,-0.0080,16.0487,50.5235,0.0200,0.0000
-46.7097,15.4111,-6.4759,0.0829,0.2462,0.1200,0.0000,0.0000,0.0000,0.1099,-0.0338,-0.0017,996,1502,1500,1500,2008,1000,1505,1000,1000,1982,1370,1699,1016,1.9001,-0.2809,0.1436,-0.0560,-0.1312,0.9956,0.1421,-0.0744,-0.1454,0.0777,0.2204,0.0300,0.0438,0.2204,0.0300,0.0438,0.3000,0.0600,0.0002,0,-3.5514,-259.0000,-0.0080,-3.5514,-259.0000,-0.0080,16.0905,50.5612,0.0200,0.0000
-46.6510,15.4022,-6.4633,0.0829,0.2462,0.1200,0.0000,0.0000,0.0000,0.1097,-0.0339,-0.0016,996,1502,1500,1500,2008,1000,1505,1000,1000,1982,1370,1699,1016,2.1097,-0.1453,0.1288,-0.0564,-0.1291,0.9994,0.1419,-0.0742,-0.1452,0.0774,0.2204,0.0300,0.0438,0.2204,0.0300,0.0438,0.3000,0.0600,0.0002,0,-3.5514,-259.0000,-0.0080,-3.5514,-259.0000,-0.0080,16.1322,50.5989,0.0200,0.0000
-46.5903,15.3932,-6.4520,0.0829,0.3283,0.2400,0.0600,0.3200,0.0000,0.1097,-0.0337,0.0006,997,1503,1500,1500,2008,1000,1505,1000,1000,1982,1370,1699,1016,2.3264,-0.1734,0.0470,-0.0562,-0.1257,0.9943,0.1440,-0.0765,-0.1429,0.0754,0.2204,0.0300,0.0438,0.2204,0.0300,0.0438,0.3000,0.0600,0.0002,0,-3.5514,-259.0000,-0.0080,-3.5514,-259.0000,-0.0080,16.1740,50.6366,0.0400,0.0100
-46.5276,15.3840,-6.4405,0.0829,0.2462,0.1200,0.0000,0.0000,0.0000,0.1092,-0.0338,-0.0013,996,1502,1500,1500,2008,1000,1505,1000,1000,1982,1370,1699,1016,2.5065,-0.2125,0.0202,-0.0559,-0.1247,0.9962,0.1417,-0.0741,-0.1443,0.0767,0.2204,0.0300,0.0438,0.2204,0.0300,0.0438,0.3000,0.0600,0.0002,0,-3.5514,-259.0000,-0.0080,-3.5514,-259.0000,-0.0080,16.2157,50.6742,0.0200,0.0000
-46.4639,15.3745,-6.4281,0.1657,0.4104,0.1200,0.0000,0.0000,0.0000,0.1091,-0.0338,-0.0015,996,1502,1500,1500,2008,1000,1505,1000,1000,1982,1370,1699,1016,2.5278,-0.3065,0.1161,-0.0572,-0.1231,0.9945,0.1413,-0.0738,-0.1443,0.0768,0.2204,0.0300,0.0438,0.2204,0.0300,0.0438,0.3000,0.0600,0.0002,0,-3.5514,-259.0000,-0.0080,-3.5514,-259.0000,-0.0080,16.2575,50.7118,0.0200,0.0000
-46.3994,15.3656,-6.4159,0.0000,0.3283,0.1200,0.0000,0.0000,0.0000,0.1089,-0.0338,-0.0018,996,1502,1500,1500,2008,1000,1505,1000,1000,1982,1370,1699,1016,2.6322,-0.1769,0.1882,-0.0545,-0.1227,0.9913,0.1409,-0.0733,-0.1445,0.0769,0.2204,0.0300,0.0438,0.2204,0.0300,0.0438,0.3000,0.0600,0.0002,0,-3.5514,-259.0000,-0.0080,-3.5514,-259.0000,-0.0080,16.2993,50.7495,0.0200,0.0000
-46.3345,15.3576,-6.4038,0.0000,0.1642,0.1200,0.0000,0.0000,0.0000,0.1087,-0.0338,-0.0018,996,1502,1500,1500,2008,1000,1505,1000,1000,1982,1371,1699,1016,2.6785,-0.1163,0.1905,-0.0548,-0.1212,0.9964,0.1407,-0.0731,-0.1443,0.0767,0.2204,0.0300,0.0438,0.2204,0.0300,0.0438,0.3000,0.0600,0.0002,0,-3.5514,-259.7000,-0.0080,-3.5514,-259.7000,-0.0080,16.3411,50.7871,0.0200,0.0000
-46.2685,15.3500,-6.3920,0.1657,0.1642,0.1200,0.0000,0.0000,0.0000,0.1085,-0.0338,-0.0020,996,1502,1500,1500,2008,1000,1505,1000,1000,1982,1371,1699,1016,2.8309,-0.0289,0.2363,-0.0559,-0.1263,0.9951,0.1404,-0.0727,-0.1443,0.0766,0.2204,0.0300,0.0438,0.2204,0.0300,0.0438,0.3000,0.0600,0.0002,0,-3.5514,-259.7000,-0.0080,-3.5514,-259.7000,-0.0080,16.3830,50.8248,0.0200,0.0000
-46.2006,15.3435,-6.3809,0.0829,0.0821,0.2400,0.0600,0.3200,0.0000,0.1085,-0.0338,-0.0000,997,1503,1500,1500,2008,1000,1505,1000,1000,1982,1370,1699,1016,3.0710,0.1559,0.2120,-0.0551,-0.1218,0.9969,0.1423,-0.0748,-0.1423,0.0748,0.2204,0.0300,0.0438,0.2204,0.0300,0.0438,0.3000,0.0600,0.0002,0,-3.5514,-259.0000,-0.0080,-3.5514,-259.0000,-0.0080,16.4248,50.8624,0.0400,0.0100
-46.1297,15.3378,-6.3707,0.0829,0.2462,0.1200,0.0000,0.0000,0.0000,0.1079,-0.0339,-0.0018,996,1502,1500,1500,2008,1000,1505,1000,1000,1982,1371,1699,1016,3.4517,0.2549,0.1941,-0.0568,-0.1270,0.9978,0.1400,-0.0722,-0.1436,0.0758,0.2204,0.0300,0.0438,0.2204,0.0300,0.0438,0.3000,0.0600,0.0002,0,-3.5514,-259.7000,-0.0080,-3.5514,-259.7000,-0.0080,16.4667,50.9000,0.0200,0.0000
-46.0549,15.3328,-6.3624,-0.2486,-0.0000,0.1200,0.0000,0.0000,0.0000,0.1076,-0.0339,-0.0018,996,1502,1500,1500,2008,1000,1505,1000,1000,1982,1371,1699,1016,3.9070,0.3448,0.1824,-0.0528,-0.1276,0.9971,0.1397,-0.0718,-0.1433,0.0754,0.2204,0.0300,0.0438,0.2204,0.0300,0.0438,0.3000,0.0600,0.0002,0,-3.5514,-259.7000,-0.0080,-3.5514,-259.7000,-0.0080,16.5086,50.9376,0.0200,0.0000
-45.9751,15.3278,-6.3550,0.0829,0.3283,0.1200,0.0000,0.0000,0.0000,0.1072,-0.0340,-0.0013,996,1502,1500,1500,2008,1000,1505,1000,1000,1982,1371,1699,1016,4.4236,0.4796,0.0185,-0.0504,-0.1284,0.9969,0.1399,-0.0719,-0.1424,0.0744,0.2204,0.0300,0.0438,0.2204,0.0300,0.0438,0.3000,0.0600,0.0002,0,-3.5514,-259.7000,-0.0080,-3.5514,-259.7000,-0.0080,16.5504,50.9752,0.0200,0.0000
-45.8898,15.3235,-6.3484,-0.1657,-0.0000,0.1200,0.0000,0.0000,0.0000,0.1067,-0.0340,-0.0016,996,1502,1500,1500,2008,1000,1505,1000,1000,1982,1371,1699,1016,4.9613,0.5447,0.1220,-0.0562,-0.1250,0.9945,0.1392,-0.0711,-0.1423,0.0743,0.2204,0.0300,0.0438,0.2204,0.0300,0.0438,0.3000,0.0600,0.0002,0,-3.5514,-259.7000,-0.0080,-3.5514,-259.7000,-0.0080,16.5923,51.0127,0.0200,0.0000
-45.8002,15.3203,-6.3429,0.0829,0.2462,0.1200,0.0000,0.0000,0.0000,0.1064,-0.0341,-0.0015,996,1502,1500,1500,2008,1000,1505,1000,1000,1982,1371,1699,1016,5.3461,0.6507,0.0825,-0.0574,-0.1210,0.9964,0.1389,-0.0708,-0.1419,0.0738,0.2204,0.0300,0.0438,0.2204,0.0300,0.0438,0.3000,0.0600,0.0002,0,-3.5514,-259.7000,-0.0080,-3.5514,-259.7000,-0.0080,16.6343,51.0503,0.0200,0.0000
-45.7073,15.3173,-6.3378,0.0829,0.0821,0.2400,0.0600,0.3200,0.0000,0.1063,-0.0339,0.0003,997,1503,1500,1500,2008,1000,1505,1000,1000,1982,1371,1699,1016,5.5423,0.7077,0.1174,-0.0564,-0.1198,0.9962,0.1406,-0.0727,-0.1400,0.0721,0.2204,0.0300,0.0438,0.2204,0.0300,0.0438,0.3000,0.0600,0.0002,0,-3.5514,-259.7000,-0.0080,-3.5514,-259.7000,-0.0080,16.6762,51.0878,0.0400,0.0100
-45.6132,15.3145,-6.3330,0.1657,0.1642,0.1200,0.0000,0.0000,0.0000,0.1058,-0.0341,-0.0015,996,1502,1500,1500,2008,1000,1505,1000,1000,1982,1371,1699,1016,5.6547,0.7204,0.0786,-0.0558,-0.1169,0.9910,0.1384,-0.0703,-0.1414,0.0732,0.2204,0.0300,0.0438,0.2204,0.0300,0.0438,0.3000,0.0600,0.0002,0,-3.5514,-259.7000,-0.0080,-3.5514,-259.7000,-0.0080,16.7182,51.1254,0.0200,0.0000
-45.5187,15.3123,-6.3280,0.0829,0.3283,0.1200,0.0000,0.0000,0.0000,0.1056,-0.0341,-0.0016,996,1502,1500,1500,2008,1000,1505,1000,1000,1982,1371,1699,1016,5.6027,0.7735,0.1241,-0.0570,-0.1147,0.9918,0.1381,-0.0699,-0.1413,0.0732,0.2204,0.0300,0.0438,0.2204,0.0300,0.0438,0.3000,0.0600,0.0002,0,-3.5514,-259.7000,-0.0080,-3.5514,-259.7000,-0.0080,16.7601,51.1630,0.0200,0.0000
-45.4251,15.3101,-6.3227,0.0829,0.4104,0.1200,0.0000,0.0000,0.0000,0.1055,-0.0340,-0.0018,996,1502,1500,1500,2008,1000,1505,1000,1000,1982,1371,1699,1016,5.4692,0.6793,0.1800,-0.0609,-0.1082,0.9939,0.1377,-0.0696,-0.1413,0.0733,0.2204,0.0300,0.0438,0.2204,0.0300,0.0438,0.3000,0.0600,0.0002,0,-3.5514,-259.7000,-0.0080,-3.5514,-259.7000,-0.0080,16.8022,51.2006,0.0200,0.0000
-45.3334,15.3080,-6.3171,0.0829,0.2462,0.1200,0.0000,0.0000,0.0000,0.1054,-0.0340,-0.0018,996,1502,1500,1500,2008,1000,1505,1000,1000,1982,1370,1699,1016,5.2457,0.6974,0.2004,-0.0572,-0.1084,0.9979,0.1376,-0.0695,-0.1413,0.0732,0.2204,0.0300,0.0438,0.2204,0.0300,0.0438,0.3000,0.0600,0.0002,0,-3.5514,-259.0000,-0.0080,-3.5514,-259.0000,-0.0080,16.8442,51.2381,0.0200,0.0000
-45.2428,15.3055,-6.3110,0.1657,0.2462,0.1200,0.0000,0.0000,0.0000,0.1052,-0.0340,-0.0019,996,1502,1500,1500,2008,1000,1505,1000,1000,1982,1370,1699,1016,5.1722,0.6138,0.2086,-0.0592,-0.1061,0.9958,0.1373,-0.0693,-0.1411,0.0731,0.2204,0.0300,0.0438,0.2204,0.0300,0.0438,0.3000,0.0600,0.0002,0,-3.5514,-259.0000,-0.0080,-3.5514,-259.0000,-0.0080,16.8862,51.2756,0.0200,0.0000
-45.1516,15.3021,-6.3036,0.0829,0.3283,0.2400,0.0600,0.3200,0.0000,0.1053,-0.0338,0.0001,997,1503,1500,1500,2008,1000,1505,1000,1000,1982,1370,1699,1016,5.2198,0.3877,0.1935,-0.0553,-0.1089,1.0027,0.1391,-0.0716,-0.1389,0.0714,0.2204,0.0300,0.0438,0.2204,0.0300,0.0438,0.3000,0.0600,0.0002,0,-3.5514,-259.0000,-0.0080,-3.5514,-259.0000,-0.0080,16.9282,51.3131,0.0400,0.0100
-45.0589,15.2967,-6.2944,0.0829,0.1642,0.1200,0.0000,0.0000,0.0000,0.1047,-0.0338,-0.0017,996,1502,1500,1500,2008,1000,1505,1000,1000,1982,1370,1699,1016,5.4599,0.1677,0.1580,-0.0594,-0.1132,0.9953,0.1368,-0.0692,-0.1401,0.0726,0.2204,0.0300,0.0438,0.2204,0.0300,0.0438,0.3000,0.0600,0.0002,0,-3.5514,-259.0000,-0.0080,-3.5514,-259.0000,-0.0080,16.9703,51.3506,0.0200,0.0000
-44.9628,15.2892,-6.2826,0.1657,0.1642,0.1200,0.0000,0.0000,0.0000,0.1044,-0.0336,-0.0019,996,1502,1500,1500,2008,1000,1505,1000,1000,1982,1370,1699,1016,5.6822,-0.1819,0.2362,-0.0599,-0.1148,0.9962,0.1361,-0.0688,-0.1399,0.0727,0.2204,0.0300,0.0438,0.2204,0.0300,0.0438,0.3000,0.0600,0.0002,0,-3.5514,-259.0000,-0.0080,-3.5514,-259.0000,-0.0080,17.0123,51.3880,0.0200,0.0000
-44.8621,15.2799,-6.2684,0.1657,0.2462,0.1200,0.0000,0.0000,0.0000,0.1039,-0.0335,-0.0019,996,1502,1500,1500,2008,1000,1505,1000,1000,1982,1371,1699,1016,6.1843,-0.4225,0.2200,-0.0597,-0.1133,0.9924,0.1355,-0.0685,-0.1393,0.0723,0.2204,0.0300,0.0438,0.2204,0.0300,0.0438,0.3000,0.0600,0.0002,0,-3.5514,-259.7000,-0.0080,-3.5514,-259.7000,-0.0080,17.0544,51.4255,0.0200,0.0000
-44.7559,15.2691,-6.2522,0.0829,0.3283,0.1200,0.0000,0.0000,0.0000,0.1035,-0.0334,-0.0021,996,1502,1500,1500,2008,1000,1505,1000,1000,1982,1371,1699,1016,6.6605,-0.6788,0.2625,-0.0577,-0.1113,0.9939,0.1348,-0.0681,-0.1389,0.0722,0.2204,0.0300,0.0438,0.2204,0.0300,0.0438,0.3000,0.0600,0.0002,0,-3.5514,-259.7000,-0.0080,-3.5514,-259.7000,-0.0080,17.0965,51.4630,0.0200,0.0000
-44.6442,15.2563,-6.2332,0.0829,0.2462,0.1200,0.0000,0.0000,0.0000,0.1031,-0.0332,-0.0022,996,1502,1500,1500,2008,1000,1505,1000,1000,1982,1370,1699,1016,7.0285,-1.0485,0.3279,-0.0594,-0.1088,0.9936,0.1340,-0.0677,-0.1385,0.0721,0.2204,0.0300,0.0438,0.2204,0.0300,0.0438,0.3000,0.0600,0.0002,0,-3.5514,-259.0000,-0.0080,-3.5514,-259.0000,-0.0080,17.1386,51.5004,0.0200,0.0000
-44.5280,15.2409,-6.2117,0.1657,0.1642,0.2400,0.0600,0.3200,0.0000,0.1029,-0.0329,-0.0003,997,1503,1500,1500,2008,1000,1505,1000,1000,1982,1370,1699,1016,7.4092,-1.3706,0.3111,-0.0632,-0.1054,0.9954,0.1355,-0.0698,-0.1361,0.0704,0.2204,0.0300,0.0438,0.2204,0.0300,0.0438,0.3000,0.0600,0.0002,0,-3.5514,-259.0000,-0.0080,-3.5514,-259.0000,-0.0080,17.1807,51.5377,0.0400,0.0100
-44.4082,15.2225,-6.1875,0.0829,0.3283,0.1200,0.0000,0.0000,0.0000,0.1024,-0.0328,-0.0022,996,1502,1500,1500,2008,1000,1505,1000,1000,1982,1370,1699,1016,7.4908,-1.7579,0.3060,-0.0607,-0.1046,1.0039,0.1329,-0.0674,-0.1373,0.0718,0.2204,0.0300,0.0438,0.2204,0.0300,0.0438,0.3000,0.0600,0.0002,0,-3.5514,-259.0000,-0.0080,-3.5514,-259.0000,-0.0080,17.2228,51.5751,0.0200,0.0000
-44.2881,15.2027,-6.1615,0.1657,0.0821,0.1200,0.0000,0.0000,0.0000,0.1021,-0.0327,-0.0023,996,1502,1500,1500,2008,1000,1505,1000,1000,1982,1371,1699,1016,7.4087,-1.8764,0.3616,-0.0584,-0.0995,0.9987,0.1325,-0.0671,-0.1371,0.0718,0.2204,0.0300,0.0438,0.2204,0.0300,0.0438,0.3000,0.0600,0.0002,0,-3.5514,-259.7000,-0.0080,-3.5514,-259.7000,-0.0080,17.2649,51.6125,0.0200,0.0000
-44.1703,15.1821,-6.1346,0.0000,-0.0000,0.1200,0.0000,0.0000,0.0000,0.1020,-0.0326,-0.0024,996,1502,1500,1500,2008,1000,1505,1000,1000,1982,1371,1699,1016,7.0724,-1.9292,0.3744,-0.0562,-0.0965,1.0019,0.1322,-0.0670,-0.1370,0.0718,0.2204,0.0300,0.0438,0.2204,0.0300,0.0438,0.3000,0.0600,0.0002,0,-3.5514,-259.7000,-0.0080,-3.5514,-259.7000,-0.0080,17.3070,51.6498,0.0200,0.0000
-44.0565,15.1621,-6.1081,0.0829,0.0821,0.1200,0.0000,0.0000,0.0000,0.1019,-0.0327,-0.0021,996,1502,1500,1500,2008,1000,1505,1000,1000,1982,1370,1699,1016,6.6595,-1.7420,0.2935,-0.0568,-0.0912,0.9991,0.1325,-0.0672,-0.1367,0.0714,0.2204,0.0300,0.0438,0.2204,0.0300,0.0438,0.3000,0.0600,0.0002,0,-3.5514,-259.0000,-0.0080,-3.5514,-259.0000,-0.0080,17.3492,51.6872,0.0200,0.0000
-43.9479,15.1434,-6.0845,-0.0829,-0.0000,0.1200,0.0000,0.0000,0.0000,0.1019,-0.0328,-0.0019,996,1502,1500,1500,2008,1000,1505,1000,1000,1982,1370,1699,1016,6.2678,-1.4114,0.2191,-0.0504,-0.0912,0.9984,0.1327,-0.0672,-0.1365,0.0710,0.2204,0.0300,0.0438,0.2204,0.0300,0.0438,0.3000,0.0600,0.0002,0,-3.5514,-259.0000,-0.0080,-3.5514,-259.0000,-0.0080,17.3914,51.7246,0.0200,0.0000
-43.8454,15.1270,-6.0641,0.0829,0.0821,0.2400,0.0600,0.3200,0.0000,0.1022,-0.0327,-0.0001,997,1503,1500,1500,2008,1000,1505,1000,1000,1982,1370,1699,1016,5.6614,-1.0847,0.2527,-0.0497,-0.0894,1.0016,0.1348,-0.0693,-0.1350,0.0696,0.2204,0.0300,0.0438,0.2204,0.0300,0.0438,0.3000,0.0600,0.0002,0,-3.5514,-259.0000,-0.0080,-3.5514,-259.0000,-0.0080,17.4336,51.7619,0.0400,0.0100
-43.7480,15.1127,-6.0451,0.0000,0.0821,0.1200,0.0000,0.0000,0.0000,0.1019,-0.0329,-0.0020,996,1502,1500,1500,2008,1000,1505,1000,1000,1982,1370,1699,1016,5.3095,-0.8351,0.2557,-0.0511,-0.0907,1.0004,0.1328,-0.0669,-0.1368,0.0709,0.2204,0.0300,0.0438,0.2204,0.0300,0.0438,0.3000,0.0600,0.0002,0,-3.5514,-259.0000,-0.0080,-3.5514,-259.0000,-0.0080,17.4758,51.7993,0.0200,0.0000
-43.6538,15.1002,-6.0285,0.0829,0.0821,0.1200,0.0000,0.0000,0.0000,0.1017,-0.0330,-0.0018,996,1502,1500,1500,2008,1000,1505,1000,1000,1982,1370,1699,1016,5.1701,-0.5635,0.1894,-0.0534,-0.0912,0.9976,0.1329,-0.0669,-0.1366,0.0705,0.2204,0.0300,0.0438,0.2204,0.0300,0.0438,0.3000,0.0600,0.0002,0,-3.5514,-259.0000,-0.0080,-3.5514,-259.0000,-0.0080,17.5181,51.8367,0.0200,0.0000
-43.5610,15.0885,-6.0135,0.0829,0.1642,0.1200,0.0000,0.0000,0.0000,0.1015,-0.0331,-0.0018,996,1502,1500,1500,2008,1000,1505,1000,1000,1982,1370,1699,1016,5.2094,-0.4677,0.1649,-0.0549,-0.0914,0.9957,0.1328,-0.0667,-0.1363,0.0702,0.2204,0.0300,0.0438,0.2204,0.0300,0.0438,0.3000,0.0600,0.0002,0,-3.5514,-259.0000,-0.0080,-3.5514,-259.0000,-0.0080,17.5603,51.8740,0.0200,0.0000
-43.4672,15.0769,-5.9982,0.0000,-0.0000,0.1200,0.0000,0.0000,0.0000,0.1013,-0.0330,-0.0018,996,1502,1500,1500,2008,1000,1505,1000,1000,1982,1370,1699,1016,5.2646,-0.5887,0.1774,-0.0564,-0.0951,1.0006,0.1324,-0.0665,-0.1361,0.0701,0.2204,0.0300,0.0438,0.2204,0.0300,0.0438,0.3000,0.0600,0.0002,0,-3.5514,-259.0000,-0.0080,-3.5514,-259.0000,-0.0080,17.6026,51.9114,0.0200,0.0000
-43.3715,15.0644,-5.9821,0.0829,-0.0000,0.1200,0.0000,0.0000,0.0000,0.1010,-0.0329,-0.0018,996,1502,1500,1500,2008,1000,1505,1000,1000,1982,1370,1699,1016,5.4570,-0.6781,0.1842,-0.0557,-0.0934,1.0040,0.1320,-0.0662,-0.1357,0.0699,0.2204,0.0300,0.0438,0.2204,0.0300,0.0438,0.3000,0.0600,0.0002,0,-3.5514,-259.0000,-0.0080,-3.5514,-259.0000,-0.0080,17.6449,51.9487,0.0200,0.0000
-43.2747,15.0522,-5.9663,0.0829,-0.0000,0.2400,0.0600,0.3200,0.0000,0.1010,-0.0328,0.0000,997,1503,1500,1500,2008,1000,1505,1000,1000,1982,1370,1699,1016,5.5750,-0.5061,0.2144,-0.0540,-0.0943,0.9953,0.1338,-0.0682,-0.1338,0.0681,0.2204,0.0300,0.0438,0.2204,0.0300,0.0438,0.3000,0.0600,0.0002,0,-3.5514,-259.0000,-0.0080,-3.5514,-259.0000,-0.0080,17.6872,51.9860,0.0400,0.0100
-43.1758,15.0417,-5.9524,0.0829,-0.0000,0.1200,0.0000,0.0000,0.0000,0.1004,-0.0330,-0.0018,996,1502,1500,1500,2008,1000,1505,1000,1000,1982,1370,1699,1016,5.8658,-0.2737,0.1882,-0.0536,-0.0883,0.9978,0.1316,-0.0655,-0.1352,0.0691,0.2204,0.0300,0.0438,0.2204,0.0300,0.0438,0.3000,0.0600,0.0002,0,-3.5514,-259.0000,-0.0080,-3.5514,-259.0000,-0.0080,17.7295,52.0233,0.0200,0.0000
-43.0759,15.0340,-5.9407,0.0829,0.0821,0.1200,0.0000,0.0000,0.0000,0.1001,-0.0332,-0.0019,996,1502,1500,1500,2008,1000,1505,1000,1000,1982,1370,1699,1016,5.9568,0.2505,0.2313,-0.0495,-0.0885,1.0015,0.1314,-0.0649,-0.1353,0.0688,0.2204,0.0300,0.0438,0.2204,0.0300,0.0438,0.3000,0.0600,0.0002,0,-3.5514,-259.0000,-0.0080,-3.5514,-259.0000,-0.0080,17.7718,52.0606,0.0200,0.0000
-42.9766,15.0294,-5.9328,0.0829,0.0821,0.1200,0.0000,0.0000,0.0000,0.0999,-0.0334,-0.0019,996,1502,1500,1500,2008,1000,1505,1000,1000,1982,1370,1699,1016,5.9025,0.6346,0.1878,-0.0498,-0.0883,1.0021,0.1314,-0.0646,-0.1352,0.0684,0.2204,0.0300,0.0438,0.2204,0.0300,0.0438,0.3000,0.0600,0.0002,0,-3.5514,-259.0000,-0.0080,-3.5514,-259.0000,-0.0080,17.8142,52.0979,0.0200,0.0000
-42.8777,15.0274,-5.9282,0.0829,0.0821,0.1200,0.0000,0.0000,0.0000,0.0996,-0.0335,-0.0017,996,1502,1500,1500,2008,1000,1505,1000,1000,1982,1370,1699,1016,5.9986,0.9529,0.1324,-0.0570,-0.0829,1.0012,0.1315,-0.0644,-0.1349,0.0678,0.2204,0.0300,0.0438,0.2204,0.0300,0.0438,0.3000,0.0600,0.0002,0,-3.5514,-259.0000,-0.0080,-3.5514,-259.0000,-0.0080,17.8565,52.1352,0.0200,0.0000
-42.7783,15.0276,-5.9252,0.0829,0.1642,0.1200,0.0000,0.0000,0.0000,0.0994,-0.0336,-0.0017,996,1502,1500,1500,2008,1000,1505,1000,1000,1982,1370,1699,1016,6.0406,1.0406,0.1385,-0.0547,-0.0843,1.0004,0.1313,-0.0641,-0.1347,0.0676,0.2204,0.0300,0.0438,0.2204,0.0300,0.0438,0.3000,0.0600,0.0002,0,-3.5514,-259.0000,-0.0080,-3.5514,-259.0000,-0.0080,17.8989,52.1725,0.0200,0.0000
-42.6802,15.0272,-5.9215,0.0000,-0.0000,0.2400,0.0600,0.3200,0.0000,0.0996,-0.0333,0.0004,997,1503,1500,1500,2008,1000,1505,1000,1000,1982,1370,1699,1016,5.8088,0.8001,0.0752,-0.0599,-0.0837,0.9989,0.1333,-0.0666,-0.1325,0.0658,0.2204,0.0300,0.0438,0.2204,0.0300,0.0438,0.3000,0.0600,0.0002,0,-3.5514,-259.0000,-0.0080,-3.5514,-259.0000,-0.0080,17.9413,52.2098,0.0400,0.0100
-42.5835,15.0236,-5.9157,0.0000,-0.0000,0.1200,0.0000,0.0000,0.0000,0.0992,-0.0333,-0.0015,996,1502,1500,1500,2008,1000,1505,1000,1000,1982,1371,1699,1016,5.5662,0.3774,0.0862,-0.0592,-0.0800,0.9974,0.1310,-0.0644,-0.1340,0.0674,0.2204,0.0300,0.0438,0.2204,0.0300,0.0438,0.3000,0.0600,0.0002,0,-3.5514,-259.7000,-0.0080,-3.5514,-259.7000,-0.0080,17.9837,52.2471,0.0200,0.0000
-42.4893,15.0165,-5.9056,0.0829,0.0821,0.1200,0.0000,0.0000,0.0000,0.0991,-0.0330,-0.0017,996,1502,1500,1500,2008,1000,1505,1000,1000,1982,1371,1699,1016,5.1865,-0.1411,0.1560,-0.0561,-0.0776,1.0036,0.1304,-0.0644,-0.1339,0.0678,0.2204,0.0300,0.0438,0.2204,0.0300,0.0438,0.3000,0.0600,0.0002,0,-3.5514,-259.7000,-0.0080,-3.5514,-259.7000,-0.0080,18.0262,52.2843,0.0200,0.0000
-42.3996,15.0068,-5.8930,0.0000,0.0821,0.1200,0.0000,0.0000,0.0000,0.0992,-0.0329,-0.0019,996,1502,1500,1500,2008,1000,1505,1000,1000,1982,1371,1699,1016,4.6083,-0.3380,0.1844,-0.0571,-0.0750,0.9956,0.1303,-0.0644,-0.1340,0.0681,0.2204,0.0300,0.0438,0.2204,0.0300,0.0438,0.3000,0.0600,0.0002,0,-3.5514,-259.7000,-0.0080,-3.5514,-259.7000,-0.0080,18.0686,52.3216,0.0200,0.0000
-42.3149,14.9959,-5.8778,0.0000,-0.0000,0.1200,0.0000,0.0000,0.0000,0.0992,-0.0328,-0.0021,996,1502,1500,1500,2008,1000,1505,1000,1000,1982,1371,1699,1016,4.0630,-0.5498,0.2873,-0.0516,-0.0717,1.0017,0.1300,-0.0643,-0.1342,0.0685,0.2204,0.0300,0.0438,0.2204,0.0300,0.0438,0.3000,0.0600,0.0002,0,-3.5514,-259.7000,-0.0080,-3.5514,-259.7000,-0.0080,18.1111,52.3589,0.0200,0.0000
-42.2351,14.9844,-5.8617,0.0829,0.1642,0.1200,0.0000,0.0000,0.0000,0.0993,-0.0328,-0.0020,996,1502,1500,1500,2008,1000,1505,1000,1000,1982,1370,1699,1016,3.6037,-0.5872,0.2198,-0.0536,-0.0691,1.0034,0.1301,-0.0645,-0.1340,0.0685,0.2204,0.0300,0.0438,0.2204,0.0300,0.0438,0.3000,0.0600,0.0002,0,-3.5514,-259.0000,-0.0080,-3.5514,-259.0000,-0.0080,18.1535,52.3961,0.0200,0.0000
-42.1606,14.9724,-5.8450,-0.0829,-0.0821,0.2400,0.0600,0.3200,0.0000,0.0996,-0.0326,-0.0002,997,1503,1500,1500,2008,1000,1505,1000,1000,1982,1370,1699,1016,3.1382,-0.6530,0.2946,-0.0552,-0.0741,1.0013,0.1320,-0.0668,-0.1323,0.0672,0.2204,0.0300,0.0438,0.2204,0.0300,0.0438,0.3000,0.0600,0.0002,0,-3.5514,-259.0000,-0.0080,-3.5514,-259.0000,-0.0080,18.1960,52.4333,0.0400,0.0100
-42.0900,14.9602,-5.8287,0.0829,-0.0000,0.1200,0.0000,0.0000,0.0000,0.0993,-0.0327,-0.0019,996,1502,1500,1500,2008,1000,1505,1000,1000,1982,1370,1699,1016,2.8105,-0.5632,0.2024,-0.0558,-0.0748,1.0019,0.1301,-0.0647,-0.1339,0.0685,0.2204,0.0300,0.0438,0.2204,0.0300,0.0438,0.3000,0.0600,0.0002,0,-3.5514,-259.0000,-0.0080,-3.5514,-259.0000,-0.0080,18.2385,52.4705,0.0200,0.0000
-42.0227,14.9494,-5.8138,-0.1657,-0.0821,0.1200,0.0000,0.0000,0.0000,0.0992,-0.0328,-0.0022,996,1502,1500,1500,2008,1000,1505,1000,1000,1982,1371,1699,1016,2.5965,-0.3421,0.3023,-0.0526,-0.0780,0.9965,0.1299,-0.0643,-0.1342,0.0686,0.2204,0.0300,0.0438,0.2204,0.0300,0.0438,0.3000,0.0600,0.0002,0,-3.5514,-259.7000,-0.0080,-3.5514,-259.7000,-0.0080,18.2810,52.5077,0.0200,0.0000
-41.9570,14.9405,-5.7999,0.0829,-0.0000,0.1200,0.0000,0.0000,0.0000,0.0991,-0.0329,-0.0022,996,1502,1500,1500,2008,1000,1505,1000,1000,1982,1371,1699,1016,2.5715,-0.1103,0.3031,-0.0528,-0.0775,1.0003,0.1298,-0.0641,-0.1342,0.0684,0.2204,0.0300,0.0438,0.2204,0.0300,0.0438,0.3000,0.0600,0.0002,0,-3.5514,-259.7000,-0.0080,-3.5514,-259.7000,-0.0080,18.3236,52.5449,0.0200,0.0000
-41.8921,14.9339,-5.7886,0.0000,-0.0000,0.1200,0.0000,0.0000,0.0000,0.0990,-0.0330,-0.0021,996,1502,1500,1500,2008,1000,1505,1000,1000,1982,1371,1699,1016,2.5347,0.2499,0.2889,-0.0520,-0.0799,1.0000,0.1299,-0.0638,-0.1341,0.0681,0.2204,0.0300,0.0438,0.2204,0.0300,0.0438,0.3000,0.0600,0.0002,0,-3.5514,-259.7000,-0.0080,-3.5514,-259.7000,-0.0080,18.3661,52.5821,0.0200,0.0000
-41.8287,14.9288,-5.7800,0.0829,0.0821,0.1200,0.0000,0.0000,0.0000,0.0989,-0.0331,-0.0016,996,1502,1500,1500,2008,1000,1505,1000,1000,1982,1371,1699,1016,2.4737,0.3626,0.1246,-0.0515,-0.0757,0.9979,0.1303,-0.0642,-0.1335,0.0674,0.2204,0.0300,0.0438,0.2204,0.0300,0.0438,0.3000,0.0600,0.0002,0,-3.5514,-259.7000,-0.0080,-3.5514,-259.7000,-0.0080,18.4087,52.6193,0.0200,0.0000
-41.7661,14.9246,-5.7739,0.0829,0.0821,0.2400,0.0600,0.3200,0.0000,0.0990,-0.0331,0.0004,997,1503,1500,1500,2008,1000,1505,1000,1000,1982,1370,1698,1016,2.4044,0.7256,0.0687,-0.0520,-0.0746,1.0011,0.1325,-0.0664,-0.1317,0.0655,0.2204,0.0300,0.0438,0.2204,0.0300,0.0438,0.3000,0.0600,0.0002,0,-3.5514,-259.0000,-0.0080,-3.5514,-259.0000,-0.0080,18.4512,52.6565,0.0400,0.0100
-41.7046,14.9219,-5.7697,0.0829,-0.0000,0.1200,0.0000,0.0000,0.0000,0.0987,-0.0332,-0.0012,996,1502,1500,1500,2008,1000,1505,1000,1000,1982,1371,1699,1016,2.2837,0.8140,-0.0164,-0.0530,-0.0709,1.0014,0.1307,-0.0642,-0.1331,0.0666,0.2204,0.0300,0.0438,0.2204,0.0300,0.0438,0.3000,0.0600,0.0002,0,-3.5514,-259.7000,-0.0080,-3.5514,-259.7000,-0.0080,18.4938,52.6935,0.0200,0.0000
-41.6448,14.9202,-5.7671,0.0829,0.0821,0.1200,0.0000,0.0000,0.0000,0.0986,-0.0334,-0.0013,996,1502,1500,1500,2008,1000,1505,1000,1000,1982,1371,1699,1016,2.2089,1.1233,-0.0088,-0.0551,-0.0719,1.0015,0.1306,-0.0639,-0.1333,0.0665,0.2204,0.0300,0.0438,0.2204,0.0300,0.0438,0.3000,0.0600,0.0002,0,-3.5514,-259.7000,-0.0080,-3.5514,-259.7000,-0.0080,18.5364,52.7306,0.0200,0.0000
-41.5858,14.9205,-5.7659,0.0829,0.0821,0.1200,0.0000,0.0000,0.0000,0.0985,-0.0335,-0.0012,996,1502,1500,1500,2008,1000,1505,1000,1000,1982,1371,1699,1016,2.1828,1.3037,-0.0192,-0.0527,-0.0739,1.0012,0.1307,-0.0638,-0.1332,0.0662,0.2204,0.0300,0.0438,0.2204,0.0300,0.0438,0.3000,0.0600,0.0002,0,-3.5514,-259.7000,-0.0080,-3.5514,-259.7000,-0.0080,18.5790,52.7676,0.0200,0.0000
-41.5277,14.9221,-5.7649,0.0829,0.1642,0.1200,0.0000,0.0000,0.0000,0.0984,-0.0335,-0.0019,996,1502,1500,1500,2008,1000,1505,1000,1000,1982,1371,1699,1016,1.9731,1.4616,0.2036,-0.0518,-0.0735,1.0030,0.1300,-0.0630,-0.1339,0.0668,0.2204,0.0300,0.0438,0.2204,0.0300,0.0438,0.3000,0.0600,0.0002,0,-3.5514,-259.7000,-0.0080,-3.5514,-259.7000,-0.0080,18.6216,52.8047,0.0200,0.0000
-41.4720,14.9259,-5.7645,0.0829,0.0821,0.1200,0.0000,0.0000,0.0000,0.0984,-0.0336,-0.0020,996,1502,1500,1500,2008,1000,1505,1000,1000,1982,1370,1699,1016,1.8407,1.5376,0.2496,-0.0512,-0.0767,1.0017,0.1299,-0.0628,-0.1340,0.0668,0.2204,0.0300,0.0438,0.2204,0.0300,0.0438,0.3000,0.0600,0.0002,0,-3.5514,-259.0000,-0.0080,-3.5514,-259.0000,-0.0080,18.6642,52.8418,0.0200,0.0000
-41.4170,14.9297,-5.7640,0.0829,0.0821,0.2400,0.0600,0.3200,0.0000,0.0985,-0.0334,0.0001,997,1503,1500,1500,2008,1000,1505,1000,1000,1982,1371,1699,1016,1.7991,1.5411,0.1760,-0.0564,-0.0737,0.9984,0.1320,-0.0651,-0.1319,0.0650,0.2204,0.0300,0.0438,0.2204,0.0300,0.0438,0.3000,0.0600,0.0002,0,-3.5514,-259.7000,-0.0080,-3.5514,-259.7000,-0.0080,18.7069,52.8790,0.0400,0.0100
-41.3631,14.9339,-5.7638,0.0829,0.0821,0.1200,0.0000,0.0000,0.0000,0.0982,-0.0335,-0.0019,996,1502,1500,1500,2008,1000,1505,1000,1000,1982,1371,1699,1016,1.7005,1.4204,0.2212,-0.0567,-0.0738,0.9995,0.1298,-0.0627,-0.1336,0.0666,0.2204,0.0300,0.0438,0.2204,0.0300,0.0438,0.3000,0.0600,0.0002,0,-3.5514,-259.7000,-0.0080,-3.5514,-259.7000,-0.0080,18.7496,52.9160,0.0200,0.0000
-41.3102,14.9368,-5.7627,0.0829,0.0821,0.1200,0.0000,0.0000,0.0000,0.0982,-0.0335,-0.0015,996,1502,1500,1500,2008,1000,1505,1000,1000,1982,1371,1699,1016,1.5012,1.3137,0.0837,-0.0586,-0.0709,1.0011,0.1301,-0.0631,-0.1332,0.0662,0.2204,0.0300,0.0438,0.2204,0.0300,0.0438,0.3000,0.0600,0.0002,0,-3.5514,-259.7000,-0.0080,-3.5514,-259.7000,-0.0080,18.7923,52.9532,0.0200,0.0000
-41.2587,14.9370,-5.7598,0.0829,0.0821,0.1200,0.0000,0.0000,0.0000,0.0981,-0.0333,-0.0015,996,1502,1500,1500,2008,1000,1505,1000,1000,1982,1371,1699,1016,1.3156,0.8503,0.0738,-0.0625,-0.0694,0.9987,0.1299,-0.0634,-0.1329,0.0663,0.2204,0.0300,0.0438,0.2204,0.0300,0.0438,0.3000,0.0600,0.0002,0,-3.5514,-259.7000,-0.0080,-3.5514,-259.7000,-0.0080,18.8350,52.9902,0.0200,0.0000
-41.2094,14.9333,-5.7542,0.0829,0.0821,0.1200,0.0000,0.0000,0.0000,0.0982,-0.0331,-0.0015,996,1502,1500,1500,2008,1000,1505,1000,1000,1982,1370,1699,1016,0.9883,0.4863,0.0511,-0.0609,-0.0668,1.0029,0.1298,-0.0636,-0.1328,0.0665,0.2204,0.0300,0.0438,0.2204,0.0300,0.0438,0.3000,0.0600,0.0002,0,-3.5514,-259.0000,-0.0080,-3.5514,-259.0000,-0.0080,18.8778,53.0273,0.0200,0.0000
-41.1628,14.9267,-5.7449,0.0829,0.0821,0.1200,0.0000,0.0000,0.0000,0.0982,-0.0329,-0.0017,996,1502,1500,1500,2008,1000,1505,1000,1000,1982,1370,1699,1016,0.6646,-0.0173,0.1390,-0.0591,-0.0643,0.9997,0.1294,-0.0636,-0.1328,0.0670,0.2204,0.0300,0.0438,0.2204,0.0300,0.0438,0.3000,0.0600,0.0002,0,-3.5514,-259.0000,-0.0080,-3.5514,-259.0000,-0.0080,18.9205,53.0643,0.0200,0.0000
-41.1195,14.9174,-5.7330,0.0829,-0.0000,0.2400,0.0600,0.3200,0.0000,0.0986,-0.0326,0.0002,997,1503,1500,1500,2008,1000,1505,1000,1000,1982,1370,1699,1016,0.2370,-0.2918,0.1495,-0.0562,-0.0696,1.0054,0.1314,-0.0661,-0.1310,0.0658,0.2204,0.0300,0.0438,0.2204,0.0300,0.0438,0.3000,0.0600,0.0002,0,-3.5514,-259.0000,-0.0080,-3.5514,-259.0000,-0.0080,18.9633,53.1014,0.0400,0.0100
-41.0796,14.9058,-5.7185,0.0000,-0.0000,0.1200,0.0000,0.0000,0.0000,0.0983,-0.0326,-0.0019,996,1502,1500,1500,2008,1000,1505,1000,1000,1982,1370,1699,1016,-0.0830,-0.5110,0.2042,-0.0550,-0.0683,0.9957,0.1290,-0.0638,-0.1329,0.0676,0.2204,0.0300,0.0438,0.2204,0.0300,0.0438,0.3000,0.0600,0.0002,0,-3.5514,-259.0000,-0.0080,-3.5514,-259.0000,-0.0080,19.0061,53.1384,0.0200,0.0000
-41.0414,14.8934,-5.7035,0.0829,0.2462,0.1200,0.0000,0.0000,0.0000,0.0983,-0.0326,-0.0019,996,1502,1500,1500,2008,1000,1505,1000,1000,1982,1370,1699,1016,-0.1053,-0.5388,0.1832,-0.0559,-0.0710,1.0053,0.1289,-0.0638,-0.1328,0.0676,0.2204,0.0300,0.0438,0.2204,0.0300,0.0438,0.3000,0.0600,0.0002,0,-3.5514,-259.0000,-0.0080,-3.5514,-259.0000,-0.0080,19.0489,53.1754,0.0200,0.0000
-41.0034,14.8817,-5.6891,-0.1657,-0.0000,0.1200,0.0000,0.0000,0.0000,0.0982,-0.0326,-0.0018,996,1502,1500,1500,2008,1000,1505,1000,1000,1982,1370,1699,1016,-0.1341,-0.3610,0.1629,-0.0547,-0.0717,1.0028,0.1291,-0.0638,-0.1326,0.0673,0.2204,0.0300,0.0438,0.2204,0.0300,0.0438,0.3000,0.0600,0.0002,0,-3.5514,-259.0000,-0.0080,-3.5514,-259.0000,-0.0080,19.0917,53.2124,0.0200,0.0000
-40.9659,14.8717,-5.6768,0.0000,-0.0000,0.1200,0.0000,0.0000,0.0000,0.0981,-0.0327,-0.0016,996,1502,1500,1500,2008,1000,1505,1000,1000,1982,1370,1699,1016,-0.0733,-0.2061,0.0858,-0.0528,-0.0762,1.0025,0.1292,-0.0638,-0.1323,0.0669,0.2204,0.0300,0.0438,0.2204,0.0300,0.0438,0.3000,0.0600,0.0002,0,-3.5514,-259.0000,-0.0080,-3.5514,-259.0000,-0.0080,19.1345,53.2494,0.0200,0.0000
-40.9270,14.8624,-5.6654,0.0000,0.0821,0.1200,0.0000,0.0000,0.0000,0.0979,-0.0327,-0.0014,996,1502,1500,1500,2008,1000,1505,1000,1000,1982,1370,1698,1016,0.0595,-0.0390,0.0572,-0.0585,-0.0741,0.9989,0.1292,-0.0638,-0.1321,0.0666,0.2204,0.0300,0.0438,0.2204,0.0300,0.0438,0.3000,0.0600,0.0002,0,-3.5514,-259.0000,-0.0080,-3.5514,-259.0000,-0.0080,19.1773,53.2864,0.0200,0.0000
-40.8865,14.8533,-5.6545,0.0829,0.0821,0.2400,0.0600,0.3200,0.0000,0.0980,-0.0325,0.0004,997,1503,1500,1500,2008,1000,1505,1000,1000,1982,1371,1699,1016,0.3048,-0.1563,0.0891,-0.0570,-0.0765,0.9981,0.1309,-0.0658,-0.1302,0.0651,0.2204,0.0300,0.0438,0.2204,0.0300,0.0438,0.3000,0.0600,0.0002,0,-3.5514,-259.7000,-0.0080,-3.5514,-259.7000,-0.0080,19.2201,53.3233,0.0400,0.0100
-40.8433,14.8420,-5.6429,0.0000,0.0821,0.1200,0.0000,0.0000,0.0000,0.0975,-0.0326,-0.0012,996,1502,1500,1500,2008,1000,1505,1000,1000,1982,1371,1699,1016,0.5775,-0.3199,-0.0357,-0.0609,-0.0735,0.9998,0.1289,-0.0637,-0.1313,0.0662,0.2204,0.0300,0.0438,0.2204,0.0300,0.0438,0.3000,0.0600,0.0002,0,-3.5514,-259.7000,-0.0080,-3.5514,-259.7000,-0.0080,19.2630,53.3603,0.0200,0.0000
-40.7973,14.8290,-5.6303,0.0829,0.0821,0.1200,0.0000,0.0000,0.0000,0.0973,-0.0324,-0.0011,996,1502,1500,1500,2008,1000,1505,1000,1000,1982,1371,1699,1016,0.7938,-0.5972,-0.0514,-0.0597,-0.0754,0.9998,0.1287,-0.0638,-0.1308,0.0660,0.2204,0.0300,0.0438,0.2204,0.0300,0.0438,0.3000,0.0600,0.0002,0,-3.5514,-259.7000,-0.0080,-3.5514,-259.7000,-0.0080,19.3059,53.3973,0.0200,0.0000
-40.7479,14.8141,-5.6158,0.0000,0.2462,0.1200,0.0000,0.0000,0.0000,0.0971,-0.0324,-0.0014,996,1502,1500,1500,2008,1000,1505,1000,1000,1982,1371,1699,1016,1.1019,-0.6576,0.0322,-0.0527,-0.0723,0.9995,0.1281,-0.0633,-0.1308,0.0661,0.2204,0.0300,0.0438,0.2204,0.0300,0.0438,0.3000,0.0600,0.0002,0,-3.5514,-259.7000,-0.0080,-3.5514,-259.7000,-0.0080,19.3488,53.4343,0.0200,0.0000
-40.6957,14.7989,-5.6006,0.0829,0.1642,0.1200,0.0000,0.0000,0.0000,0.0969,-0.0323,-0.0013,996,1502,1500,1500,2008,1000,1505,1000,1000,1982,1370,1699,1016,1.2088,-0.7572,-0.0016,-0.0548,-0.0705,1.0050,0.1279,-0.0633,-0.1305,0.0660,0.2204,0.0300,0.0438,0.2204,0.0300,0.0438,0.3000,0.0600,0.0002,0,-3.5514,-259.0000,-0.0080,-3.5514,-259.0000,-0.0080,19.3917,53.4712,0.0200,0.0000
-40.6430,14.7837,-5.5847,0.0829,0.0821,0.1200,0.0000,0.0000,0.0000,0.0968,-0.0323,-0.0017,996,1502,1500,1500,2008,1000,1505,1000,1000,1982,1370,1699,1016,1.1879,-0.7547,0.1425,-0.0536,-0.0697,1.0008,0.1274,-0.0628,-0.1308,0.0663,0.2204,0.0300,0.0438,0.2204,0.0300,0.0438,0.3000,0.0600,0.0002,0,-3.5514,-259.0000,-0.0080,-3.5514,-259.0000,-0.0080,19.4347,53.5082,0.0200,0.0000
-40.5924,14.7703,-5.5688,0.0829,-0.0000,0.2400,0.0600,0.3200,0.0000,0.0971,-0.0322,-0.0001,997,1503,1500,1500,2008,1000,1505,1000,1000,1982,1370,1699,1016,0.8967,-0.5493,0.2286,-0.0556,-0.0669,1.0030,0.1292,-0.0648,-0.1294,0.0650,0.2204,0.0300,0.0438,0.2204,0.0300,0.0438,0.3000,0.0600,0.0002,0,-3.5514,-259.0000,-0.0080,-3.5514,-259.0000,-0.0080,19.4776,53.5451,0.0400,0.0100
-40.5456,14.7590,-5.5533,0.0829,0.0821,0.1200,0.0000,0.0000,0.0000,0.0969,-0.0323,-0.0022,996,1502,1500,1500,2008,1000,1505,1000,1000,1982,1371,1699,1016,0.5086,-0.4680,0.3068,-0.0560,-0.0697,1.0018,0.1270,-0.0624,-0.1315,0.0668,0.2204,0.0300,0.0438,0.2204,0.0300,0.0438,0.3000,0.0600,0.0002,0,-3.5514,-259.7000,-0.0080,-3.5514,-259.7000,-0.0080,19.5206,53.5821,0.0200,0.0000
-40.5037,14.7479,-5.5378,0.0829,0.0821,0.1200,0.0000,0.0000,0.0000,0.0971,-0.0323,-0.0022,996,1502,1500,1500,2008,1000,1505,1000,1000,1982,1371,1699,1016,-0.0368,-0.5047,0.2793,-0.0550,-0.0656,0.9969,0.1272,-0.0626,-0.1315,0.0669,0.2204,0.0300,0.0438,0.2204,0.0300,0.0438,0.3000,0.0600,0.0002,0,-3.5514,-259.7000,-0.0080,-3.5514,-259.7000,-0.0080,19.5636,53.6190,0.0200,0.0000
-40.4665,14.7354,-5.5222,0.0000,0.0821,0.1200,0.0000,0.0000,0.0000,0.0971,-0.0322,-0.0019,996,1502,1500,1500,2008,1000,1505,1000,1000,1982,1371,1699,1016,-0.4047,-0.7128,0.1857,-0.0581,-0.0665,1.0038,0.1274,-0.0631,-0.1312,0.0668,0.2204,0.0300,0.0438,0.2204,0.0300,0.0438,0.3000,0.0600,0.0002,0,-3.5514,-259.7000,-0.0080,-3.5514,-259.7000,-0.0080,19.6066,53.6560,0.0200,0.0000
-40.4312,14.7210,-5.5050,0.0829,-0.0000,0.1200,0.0000,0.0000,0.0000,0.0971,-0.0320,-0.0019,996,1502,1500,1500,2008,1000,1505,1000,1000,1982,1371,1699,1016,-0.4421,-1.0257,0.1972,-0.0570,-0.0699,1.0033,0.1272,-0.0632,-0.1310,0.0670,0.2204,0.0300,0.0438,0.2204,0.0300,0.0438,0.3000,0.0600,0.0002,0,-3.5514,-259.7000,-0.0080,-3.5514,-259.7000,-0.0080,19.6496,53.6929,0.0200,0.0000
-40.3950,14.7038,-5.4855,0.0829,0.0821,0.1200,0.0000,0.0000,0.0000,0.0969,-0.0318,-0.0017,996,1502,1500,1500,2008,1000,1505,1000,1000,1982,1370,1699,1016,-0.3124,-1.3525,0.1503,-0.0603,-0.0725,1.0006,0.1270,-0.0634,-0.1305,0.0668,0.2204,0.0300,0.0438,0.2204,0.0300,0.0438,0.3000,0.0600,0.0002,0,-3.5514,-259.0000,-0.0080,-3.5514,-259.0000,-0.0080,19.6926,53.7298,0.0200,0.0000
-40.3539,14.6833,-5.4637,0.0829,0.0821,0.2400,0.0600,0.3200,0.0000,0.0969,-0.0315,0.0000,997,1503,1500,1500,2008,1000,1505,1000,1000,1982,1370,1699,1016,0.2442,-1.6121,0.1946,-0.0583,-0.0804,1.0040,0.1284,-0.0653,-0.1284,0.0653,0.2204,0.0300,0.0438,0.2204,0.0300,0.0438,0.3000,0.0600,0.0002,0,-3.5514,-259.0000,-0.0080,-3.5514,-259.0000,-0.0080,19.7357,53.7666,0.0400,0.0100
-40.3063,14.6604,-5.4396,0.0000,-0.0000,0.1200,0.0000,0.0000,0.0000,0.0962,-0.0314,-0.0018,996,1502,1500,1500,2008,1000,1505,1000,1000,1982,1370,1699,1016,0.8069,-1.9886,0.1599,-0.0582,-0.0811,0.9980,0.1259,-0.0631,-0.1294,0.0666,0.2204,0.0300,0.0438,0.2204,0.0300,0.0438,0.3000,0.0600,0.0002,0,-3.5514,-259.0000,-0.0080,-3.5514,-259.0000,-0.0080,19.7787,53.8035,0.0200,0.0000
-40.2528,14.6354,-5.4144,-0.0829,-0.0000,0.1200,0.0000,0.0000,0.0000,0.0959,-0.0314,-0.0017,996,1502,1500,1500,2008,1000,1505,1000,1000,1982,1371,1699,1016,1.2890,-2.0426,0.1259,-0.0514,-0.0792,1.0023,0.1256,-0.0628,-0.1290,0.0663,0.2204,0.0300,0.0438,0.2204,0.0300,0.0438,0.3000,0.0600,0.0002,0,-3.5514,-259.7000,-0.0080,-3.5514,-259.7000,-0.0080,19.8218,53.8404,0.0200,0.0000
-40.1953,14.6113,-5.3904,0.0829,0.1642,0.1200,0.0000,0.0000,0.0000,0.0956,-0.0314,-0.0015,996,1502,1500,1500,2008,1000,1505,1000,1000,1982,1371,1699,1016,1.6326,-1.7551,0.0526,-0.0541,-0.0742,1.0011,0.1256,-0.0627,-0.1285,0.0657,0.2204,0.0300,0.0438,0.2204,0.0300,0.0438,0.3000,0.0600,0.0002,0,-3.5514,-259.7000,-0.0080,-3.5514,-259.7000,-0.0080,19.8649,53.8773,0.0200,0.0000
-40.1365,14.5891,-5.3694,-0.0829,-0.1642,0.1200,0.0000,0.0000,0.0000,0.0955,-0.0316,-0.0015,996,1502,1500,1500,2008,1000,1505,1000,1000,1982,1370,1699,1016,1.7178,-1.3591,0.0520,-0.0506,-0.0688,0.9983,0.1256,-0.0625,-0.1285,0.0654,0.2204,0.0300,0.0438,0.2204,0.0300,0.0438,0.3000,0.0600,0.0002,0,-3.5514,-259.0000,-0.0080,-3.5514,-259.0000,-0.0080,19.9080,53.9142,0.0200,0.0000
-40.0800,14.5707,-5.3527,0.0000,-0.0000,0.1200,0.0000,0.0000,0.0000,0.0955,-0.0318,-0.0011,996,1502,1500,1500,2008,1000,1505,1000,1000,1982,1370,1699,1016,1.3706,-0.7726,-0.0631,-0.0471,-0.0660,1.0028,0.1262,-0.0626,-0.1284,0.0648,0.2204,0.0300,0.0438,0.2204,0.0300,0.0438,0.3000,0.0600,0.0002,0,-3.5514,-259.0000,-0.0080,-3.5514,-259.0000,-0.0080,19.9512,53.9511,0.0200,0.0000
-40.0289,14.5569,-5.3409,-0.1657,-0.1642,0.2400,0.0600,0.3200,0.0000,0.0958,-0.0319,0.0009,997,1503,1500,1500,2008,1000,1505,1000,1000,1982,1371,1699,1016,0.9970,-0.1504,-0.1125,-0.0490,-0.0633,1.0054,0.1286,-0.0649,-0.1268,0.0630,0.2204,0.0300,0.0438,0.2204,0.0300,0.0438,0.3000,0.0600,0.0002,0,-3.5514,-259.7000,-0.0080,-3.5514,-259.7000,-0.0080,19.9944,53.9879,0.0400,0.0100
-39.9834,14.5477,-5.3322,0.0829,-0.0000,0.1200,0.0000,0.0000,0.0000,0.0957,-0.0322,-0.0013,996,1502,1500,1500,2008,1000,1505,1000,1000,1982,1370,1699,1016,0.4377,0.2653,0.0128,-0.0509,-0.0615,0.9971,0.1265,-0.0622,-0.1292,0.0649,0.2204,0.0300,0.0438,0.2204,0.0300,0.0438,0.3000,0.0600,0.0002,0,-3.5514,-259.0000,-0.0080,-3.5514,-259.0000,-0.0080,20.0375,54.0247,0.0200,0.0000
-39.9448,14.5410,-5.3247,0.0000,-0.0000,0.1200,0.0000,0.0000,0.0000,0.0959,-0.0322,-0.0016,996,1502,1500,1500,2008,1000,1505,1000,1000,1982,1370,1699,1016,-0.2019,0.4131,0.0718,-0.0507,-0.0612,1.0006,0.1266,-0.0621,-0.1297,0.0652,0.2204,0.0300,0.0438,0.2204,0.0300,0.0438,0.3000,0.0600,0.0002,0,-3.5514,-259.0000,-0.0080,-3.5514,-259.0000,-0.0080,20.0807,54.0616,0.0200,0.0000
-39.9117,14.5350,-5.3163,0.0000,-0.0000,0.1200,0.0000,0.0000,0.0000,0.0960,-0.0321,-0.0019,996,1502,1500,1500,2008,1000,1505,1000,1000,1982,1370,1699,1016,-0.6462,0.1634,0.1772,-0.0561,-0.0629,1.0018,0.1262,-0.0620,-0.1300,0.0658,0.2204,0.0300,0.0438,0.2204,0.0300,0.0438,0.3000,0.0600,0.0002,0,-3.5514,-259.0000,-0.0080,-3.5514,-259.0000,-0.0080,20.1239,54.0983,0.0200,0.0000
-39.8811,14.5276,-5.3049,0.0000,-0.0821,0.1200,0.0000,0.0000,0.0000,0.0961,-0.0320,-0.0022,996,1502,1500,1500,2008,1000,1505,1000,1000,1982,1370,1699,1016,-0.9660,-0.0721,0.3142,-0.0548,-0.0649,1.0015,0.1258,-0.0619,-0.1303,0.0663,0.2204,0.0300,0.0438,0.2204,0.0300,0.0438,0.3000,0.0600,0.0002,0,-3.5514,-259.0000,-0.0080,-3.5514,-259.0000,-0.0080,20.1671,54.1351,0.0200,0.0000
-39.8525,14.5182,-5.2907,0.0000,-0.0000,0.1200,0.0000,0.0000,0.0000,0.0961,-0.0318,-0.0025,996,1502,1500,1500,2008,1000,1505,1000,1000,1982,1370,1699,1016,-1.0668,-0.4233,0.3729,-0.0534,-0.0712,1.0040,0.1254,-0.0618,-0.1303,0.0667,0.2204,0.0300,0.0438,0.2204,0.0300,0.0438,0.3000,0.0600,0.0002,0,-3.5514,-259.0000,-0.0080,-3.5514,-259.0000,-0.0080,20.2104,54.1719,0.0200,0.0000
-39.8231,14.5071,-5.2739,0.0000,-0.0000,0.2400,0.0600,0.3200,0.0000,0.0962,-0.0316,-0.0005,997,1503,1500,1500,2008,1000,1505,1000,1000,1982,1370,1699,1016,-0.9710,-0.5622,0.3868,-0.0523,-0.0764,1.0054,0.1273,-0.0641,-0.1283,0.0651,0.2204,0.0300,0.0438,0.2204,0.0300,0.0438,0.3000,0.0600,0.0002,0,-3.5514,-259.0000,-0.0080,-3.5514,-259.0000,-0.0080,20.2536,54.2087,0.0400,0.0100
-39.7915,14.4943,-5.2576,0.0000,-0.0000,0.1200,0.0000,0.0000,0.0000,0.0958,-0.0317,-0.0019,996,1502,1500,1500,2008,1000,1505,1000,1000,1982,1370,1699,1016,-0.6711,-0.5247,0.2124,-0.0534,-0.0740,1.0042,0.1256,-0.0621,-0.1294,0.0659,0.2204,0.0300,0.0438,0.2204,0.0300,0.0438,0.3000,0.0600,0.0002,0,-3.5514,-259.0000,-0.0080,-3.5514,-259.0000,-0.0080,20.2968,54.2455,0.0200,0.0000
-39.7574,14.4824,-5.2434,0.0829,-0.0821,0.1200,0.0000,0.0000,0.0000,0.0956,-0.0318,-0.0018,996,1502,1500,1500,2008,1000,1505,1000,1000,1982,1371,1699,1016,-0.3772,-0.3075,0.1475,-0.0496,-0.0738,1.0045,0.1256,-0.0620,-0.1291,0.0655,0.2204,0.0300,0.0438,0.2204,0.0300,0.0438,0.3000,0.0600,0.0002,0,-3.5514,-259.7000,-0.0080,-3.5514,-259.7000,-0.0080,20.3401,54.2822,0.0200,0.0000
-39.7212,14.4724,-5.2322,0.0000,-0.0821,0.1200,0.0000,0.0000,0.0000,0.0954,-0.0319,-0.0015,996,1502,1500,1500,2008,1000,1505,1000,1000,1982,1371,1699,1016,-0.1806,0.0325,0.0536,-0.0495,-0.0709,1.0047,0.1258,-0.0620,-0.1288,0.0649,0.2204,0.0300,0.0438,0.2204,0.0300,0.0438,0.3000,0.0600,0.0002,0,-3.5514,-259.7000,-0.0080,-3.5514,-259.7000,-0.0080,20.3833,54.3189,0.0200,0.0000
-39.6846,14.4641,-5.2231,0.0000,-0.0000,0.1200,0.0000,0.0000,0.0000,0.0953,-0.0320,-0.0014,996,1502,1500,1500,2008,1000,1505,1000,1000,1982,1370,1699,1016,-0.1792,0.2390,0.0390,-0.0476,-0.0705,0.9996,0.1258,-0.0619,-0.1287,0.0648,0.2204,0.0300,0.0438,0.2204,0.0300,0.0438,0.3000,0.0600,0.0002,0,-3.5514,-259.0000,-0.0080,-3.5514,-259.0000,-0.0080,20.4266,54.3556,0.0200,0.0000
-39.6491,14.4570,-5.2156,0.0000,-0.0000,0.1200,0.0000,0.0000,0.0000,0.0953,-0.0320,-0.0013,996,1502,1500,1500,2008,1000,1505,1000,1000,1982,1370,1699,1016,-0.3922,0.3760,-0.0075,-0.0552,-0.0663,1.0000,0.1260,-0.0620,-0.1287,0.0646,0.2204,0.0300,0.0438,0.2204,0.0300,0.0438,0.3000,0.0600,0.0002,0,-3.5514,-259.0000,-0.0080,-3.5514,-259.0000,-0.0080,20.4699,54.3923,0.0200,0.0000
-39.6186,14.4513,-5.2095,0.0000,-0.0000,0.2400,0.0600,0.3200,0.0000,0.0958,-0.0319,0.0006,997,1503,1500,1500,2008,1000,1505,1000,1000,1982,1370,1699,1016,-0.9494,0.5252,-0.0100,-0.0528,-0.0648,1.0004,0.1283,-0.0644,-0.1271,0.0632,0.2204,0.0300,0.0438,0.2204,0.0300,0.0438,0.3000,0.0600,0.0002,0,-3.5514,-259.0000,-0.0080,-3.5514,-259.0000,-0.0080,20.5132,54.4290,0.0400,0.0100
-39.5942,14.4461,-5.2026,0.0000,-0.0821,0.1200,0.0000,0.0000,0.0000,0.0957,-0.0320,-0.0016,996,1502,1500,1500,2008,1000,1505,1000,1000,1982,1370,1699,1016,-1.5886,0.4467,0.0787,-0.0560,-0.0650,1.0042,0.1262,-0.0621,-0.1293,0.0652,0.2204,0.0300,0.0438,0.2204,0.0300,0.0438,0.3000,0.0600,0.0002,0,-3.5514,-259.0000,-0.0080,-3.5514,-259.0000,-0.0080,20.5566,54.4658,0.0200,0.0000
-39.5759,14.4411,-5.1949,0.0000,-0.0000,0.1200,0.0000,0.0000,0.0000,0.0959,-0.0320,-0.0020,996,1502,1500,1500,2008,1000,1505,1000,1000,1982,1370,1699,1016,-2.1713,0.4996,0.2162,-0.0529,-0.0600,1.0012,0.1260,-0.0619,-0.1300,0.0659,0.2204,0.0300,0.0438,0.2204,0.0300,0.0438,0.3000,0.0600,0.0002,0,-3.5514,-259.0000,-0.0080,-3.5514,-259.0000,-0.0080,20.6000,54.5025,0.0200,0.0000
-39.5633,14.4375,-5.1863,0.0000,-0.0000,0.1200,0.0000,0.0000,0.0000,0.0961,-0.0320,-0.0023,996,1502,1500,1500,2008,1000,1505,1000,1000,1982,1370,1699,1016,-2.6558,0.4587,0.3192,-0.0511,-0.0647,1.0003,0.1259,-0.0618,-0.1304,0.0664,0.2204,0.0300,0.0438,0.2204,0.0300,0.0438,0.3000,0.0600,0.0002,0,-3.5514,-259.0000,-0.0080,-3.5514,-259.0000,-0.0080,20.6434,54.5392,0.0200,0.0000
-39.5546,14.4346,-5.1753,0.0829,-0.0000,0.1200,0.0000,0.0000,0.0000,0.0962,-0.0320,-0.0031,996,1502,1500,1500,2008,1000,1505,1000,1000,1982,1370,1699,1016,-2.9748,0.3264,0.5852,-0.0546,-0.0690,1.0028,0.1251,-0.0612,-0.1313,0.0674,0.2204,0.0300,0.0438,0.2204,0.0300,0.0438,0.3000,0.0600,0.0002,0,-3.5514,-259.0000,-0.0080,-3.5514,-259.0000,-0.0080,20.6868,54.5759,0.0200,0.0000
-39.5476,14.4320,-5.1625,-0.1657,-0.1642,0.1200,0.0000,0.0000,0.0000,0.0963,-0.0320,-0.0035,996,1502,1500,1500,2008,1000,1505,1000,1000,1982,1370,1699,1016,-3.1659,0.3350,0.7325,-0.0525,-0.0758,1.0021,0.1247,-0.0608,-0.1318,0.0679,0.2204,0.0300,0.0438,0.2204,0.0300,0.0438,0.3000,0.0600,0.0002,0,-3.5514,-259.0000,-0.0080,-3.5514,-259.0000,-0.0080,20.7302,54.6127,0.0200,0.0000
-39.5406,14.4292,-5.1484,0.0000,0.0821,0.2400,0.0600,0.3200,0.0000,0.0965,-0.0318,-0.0017,997,1503,1500,1500,2008,1000,1505,1000,1000,1982,1371,1699,1016,-3.0964,0.2416,0.7832,-0.0552,-0.0758,1.0042,0.1266,-0.0630,-0.1300,0.0665,0.2204,0.0300,0.0438,0.2204,0.0300,0.0438,0.3000,0.0600,0.0002,0,-3.5514,-259.7000,-0.0080,-3.5514,-259.7000,-0.0080,20.7737,54.6494,0.0400,0.0100
-39.5330,14.4257,-5.1347,-0.1657,-0.2462,0.1200,0.0000,0.0000,0.0000,0.0962,-0.0319,-0.0033,996,1502,1500,1500,2008,1000,1505,1000,1000,1982,1371,1699,1016,-2.9808,0.2427,0.6526,-0.0553,-0.0766,1.0001,0.1248,-0.0610,-0.1314,0.0676,0.2204,0.0300,0.0438,0.2204,0.0300,0.0438,0.3000,0.0600,0.0002,0,-3.5514,-259.7000,-0.0080,-3.5514,-259.7000,-0.0080,20.8171,54.6860,0.0200,0.0000
-39.5245,14.4217,-5.1224,0.0000,-0.0000,0.1200,0.0000,0.0000,0.0000,0.0961,-0.0319,-0.0028,996,1502,1500,1500,2008,1000,1505,1000,1000,1982,1370,1699,1016,-2.8755,0.2890,0.5067,-0.0536,-0.0789,1.0005,0.1252,-0.0614,-0.1309,0.0671,0.2204,0.0300,0.0438,0.2204,0.0300,0.0438,0.3000,0.0600,0.0002,0,-3.5514,-259.0000,-0.0080,-3.5514,-259.0000,-0.0080,20.8606,54.7227,0.0200,0.0000
-39.5152,14.4175,-5.1109,0.0000,-0.0000,0.1200,0.0000,0.0000,0.0000,0.0961,-0.0319,-0.0026,996,1502,1500,1500,2008,1000,1505,1000,1000,1982,1370,1699,1016,-2.8180,0.3693,0.4314,-0.0559,-0.0769,1.0034,0.1254,-0.0615,-0.1306,0.0668,0.2204,0.0300,0.0438,0.2204,0.0300,0.0438,0.3000,0.0600,0.0002,0,-3.5514,-259.0000,-0.0080,-3.5514,-259.0000,-0.0080,20.9041,54.7594,0.0200,0.0000
-39.5064,14.4131,-5.1011,0.0000,-0.0000,0.1200,0.0000,0.0000,0.0000,0.0961,-0.0320,-0.0021,996,1502,1500,1500,2008,1000,1505,1000,1000,1982,1370,1699,1016,-2.8071,0.4372,0.2570,-0.0505,-0.0729,0.9980,0.1259,-0.0620,-0.1301,0.0662,0.2204,0.0300,0.0438,0.2204,0.0300,0.0438,0.3000,0.0600,0.0002,0,-3.5514,-259.0000,-0.0080,-3.5514,-259.0000,-0.0080,20.9476,54.7960,0.0200,0.0000
-39.4985,14.4079,-5.0927,0.0000,-0.0000,0.1200,0.0000,0.0000,0.0000,0.0961,-0.0320,-0.0017,996,1502,1500,1500,2008,1000,1505,1000,1000,1982,1370,1699,1016,-3.0243,0.4473,0.1296,-0.0519,-0.0718,0.9987,0.1264,-0.0625,-0.1298,0.0659,0.2204,0.0300,0.0438,0.2204,0.0300,0.0438,0.3000,0.0600,0.0002,0,-3.5514,-259.0000,-0.0080,-3.5514,-259.0000,-0.0080,20.9911,54.8327,0.0200,0.0000
-39.4931,14.4039,-5.0852,0.0829,0.0821,0.2400,0.0600,0.3200,0.0000,0.0965,-0.0319,-0.0002,997,1503,1500,1500,2008,1000,1505,1000,1000,1982,1370,1699,1016,-3.1997,0.6428,0.2427,-0.0523,-0.0714,1.0059,0.1282,-0.0644,-0.1286,0.0648,0.2204,0.0300,0.0438,0.2204,0.0300,0.0438,0.3000,0.0600,0.0002,0,-3.5514,-259.0000,-0.0080,-3.5514,-259.0000,-0.0080,21.0346,54.8693,0.0400,0.0100
-39.4900,14.4010,-5.0780,0.0000,-0.0000,0.1200,0.0000,0.0000,0.0000,0.0963,-0.0320,-0.0024,996,1502,1500,1500,2008,1000,1505,1000,1000,1982,1370,1699,1016,-3.4190,0.6269,0.3350,-0.0532,-0.0723,0.9956,0.1259,-0.0619,-0.1307,0.0667,0.2204,0.0300,0.0438,0.2204,0.0300,0.0438,0.3000,0.0600,0.0002,0,-3.5514,-259.0000,-0.0080,-3.5514,-259.0000,-0.0080,21.0782,54.9060,0.0200,0.0000
-39.4887,14.3996,-5.0698,-0.0829,-0.0000,0.1200,0.0000,0.0000,0.0000,0.0964,-0.0320,-0.0029,996,1502,1500,1500,2008,1000,1505,1000,1000,1982,1370,1699,1016,-3.6181,0.7021,0.4933,-0.0533,-0.0730,1.0001,0.1256,-0.0615,-0.1313,0.0672,0.2204,0.0300,0.0438,0.2204,0.0300,0.0438,0.3000,0.0600,0.0002,0,-3.5514,-259.0000,-0.0080,-3.5514,-259.0000,-0.0080,21.1218,54.9427,0.0200,0.0000
-39.4888,14.3996,-5.0601,0.0000,-0.0000,0.1200,0.0000,0.0000,0.0000,0.0965,-0.0321,-0.0035,996,1502,1500,1500,2008,1000,1505,1000,1000,1982,1371,1699,1016,-3.7968,0.7741,0.6926,-0.0565,-0.0748,0.9948,0.1251,-0.0609,-0.1320,0.0679,0.2204,0.0300,0.0438,0.2204,0.0300,0.0438,0.3000,0.0600,0.0002,0,-3.5514,-259.7000,-0.0080,-3.5514,-259.7000,-0.0080,21.1654,54.9794,0.0200,0.0000
-39.4904,14.4007,-5.0494,0.0000,-0.0000,0.1200,0.0000,0.0000,0.0000,0.0965,-0.0320,-0.0035,996,1502,1500,1500,2008,1000,1505,1000,1000,1982,1371,1699,1016,-3.8588,0.6778,0.7275,-0.0538,-0.0784,1.0003,0.1250,-0.0609,-0.1321,0.0680,0.2204,0.0300,0.0438,0.2204,0.0300,0.0438,0.3000,0.0600,0.0002,0,-3.5514,-259.7000,-0.0080,-3.5514,-259.7000,-0.0080,21.2090,55.0160,0.0200,0.0000
-39.4921,14.4009,-5.0383,0.0000,-0.0000,0.1200,0.0000,0.0000,0.0000,0.0965,-0.0320,-0.0035,996,1502,1500,1500,2008,1000,1505,1000,1000,1982,1371,1699,1016,-3.9501,0.6620,0.7144,-0.0548,-0.0816,1.0001,0.1250,-0.0610,-0.1321,0.0680,0.2204,0.0300,0.0438,0.2204,0.0300,0.0438,0.3000,0.0600,0.0002,0,-3.5514,-259.7000,-0.0080,-3.5514,-259.7000,-0.0080,21.2526,55.0525,0.0200,0.0000
-39.4951,14.4013,-5.0283,0.0000,-0.0000,0.2400,0.0600,0.3200,0.0000,0.0968,-0.0319,-0.0012,997,1503,1500,1500,2008,1000,1505,1000,1000,1982,1371,1699,1016,-3.9804,0.6990,0.5839,-0.0563,-0.0819,1.0014,0.1275,-0.0637,-0.1299,0.0661,0.2204,0.0300,0.0438,0.2204,0.0300,0.0438,0.3000,0.0600,0.0002,0,-3.5514,-259.7000,-0.0080,-3.5514,-259.7000,-0.0080,21.2962,55.0890,0.0400,0.0100
-39.4984,14.4005,-5.0184,0.0829,0.0821,0.1200,0.0000,0.0000,0.0000,0.0965,-0.0320,-0.0030,996,1502,1500,1500,2008,1000,1505,1000,1000,1982,1371,1699,1016,-3.9323,0.6052,0.5318,-0.0517,-0.0821,0.9991,0.1255,-0.0615,-0.1315,0.0675,0.2204,0.0300,0.0438,0.2204,0.0300,0.0438,0.3000,0.0600,0.0002,0,-3.5514,-259.7000,-0.0080,-3.5514,-259.7000,-0.0080,21.3398,55.1256,0.0200,0.0000
-39.5018,14.3989,-5.0089,0.0829,0.0821,0.1200,0.0000,0.0000,0.0000,0.0966,-0.0320,-0.0029,996,1502,1500,1500,2008,1000,1505,1000,1000,1982,1370,1699,1016,-3.9828,0.6694,0.4939,-0.0558,-0.0814,1.0033,0.1257,-0.0617,-0.1315,0.0674,0.2204,0.0300,0.0438,0.2204,0.0300,0.0438,0.3000,0.0600,0.0002,0,-3.5514,-259.0000,-0.0080,-3.5514,-259.0000,-0.0080,21.3835,55.1621,0.0200,0.0000
-39.5056,14.3972,-4.9998,0.0000,0.0821,0.1200,0.0000,0.0000,0.0000,0.0966,-0.0319,-0.0027,996,1502,1500,1500,2008,1000,1505,1000,1000,1982,1370,1699,1016,-3.9593,0.4987,0.4496,-0.0532,-0.0801,1.0033,0.1258,-0.0619,-0.1312,0.0673,0.2204,0.0300,0.0438,0.2204,0.0300,0.0438,0.3000,0.0600,0.0002,0,-3.5514,-259.0000,-0.0080,-3.5514,-259.0000,-0.0080,21.4271,55.1986,0.0200,0.0000
-39.5078,14.3937,-4.9901,0.0829,-0.0000,0.1200,0.0000,0.0000,0.0000,0.0965,-0.0319,-0.0023,996,1502,1500,1500,2008,1000,1505,1000,1000,1982,1370,1699,1016,-3.8256,0.4110,0.3099,-0.0566,-0.0826,0.9958,0.1261,-0.0623,-0.1307,0.0669,0.2204,0.0300,0.0438,0.2204,0.0300,0.0438,0.3000,0.0600,0.0002,0,-3.5514,-259.0000,-0.0080,-3.5514,-259.0000,-0.0080,21.4708,55.2352,0.0200,0.0000
-39.5086,14.3888,-4.9800,0.0000,0.0821,0.1200,0.0000,0.0000,0.0000,0.0964,-0.0318,-0.0025,996,1502,1500,1500,2008,1000,1505,1000,1000,1982,1370,1699,1016,-3.6319,0.2621,0.3745,-0.0582,-0.0853,0.9972,0.1257,-0.0621,-0.1308,0.0671,0.2204,0.0300,0.0438,0.2204,0.0300,0.0438,0.3000,0.0600,0.0002,0,-3.5514,-259.0000,-0.0080,-3.5514,-259.0000,-0.0080,21.5145,55.2717,0.0200,0.0000
-39.5069,14.3833,-4.9685,-0.1657,-0.0821,0.2400,0.0600,0.3200,0.0000,0.0966,-0.0316,-0.0007,997,1503,1500,1500,2008,1000,1505,1000,1000,1982,1370,1699,1016,-3.5177,0.1037,0.4137,-0.0570,-0.0875,1.0053,0.1275,-0.0643,-0.1290,0.0658,0.2204,0.0300,0.0438,0.2204,0.0300,0.0438,0.3000,0.0600,0.0002,0,-3.5514,-259.0000,-0.0080,-3.5514,-259.0000,-0.0080,21.5582,55.3082,0.0400,0.0100
-39.5030,14.3772,-4.9566,0.0000,-0.0000,0.1200,0.0000,0.0000,0.0000,0.0962,-0.0317,-0.0025,996,1502,1500,1500,2008,1000,1505,1000,1000,1982,1370,1699,1016,-3.2137,0.1087,0.3503,-0.0583,-0.0858,0.9975,0.1255,-0.0620,-0.1304,0.0670,0.2204,0.0300,0.0438,0.2204,0.0300,0.0438,0.3000,0.0600,0.0002,0,-3.5514,-259.0000,-0.0080,-3.5514,-259.0000,-0.0080,21.6020,55.3447,0.0200,0.0000
-39.4965,14.3707,-4.9445,-0.1657,-0.0000,0.1200,0.0000,0.0000,0.0000,0.0961,-0.0317,-0.0025,996,1502,1500,1500,2008,1000,1505,1000,1000,1982,1370,1699,1016,-3.0018,0.1398,0.3954,-0.0544,-0.0884,1.0009,0.1253,-0.0619,-0.1304,0.0669,0.2204,0.0300,0.0438,0.2204,0.0300,0.0438,0.3000,0.0600,0.0002,0,-3.5514,-259.0000,-0.0080,-3.5514,-259.0000,-0.0080,21.6457,55.3811,0.0200,0.0000
-39.4891,14.3641,-4.9328,0.0829,0.0821,0.1200,0.0000,0.0000,0.0000,0.0961,-0.0317,-0.0022,996,1502,1500,1500,2008,1000,1505,1000,1000,1982,1371,1699,1016,-2.9446,0.1692,0.2812,-0.0554,-0.0895,0.9950,0.1256,-0.0622,-0.1300,0.0665,0.2204,0.0300,0.0438,0.2204,0.0300,0.0438,0.3000,0.0600,0.0002,0,-3.5514,-259.7000,-0.0080,-3.5514,-259.7000,-0.0080,21.6894,55.4176,0.0200,0.0000
-39.4810,14.3568,-4.9224,-0.0829,-0.1642,0.1200,0.0000,0.0000,0.0000,0.0961,-0.0317,-0.0018,996,1502,1500,1500,2008,1000,1505,1000,1000,1982,1371,1699,1016,-2.9023,0.1226,0.1664,-0.0538,-0.0874,0.9944,0.1259,-0.0625,-0.1296,0.0662,0.2204,0.0300,0.0438,0.2204,0.0300,0.0438,0.3000,0.0600,0.0002,0,-3.5514,-259.7000,-0.0080,-3.5514,-259.7000,-0.0080,21.7333,55.4541,0.0200,0.0000
-39.4736,14.3496,-4.9135,0.0829,-0.0000,0.1200,0.0000,0.0000,0.0000,0.0960,-0.0317,-0.0016,996,1502,1500,1500,2008,1000,1505,1000,1000,1982,1371,1699,1016,-2.9200,0.2794,0.0789,-0.0569,-0.0873,1.0006,0.1262,-0.0627,-0.1294,0.0659,0.2204,0.0300,0.0438,0.2204,0.0300,0.0438,0.3000,0.0600,0.0002,0,-3.5514,-259.7000,-0.0080,-3.5514,-259.7000,-0.0080,21.7771,55.4907,0.0200,0.0000
-39.4658,14.3422,-4.9047,-0.0829,0.0821,0.2400,0.0600,0.3200,0.0000,0.0963,-0.0316,0.0006,997,1503,1500,1500,2008,1000,1505,1000,1000,1982,1370,1699,1016,-2.8693,0.1782,-0.0118,-0.0574,-0.0845,0.9974,0.1284,-0.0653,-0.1272,0.0641,0.2204,0.0300,0.0438,0.2204,0.0300,0.0438,0.3000,0.0600,0.0002,0,-3.5514,-259.0000,-0.0080,-3.5514,-259.0000,-0.0080,21.8209,55.5272,0.0400,0.0100
-39.4573,14.3326,-4.8964,0.0000,-0.0000,0.1200,0.0000,0.0000,0.0000,0.0960,-0.0316,-0.0012,996,1502,1500,1500,2008,1000,1505,1000,1000,1982,1370,1699,1016,-2.8070,0.0204,-0.0750,-0.0578,-0.0882,0.9953,0.1264,-0.0632,-0.1287,0.0655,0.2204,0.0300,0.0438,0.2204,0.0300,0.0438,0.3000,0.0600,0.0002,0,-3.5514,-259.0000,-0.0080,-3.5514,-259.0000,-0.0080,21.8648,55.5637,0.0200,0.0000
-39.4481,14.3223,-4.8872,0.0829,-0.0000,0.1200,0.0000,0.0000,0.0000,0.0959,-0.0316,-0.0013,996,1502,1500,1500,2008,1000,1505,1000,1000,1982,1371,1699,1016,-2.7644,-0.0242,-0.0369,-0.0581,-0.0882,0.9991,0.1262,-0.0631,-0.1287,0.0656,0.2204,0.0300,0.0438,0.2204,0.0300,0.0438,0.3000,0.0600,0.0002,0,-3.5514,-259.7000,-0.0080,-3.5514,-259.7000,-0.0080,21.9087,55.6002,0.0200,0.0000
-39.4371,14.3119,-4.8780,0.0000,0.0821,0.1200,0.0000,0.0000,0.0000,0.0958,-0.0315,-0.0011,996,1502,1500,1500,2008,1000,1505,1000,1000,1982,1371,1699,1016,-2.5446,-0.0324,-0.0784,-0.0562,-0.0937,0.9963,0.1262,-0.0631,-0.1285,0.0654,0.2204,0.0300,0.0438,0.2204,0.0300,0.0438,0.3000,0.0600,0.0002,0,-3.5514,-259.7000,-0.0080,-3.5514,-259.7000,-0.0080,21.9526,55.6367,0.0200,0.0000
-39.4244,14.3008,-4.8688,-0.0829,0.0821,0.1200,0.0000,0.0000,0.0000,0.0957,-0.0315,-0.0012,996,1502,1500,1500,2008,1000,1505,1000,1000,1982,1370,1699,1016,-2.3371,-0.0491,-0.0514,-0.0542,-0.0920,1.0025,0.1259,-0.0629,-0.1284,0.0654,0.2204,0.0300,0.0438,0.2204,0.0300,0.0438,0.3000,0.0600,0.0002,0,-3.5514,-259.0000,-0.0080,-3.5514,-259.0000,-0.0080,21.9965,55.6732,0.0200,0.0000
-39.4096,14.2903,-4.8590,0.0000,0.0821,0.1200,0.0000,0.0000,0.0000,0.0956,-0.0315,-0.0015,996,1502,1500,1500,2008,1000,1505,1000,1000,1982,1370,1699,1016,-2.1454,-0.0800,0.0250,-0.0563,-0.0936,0.9995,0.1255,-0.0626,-0.1285,0.0656,0.2204,0.0300,0.0438,0.2204,0.0300,0.0438,0.3000,0.0600,0.0002,0,-3.5514,-259.0000,-0.0080,-3.5514,-259.0000,-0.0080,22.0404,55.7096,0.0200,0.0000
-39.3929,14.2802,-4.8487,0.0000,-0.0000,0.2400,0.0600,0.3200,0.0000,0.0957,-0.0313,0.0004,997,1503,1500,1500,2008,1000,1505,1000,1000,1982,1370,1699,1016,-1.9751,-0.1530,0.0536,-0.0557,-0.0905,0.9993,0.1274,-0.0648,-0.1266,0.0641,0.2204,0.0300,0.0438,0.2204,0.0300,0.0438,0.3000,0.0600,0.0002,0,-3.5514,-259.0000,-0.0080,-3.5514,-259.0000,-0.0080,22.0843,55.7460,0.0400,0.0100
-39.3738,14.2697,-4.8381,0.0000,-0.0000,0.1200,0.0000,0.0000,0.0000,0.0953,-0.0314,-0.0017,996,1502,1500,1500,2008,1000,1505,1000,1000,1982,1370,1699,1016,-1.7538,-0.0900,0.0866,-0.0546,-0.0928,0.9979,0.1250,-0.0622,-0.1284,0.0656,0.2204,0.0300,0.0438,0.2204,0.0300,0.0438,0.3000,0.0600,0.0002,0,-3.5514,-259.0000,-0.0080,-3.5514,-259.0000,-0.0080,22.1282,55.7824,0.0200,0.0000
-39.3532,14.2592,-4.8269,0.0829,0.1642,0.1200,0.0000,0.0000,0.0000,0.0952,-0.0314,-0.0016,996,1502,1500,1500,2008,1000,1505,1000,1000,1982,1370,1699,1016,-1.7108,-0.1572,0.0650,-0.0559,-0.0941,0.9977,0.1250,-0.0623,-0.1282,0.0655,0.2204,0.0300,0.0438,0.2204,0.0300,0.0438,0.3000,0.0600,0.0002,0,-3.5514,-259.0000,-0.0080,-3.5514,-259.0000,-0.0080,22.1722,55.8188,0.0200,0.0000
-39.3318,14.2483,-4.8148,0.1657,0.0821,0.1200,0.0000,0.0000,0.0000,0.0952,-0.0313,-0.0018,996,1502,1500,1500,2008,1000,1505,1000,1000,1982,1370,1699,1016,-1.6807,-0.2513,0.1452,-0.0533,-0.0889,1.0029,0.1247,-0.0621,-0.1283,0.0657,0.2204,0.0300,0.0438,0.2204,0.0300,0.0438,0.3000,0.0600,0.0002,0,-3.5514,-259.0000,-0.0080,-3.5514,-259.0000,-0.0080,22.2161,55.8552,0.0200,0.0000
-39.3107,14.2374,-4.8033,0.0000,-0.0000,0.1200,0.0000,0.0000,0.0000,0.0952,-0.0313,-0.0019,996,1502,1500,1500,2008,1000,1505,1000,1000,1982,1370,1699,1016,-1.8290,-0.1130,0.1642,-0.0527,-0.0925,1.0005,0.1246,-0.0620,-0.1284,0.0658,0.2204,0.0300,0.0438,0.2204,0.0300,0.0438,0.3000,0.0600,0.0002,0,-3.5514,-259.0000,-0.0080,-3.5514,-259.0000,-0.0080,22.2601,55.8916,0.0200,0.0000
-39.2915,14.2283,-4.7920,0.0000,0.0821,0.1200,0.0000,0.0000,0.0000,0.0952,-0.0313,-0.0018,996,1502,1500,1500,2008,1000,1505,1000,1000,1982,1371,1699,1016,-1.9820,-0.0628,0.1454,-0.0543,-0.0878,0.9986,0.1247,-0.0621,-0.1284,0.0657,0.2204,0.0300,0.0438,0.2204,0.0300,0.0438,0.3000,0.0600,0.0002,0,-3.5514,-259.7000,-0.0080,-3.5514,-259.7000,-0.0080,22.3041,55.9281,0.0200,0.0000
-39.2754,14.2194,-4.7815,0.0829,0.0821,0.2400,0.0600,0.3200,0.0000,0.0956,-0.0313,0.0001,997,1503,1500,1500,2008,1000,1505,1000,1000,1982,1370,1699,1016,-2.3500,0.1128,0.1394,-0.0566,-0.0887,0.9937,0.1270,-0.0645,-0.1268,0.0643,0.2204,0.0300,0.0438,0.2204,0.0300,0.0438,0.3000,0.0600,0.0002,0,-3.5514,-259.0000,-0.0080,-3.5514,-259.0000,-0.0080,22.3482,55.9645,0.0400,0.0100
-39.2631,14.2110,-4.7713,0.0000,-0.0000,0.1200,0.0000,0.0000,0.0000,0.0955,-0.0313,-0.0017,996,1502,1500,1500,2008,1000,1505,1000,1000,1982,1370,1699,1016,-2.6939,0.0646,0.1164,-0.0553,-0.0885,1.0046,0.1251,-0.0624,-0.1286,0.0659,0.2204,0.0300,0.0438,0.2204,0.0300,0.0438,0.3000,0.0600,0.0002,0,-3.5514,-259.0000,-0.0080,-3.5514,-259.0000,-0.0080,22.3922,56.0009,0.0200,0.0000
-39.2547,14.2029,-4.7619,0.0000,0.0821,0.1200,0.0000,0.0000,0.0000,0.0956,-0.0314,-0.0016,996,1502,1500,1500,2008,1000,1505,1000,1000,1982,1370,1699,1016,-3.0874,0.1991,0.0596,-0.0560,-0.0891,1.0008,0.1254,-0.0626,-0.1286,0.0658,0.2204,0.0300,0.0438,0.2204,0.0300,0.0438,0.3000,0.0600,0.0002,0,-3.5514,-259.0000,-0.0080,-3.5514,-259.0000,-0.0080,22.4363,56.0373,0.0200,0.0000
-39.2496,14.1953,-4.7529,-0.0829,-0.1642,0.1200,0.0000,0.0000,0.0000,0.0957,-0.0314,-0.0016,996,1502,1500,1500,2008,1000,1505,1000,1000,1982,1370,1699,1016,-3.2899,0.2408,0.0932,-0.0559,-0.0921,0.9999,0.1255,-0.0627,-0.1287,0.0659,0.2204,0.0300,0.0438,0.2204,0.0300,0.0438,0.3000,0.0600,0.0002,0,-3.5514,-259.0000,-0.0080,-3.5514,-259.0000,-0.0080,22.4803,56.0736,0.0200,0.0000
-39.2455,14.1877,-4.7449,0.0000,0.0821,0.1200,0.0000,0.0000,0.0000,0.0957,-0.0314,-0.0015,996,1502,1500,1500,2008,1000,1505,1000,1000,1982,1371,1699,1016,-3.2749,0.2593,0.0362,-0.0568,-0.0958,0.9993,0.1256,-0.0628,-0.1286,0.0658,0.2204,0.0300,0.0438,0.2204,0.0300,0.0438,0.3000,0.0600,0.0002,0,-3.5514,-259.7000,-0.0080,-3.5514,-259.7000,-0.0080,22.5244,56.1099,0.0200,0.0000
-39.2408,14.1788,-4.7362,-0.1657,-0.1642,0.1200,0.0000,0.0000,0.0000,0.0956,-0.0313,-0.0015,996,1502,1500,1500,2008,1000,1505,1000,1000,1982,1371,1699,1016,-3.0824,0.1790,0.0360,-0.0537,-0.0981,1.0005,0.1254,-0.0627,-0.1285,0.0658,0.2204,0.0300,0.0438,0.2204,0.0300,0.0438,0.3000,0.0600,0.0002,0,-3.5514,-259.7000,-0.0080,-3.5514,-259.7000,-0.0080,22.5685,56.1463,0.0200,0.0000
-39.2343,14.1714,-4.7283,0.0000,0.0821,0.2400,0.0600,0.3200,0.0000,0.0958,-0.0313,0.0003,997,1503,1500,1500,2008,1000,1505,1000,1000,1982,1370,1699,1016,-2.9537,0.3415,0.0608,-0.0547,-0.0971,0.9988,0.1274,-0.0649,-0.1267,0.0642,0.2204,0.0300,0.0438,0.2204,0.0300,0.0438,0.3000,0.0600,0.0002,0,-3.5514,-259.0000,-0.0080,-3.5514,-259.0000,-0.0080,22.6126,56.1826,0.0400,0.0100
-39.2258,14.1641,-4.7206,0.0000,0.0821,0.1200,0.0000,0.0000,0.0000,0.0954,-0.0313,-0.0014,996,1502,1500,1500,2008,1000,1505,1000,1000,1982,1371,1699,1016,-2.7177,0.2987,-0.0074,-0.0549,-0.0999,0.9964,0.1254,-0.0627,-0.1281,0.0654,0.2204,0.0300,0.0438,0.2204,0.0300,0.0438,0.3000,0.0600,0.0002,0,-3.5514,-259.7000,-0.0080,-3.5514,-259.7000,-0.0080,22.6568,56.2189,0.0200,0.0000
-39.2155,14.1561,-4.7138,0.0000,0.0821,0.1200,0.0000,0.0000,0.0000,0.0953,-0.0314,-0.0011,996,1502,1500,1500,2008,1000,1505,1000,1000,1982,1371,1699,1016,-2.5882,0.3533,-0.0922,-0.0565,-0.0994,1.0012,0.1256,-0.0629,-0.1278,0.0651,0.2204,0.0300,0.0438,0.2204,0.0300,0.0438,0.3000,0.0600,0.0002,0,-3.5514,-259.7000,-0.0080,-3.5514,-259.7000,-0.0080,22.7010,56.2552,0.0200,0.0000
-39.2039,14.1484,-4.7068,0.0000,-0.0000,0.1200,0.0000,0.0000,0.0000,0.0952,-0.0313,-0.0011,996,1502,1500,1500,2008,1000,1505,1000,1000,1982,1371,1699,1016,-2.4643,0.2615,-0.0713,-0.0558,-0.0974,1.0026,0.1255,-0.0629,-0.1276,0.0650,0.2204,0.0300,0.0438,0.2204,0.0300,0.0438,0.3000,0.0600,0.0002,0,-3.5514,-259.7000,-0.0080,-3.5514,-259.7000,-0.0080,22.7451,56.2915,0.0200,0.0000
-39.1919,14.1395,-4.6996,0.0829,0.1642,0.1200,0.0000,0.0000,0.0000,0.0953,-0.0313,-0.0012,996,1502,1500,1500,2008,1000,1505,1000,1000,1982,1371,1699,1016,-2.5287,0.2111,-0.0689,-0.0533,-0.0950,1.0020,0.1253,-0.0628,-0.1277,0.0652,0.2204,0.0300,0.0438,0.2204,0.0300,0.0438,0.3000,0.0600,0.0002,0,-3.5514,-259.7000,-0.0080,-3.5514,-259.7000,-0.0080,22.7892,56.3278,0.0200,0.0000
-39.1807,14.1303,-4.6917,0.0829,0.0821,0.1200,0.0000,0.0000,0.0000,0.0952,-0.0312,-0.0015,996,1502,1500,1500,2008,1000,1505,1000,1000,1982,1370,1699,1016,-2.5665,0.2239,0.0207,-0.0551,-0.0966,0.9992,0.1250,-0.0625,-0.1280,0.0655,0.2204,0.0300,0.0438,0.2204,0.0300,0.0438,0.3000,0.0600,0.0002,0,-3.5514,-259.0000,-0.0080,-3.5514,-259.0000,-0.0080,22.8334,56.3641,0.0200,0.0000
-39.1700,14.1222,-4.6830,0.0000,-0.0000,0.2400,0.0600,0.3200,0.0000,0.0955,-0.0311,0.0005,997,1503,1500,1500,2008,1000,1505,1000,1000,1982,1370,1699,1016,-2.6859,0.1657,0.0083,-0.0572,-0.0960,0.9959,0.1272,-0.0650,-0.1261,0.0639,0.2204,0.0300,0.0438,0.2204,0.0300,0.0438,0.3000,0.0600,0.0002,0,-3.5514,-259.0000,-0.0080,-3.5514,-259.0000,-0.0080,22.8777,56.4004,0.0400,0.0100
-39.1600,14.1130,-4.6742,0.0829,0.0821,0.1200,0.0000,0.0000,0.0000,0.0953,-0.0311,-0.0014,996,1502,1500,1500,2008,1000,1505,1000,1000,1982,1370,1699,1016,-2.7284,0.0808,0.0031,-0.0584,-0.0965,0.9966,0.1250,-0.0628,-0.1278,0.0655,0.2204,0.0300,0.0438,0.2204,0.0300,0.0438,0.3000,0.0600,0.0002,0,-3.5514,-259.0000,-0.0080,-3.5514,-259.0000,-0.0080,22.9220,56.4367,0.0200,0.0000
-39.1504,14.1040,-4.6650,0.0000,-0.0000,0.1200,0.0000,0.0000,0.0000,0.0952,-0.0312,-0.0015,996,1502,1500,1500,2008,1000,1505,1000,1000,1982,1370,1699,1016,-2.6912,0.1580,0.0599,-0.0559,-0.1000,0.9975,0.1249,-0.0625,-0.1279,0.0656,0.2204,0.0300,0.0438,0.2204,0.0300,0.0438,0.3000,0.0600,0.0002,0,-3.5514,-259.0000,-0.0080,-3.5514,-259.0000,-0.0080,22.9663,56.4730,0.0200,0.0000
-39.1399,14.0951,-4.6558,0.0000,0.0821,0.1200,0.0000,0.0000,0.0000,0.0952,-0.0311,-0.0016,996,1502,1500,1500,2008,1000,1505,1000,1000,1982,1370,1699,1016,-2.6701,0.0158,0.0713,-0.0549,-0.1035,0.9975,0.1247,-0.0625,-0.1279,0.0657,0.2204,0.0300,0.0438,0.2204,0.0300,0.0438,0.3000,0.0600,0.0002,0,-3.5514,-259.0000,-0.0080,-3.5514,-259.0000,-0.0080,23.0106,56.5093,0.0200,0.0000
-39.1279,14.0849,-4.6454,0.0829,0.0821,0.1200,0.0000,0.0000,0.0000,0.0951,-0.0310,-0.0014,996,1502,1500,1500,2008,1000,1505,1000,1000,1982,1370,1699,1016,-2.4312,-0.0170,-0.0026,-0.0582,-0.1057,0.9994,0.1247,-0.0626,-0.1275,0.0654,0.2204,0.0300,0.0438,0.2204,0.0300,0.0438,0.3000,0.0600,0.0002,0,-3.5514,-259.0000,-0.0080,-3.5514,-259.0000,-0.0080,23.0549,56.5457,0.0200,0.0000
-39.1133,14.0745,-4.6351,0.0829,0.0821,0.1200,0.0000,0.0000,0.0000,0.0949,-0.0310,-0.0015,996,1502,1500,1500,2008,1000,1505,1000,1000,1982,1370,1699,1016,-2.1764,-0.0947,0.0357,-0.0601,-0.1051,0.9992,0.1244,-0.0625,-0.1274,0.0654,0.2204,0.0300,0.0438,0.2204,0.0300,0.0438,0.3000,0.0600,0.0002,0,-3.5514,-259.0000,-0.0080,-3.5514,-259.0000,-0.0080,23.0992,56.5820,0.0200,0.0000
-39.0952,14.0637,-4.6240,0.0829,0.0821,0.2400,0.0600,0.3200,0.0000,0.0950,-0.0308,0.0005,997,1503,1500,1500,2008,1000,1505,1000,1000,1982,1371,1699,1016,-1.8142,-0.2286,0.0335,-0.0576,-0.1041,0.9980,0.1262,-0.0647,-0.1253,0.0638,0.2204,0.0300,0.0438,0.2204,0.0300,0.0438,0.3000,0.0600,0.0002,0,-3.5514,-259.7000,-0.0080,-3.5514,-259.7000,-0.0080,23.1436,56.6182,0.0400,0.0100
-39.0734,14.0516,-4.6122,0.0000,0.0821,0.1200,0.0000,0.0000,0.0000,0.0946,-0.0308,-0.0015,996,1502,1500,1500,2008,1000,1505,1000,1000,1982,1370,1699,1016,-1.5346,-0.3513,0.0209,-0.0600,-0.1043,0.9973,0.1239,-0.0623,-0.1268,0.0652,0.2204,0.0300,0.0438,0.2204,0.0300,0.0438,0.3000,0.0600,0.0002,0,-3.5514,-259.0000,-0.0080,-3.5514,-259.0000,-0.0080,23.1879,56.6545,0.0200,0.0000
-39.0475,14.0387,-4.5999,0.0000,-0.0000,0.1200,0.0000,0.0000,0.0000,0.0943,-0.0307,-0.0015,996,1502,1500,1500,2008,1000,1505,1000,1000,1982,1370,1699,1016,-1.0833,-0.4988,0.0379,-0.0570,-0.1030,0.9965,0.1235,-0.0621,-0.1265,0.0651,0.2204,0.0300,0.0438,0.2204,0.0300,0.0438,0.3000,0.0600,0.0002,0,-3.5514,-259.0000,-0.0080,-3.5514,-259.0000,-0.0080,23.2323,56.6907,0.0200,0.0000
-39.0191,14.0251,-4.5869,0.0000,0.0821,0.1200,0.0000,0.0000,0.0000,0.0942,-0.0307,-0.0015,996,1502,1500,1500,2008,1000,1505,1000,1000,1982,1370,1699,1016,-1.0497,-0.4828,0.0557,-0.0595,-0.1010,0.9994,0.1234,-0.0620,-0.1265,0.0651,0.2204,0.0300,0.0438,0.2204,0.0300,0.0438,0.3000,0.0600,0.0002,0,-3.5514,-259.0000,-0.0080,-3.5514,-259.0000,-0.0080,23.2766,56.7269,0.0200,0.0000
-38.9902,14.0108,-4.5742,0.0000,-0.0000,0.1200,0.0000,0.0000,0.0000,0.0941,-0.0306,-0.0014,996,1502,1500,1500,2008,1000,1505,1000,1000,1982,1370,1699,1016,-0.9952,-0.5384,-0.0155,-0.0567,-0.0998,0.9953,0.1234,-0.0621,-0.1262,0.0649,0.2204,0.0300,0.0438,0.2204,0.0300,0.0438,0.3000,0.0600,0.0002,0,-3.5514,-259.0000,-0.0080,-3.5514,-259.0000,-0.0080,23.3210,56.7631,0.0200,0.0000
-38.9613,13.9966,-4.5608,0.1657,0.1642,0.1200,0.0000,0.0000,0.0000,0.0941,-0.0306,-0.0017,996,1502,1500,1500,2008,1000,1505,1000,1000,1982,1370,1699,1016,-0.9854,-0.5528,0.0941,-0.0570,-0.1035,0.9960,0.1230,-0.0618,-0.1264,0.0651,0.2204,0.0300,0.0438,0.2204,0.0300,0.0438,0.3000,0.0600,0.0002,0,-3.5514,-259.0000,-0.0080,-3.5514,-259.0000,-0.0080,23.3654,56.7993,0.0200,0.0000
-38.9326,13.9827,-4.5471,-0.1657,0.0821,0.2400,0.0600,0.3200,0.0000,0.0944,-0.0305,0.0001,997,1503,1500,1500,2008,1000,1505,1000,1000,1982,1370,1699,1016,-1.1777,-0.5025,0.1267,-0.0553,-0.1009,1.0001,0.1250,-0.0640,-0.1247,0.0637,0.2204,0.0300,0.0438,0.2204,0.0300,0.0438,0.3000,0.0600,0.0002,0,-3.5514,-259.0000,-0.0080,-3.5514,-259.0000,-0.0080,23.4098,56.8355,0.0400,0.0100
-38.9054,13.9696,-4.5335,0.0829,-0.0000,0.1200,0.0000,0.0000,0.0000,0.0940,-0.0306,-0.0019,996,1502,1500,1500,2008,1000,1505,1000,1000,1982,1370,1699,1016,-1.1885,-0.3780,0.1713,-0.0562,-0.1010,0.9980,0.1227,-0.0615,-0.1266,0.0653,0.2204,0.0300,0.0438,0.2204,0.0300,0.0438,0.3000,0.0600,0.0002,0,-3.5514,-259.0000,-0.0080,-3.5514,-259.0000,-0.0080,23.4542,56.8717,0.0200,0.0000
-38.8788,13.9565,-4.5202,-0.1657,-0.1642,0.1200,0.0000,0.0000,0.0000,0.0940,-0.0305,-0.0018,996,1502,1500,1500,2008,1000,1505,1000,1000,1982,1370,1699,1016,-1.1874,-0.4810,0.1252,-0.0541,-0.1018,0.9994,0.1227,-0.0616,-0.1263,0.0652,0.2204,0.0300,0.0438,0.2204,0.0300,0.0438,0.3000,0.0600,0.0002,0,-3.5514,-259.0000,-0.0080,-3.5514,-259.0000,-0.0080,23.4988,56.9080,0.0200,0.0000
-38.8516,13.9440,-4.5072,0.0829,0.0821,0.1200,0.0000,0.0000,0.0000,0.0939,-0.0306,-0.0018,996,1502,1500,1500,2008,1000,1505,1000,1000,1982,1370,1699,1016,-1.1597,-0.3900,0.1304,-0.0550,-0.1035,1.0020,0.1227,-0.0616,-0.1262,0.0651,0.2204,0.0300,0.0438,0.2204,0.0300,0.0438,0.3000,0.0600,0.0002,0,-3.5514,-259.0000,-0.0080,-3.5514,-259.0000,-0.0080,23.5432,56.9442,0.0200,0.0000
-38.8228,13.9312,-4.4938,0.0000,-0.0000,0.1200,0.0000,0.0000,0.0000,0.0937,-0.0305,-0.0017,996,1502,1500,1500,2008,1000,1505,1000,1000,1982,1370,1699,1016,-0.9452,-0.3715,0.1141,-0.0572,-0.1028,1.0009,0.1226,-0.0615,-0.1260,0.0649,0.2204,0.0300,0.0438,0.2204,0.0300,0.0438,0.3000,0.0600,0.0002,0,-3.5514,-259.0000,-0.0080,-3.5514,-259.0000,-0.0080,23.5877,56.9804,0.0200,0.0000
-38.7917,13.9184,-4.4804,0.0000,0.0821,0.1200,0.0000,0.0000,0.0000,0.0936,-0.0305,-0.0019,996,1502,1500,1500,2008,1000,1505,1000,1000,1982,1370,1699,1016,-0.7915,-0.4803,0.1522,-0.0577,-0.1052,0.9950,0.1222,-0.0612,-0.1260,0.0651,0.2204,0.0300,0.0438,0.2204,0.0300,0.0438,0.3000,0.0600,0.0002,0,-3.5514,-259.0000,-0.0080,-3.5514,-259.0000,-0.0080,23.6322,57.0165,0.0200,0.0000
-38.7598,13.9053,-4.4671,0.0000,-0.0000,0.2400,0.0600,0.3200,0.0000,0.0938,-0.0303,0.0003,997,1503,1500,1500,2008,1000,1505,1000,1000,1982,1370,1699,1016,-0.7087,-0.4758,0.0612,-0.0539,-0.1069,0.9963,0.1244,-0.0638,-0.1237,0.0631,0.2204,0.0300,0.0438,0.2204,0.0300,0.0438,0.3000,0.0600,0.0002,0,-3.5514,-259.0000,-0.0080,-3.5514,-259.0000,-0.0080,23.6767,57.0527,0.0400,0.0100
-38.7278,13.8919,-4.4542,0.0000,0.1642,0.1200,0.0000,0.0000,0.0000,0.0935,-0.0304,-0.0018,996,1502,1500,1500,2008,1000,1505,1000,1000,1982,1371,1699,1016,-0.7789,-0.4371,0.1185,-0.0529,-0.1049,0.9932,0.1221,-0.0613,-0.1257,0.0648,0.2204,0.0300,0.0438,0.2204,0.0300,0.0438,0.3000,0.0600,0.0002,0,-3.5514,-259.7000,-0.0080,-3.5514,-259.7000,-0.0080,23.7213,57.0888,0.0200,0.0000
-38.6965,13.8792,-4.4415,0.0000,0.0821,0.1200,0.0000,0.0000,0.0000,0.0934,-0.0305,-0.0016,996,1502,1500,1500,2008,1000,1505,1000,1000,1982,1371,1699,1016,-0.8511,-0.3029,0.0910,-0.0541,-0.1035,1.0002,0.1223,-0.0613,-0.1255,0.0646,0.2204,0.0300,0.0438,0.2204,0.0300,0.0438,0.3000,0.0600,0.0002,0,-3.5514,-259.7000,-0.0080,-3.5514,-259.7000,-0.0080,23.7659,57.1250,0.0200,0.0000
-38.6666,13.8669,-4.4305,0.0000,0.0821,0.1200,0.0000,0.0000,0.0000,0.0934,-0.0304,-0.0014,996,1502,1500,1500,2008,1000,1505,1000,1000,1982,1370,1699,1016,-0.9885,-0.2626,0.0217,-0.0555,-0.0989,0.9991,0.1224,-0.0615,-0.1253,0.0644,0.2204,0.0300,0.0438,0.2204,0.0300,0.0438,0.3000,0.0600,0.0002,0,-3.5514,-259.0000,-0.0080,-3.5514,-259.0000,-0.0080,23.8105,57.1611,0.0200,0.0000
-38.6381,13.8547,-4.4196,0.0000,0.0821,0.1200,0.0000,0.0000,0.0000,0.0934,-0.0304,-0.0014,996,1502,1500,1500,2008,1000,1505,1000,1000,1982,1370,1699,1016,-1.0553,-0.2174,-0.0037,-0.0555,-0.1017,0.9968,0.1224,-0.0615,-0.1252,0.0643,0.2204,0.0300,0.0438,0.2204,0.0300,0.0438,0.3000,0.0600,0.0002,0,-3.5514,-259.0000,-0.0080,-3.5514,-259.0000,-0.0080,23.8551,57.1973,0.0200,0.0000
-38.6097,13.8415,-4.4076,0.0829,0.0821,0.1200,0.0000,0.0000,0.0000,0.0933,-0.0303,-0.0015,996,1502,1500,1500,2008,1000,1505,1000,1000,1982,1370,1699,1016,-1.0623,-0.5253,0.0239,-0.0576,-0.1033,0.9997,0.1221,-0.0615,-0.1251,0.0646,0.2204,0.0300,0.0438,0.2204,0.0300,0.0438,0.3000,0.0600,0.0002,0,-3.5514,-259.0000,-0.0080,-3.5514,-259.0000,-0.0080,23.8997,57.2334,0.0200,0.0000
-38.5811,13.8272,-4.3942,0.0829,0.0821,0.2400,0.0600,0.3200,0.0000,0.0935,-0.0301,0.0004,997,1503,1500,1500,2008,1000,1505,1000,1000,1982,1370,1699,1016,-1.0461,-0.5542,0.0481,-0.0560,-0.1066,0.9968,0.1240,-0.0638,-0.1232,0.0630,0.2204,0.0300,0.0438,0.2204,0.0300,0.0438,0.3000,0.0600,0.0002,0,-3.5514,-259.0000,-0.0080,-3.5514,-259.0000,-0.0080,23.9443,57.2695,0.0400,0.0100
-38.5508,13.8125,-4.3797,0.0000,-0.0000,0.1200,0.0000,0.0000,0.0000,0.0931,-0.0301,-0.0019,996,1502,1500,1500,2008,1000,1505,1000,1000,1982,1370,1699,1016,-0.8280,-0.7505,0.1481,-0.0557,-0.1064,0.9942,0.1213,-0.0611,-0.1251,0.0649,0.2204,0.0300,0.0438,0.2204,0.0300,0.0438,0.3000,0.0600,0.0002,0,-3.5514,-259.0000,-0.0080,-3.5514,-259.0000,-0.0080,23.9889,57.3056,0.0200,0.0000
-38.5197,13.7980,-4.3642,0.0829,0.0821,0.1200,0.0000,0.0000,0.0000,0.0931,-0.0301,-0.0020,996,1502,1500,1500,2008,1000,1505,1000,1000,1982,1370,1699,1016,-0.9319,-0.6968,0.1940,-0.0547,-0.1075,0.9966,0.1212,-0.0610,-0.1251,0.0649,0.2204,0.0300,0.0438,0.2204,0.0300,0.0438,0.3000,0.0600,0.0002,0,-3.5514,-259.0000,-0.0080,-3.5514,-259.0000,-0.0080,24.0336,57.3417,0.0200,0.0000
-38.4889,13.7838,-4.3489,0.0829,0.0821,0.1200,0.0000,0.0000,0.0000,0.0930,-0.0301,-0.0020,996,1502,1500,1500,2008,1000,1505,1000,1000,1982,1370,1699,1016,-0.9250,-0.5960,0.1975,-0.0537,-0.1038,0.9977,0.1211,-0.0609,-0.1251,0.0649,0.2204,0.0300,0.0438,0.2204,0.0300,0.0438,0.3000,0.0600,0.0002,0,-3.5514,-259.0000,-0.0080,-3.5514,-259.0000,-0.0080,24.0783,57.3778,0.0200,0.0000
-38.4597,13.7697,-4.3343,0.0000,-0.0000,0.1200,0.0000,0.0000,0.0000,0.0930,-0.0301,-0.0017,996,1502,1500,1500,2008,1000,1505,1000,1000,1982,1371,1699,1016,-1.1618,-0.5439,0.1182,-0.0565,-0.1033,0.9961,0.1214,-0.0612,-0.1249,0.0647,0.2204,0.0300,0.0438,0.2204,0.0300,0.0438,0.3000,0.0600,0.0002,0,-3.5514,-259.7000,-0.0080,-3.5514,-259.7000,-0.0080,24.1230,57.4139,0.0200,0.0000
-38.4327,13.7554,-4.3202,0.0000,0.0821,0.1200,0.0000,0.0000,0.0000,0.0931,-0.0300,-0.0017,996,1502,1500,1500,2008,1000,1505,1000,1000,1982,1371,1699,1016,-1.4096,-0.6676,0.0873,-0.0541,-0.0993,0.9951,0.1214,-0.0613,-0.1248,0.0648,0.2204,0.0300,0.0438,0.2204,0.0300,0.0438,0.3000,0.0600,0.0002,0,-3.5514,-259.7000,-0.0080,-3.5514,-259.7000,-0.0080,24.1678,57.4500,0.0200,0.0000
-38.4092,13.7403,-4.3064,0.0000,-0.0000,0.2400,0.0600,0.3200,0.0000,0.0934,-0.0299,0.0005,997,1503,1500,1500,2008,1000,1505,1000,1000,1982,1370,1699,1016,-1.7372,-0.6048,0.0028,-0.0556,-0.1001,0.9966,0.1238,-0.0640,-0.1229,0.0631,0.2204,0.0300,0.0438,0.2204,0.0300,0.0438,0.3000,0.0600,0.0002,0,-3.5514,-259.0000,-0.0080,-3.5514,-259.0000,-0.0080,24.2125,57.4861,0.0400,0.0100
-38.3886,13.7251,-4.2924,-0.0829,-0.0000,0.1200,0.0000,0.0000,0.0000,0.0932,-0.0299,-0.0019,996,1502,1500,1500,2008,1000,1505,1000,1000,1982,1371,1699,1016,-1.9597,-0.7155,0.1444,-0.0531,-0.1021,0.9983,0.1213,-0.0614,-0.1250,0.0652,0.2204,0.0300,0.0438,0.2204,0.0300,0.0438,0.3000,0.0600,0.0002,0,-3.5514,-259.7000,-0.0080,-3.5514,-259.7000,-0.0080,24.2572,57.5222,0.0200,0.0000
-38.3701,13.7095,-4.2775,-0.0829,-0.0000,0.1200,0.0000,0.0000,0.0000,0.0933,-0.0299,-0.0016,996,1502,1500,1500,2008,1000,1505,1000,1000,1982,1371,1699,1016,-2.0966,-0.7289,0.0668,-0.0557,-0.1034,0.9965,0.1216,-0.0618,-0.1247,0.0649,0.2204,0.0300,0.0438,0.2204,0.0300,0.0438,0.3000,0.0600,0.0002,0,-3.5514,-259.7000,-0.0080,-3.5514,-259.7000,-0.0080,24.3020,57.5583,0.0200,0.0000
-38.3526,13.6936,-4.2627,-0.1657,-0.0000,0.1200,0.0000,0.0000,0.0000,0.0932,-0.0299,-0.0017,996,1502,1500,1500,2008,1000,1505,1000,1000,1982,1371,1699,1016,-2.1808,-0.7515,0.1032,-0.0513,-0.1050,0.9931,0.1214,-0.0617,-0.1248,0.0651,0.2204,0.0300,0.0438,0.2204,0.0300,0.0438,0.3000,0.0600,0.0002,0,-3.5514,-259.7000,-0.0080,-3.5514,-259.7000,-0.0080,24.3468,57.5944,0.0200,0.0000
-38.3358,13.6777,-4.2475,0.0000,-0.0000,0.1200,0.0000,0.0000,0.0000,0.0933,-0.0298,-0.0018,996,1502,1500,1500,2008,1000,1505,1000,1000,1982,1371,1699,1016,-2.2808,-0.7143,0.1283,-0.0519,-0.1074,0.9960,0.1213,-0.0616,-0.1249,0.0652,0.2204,0.0300,0.0438,0.2204,0.0300,0.0438,0.3000,0.0600,0.0002,0,-3.5514,-259.7000,-0.0080,-3.5514,-259.7000,-0.0080,24.3916,57.6304,0.0200,0.0000
-38.3190,13.6625,-4.2323,-0.0829,-0.0000,0.1200,0.0000,0.0000,0.0000,0.0931,-0.0298,-0.0021,996,1502,1500,1500,2008,1000,1505,1000,1000,1982,1370,1699,1016,-2.1084,-0.6745,0.2268,-0.0501,-0.1107,0.9970,0.1208,-0.0612,-0.1251,0.0654,0.2204,0.0300,0.0438,0.2204,0.0300,0.0438,0.3000,0.0600,0.0002,0,-3.5514,-259.0000,-0.0080,-3.5514,-259.0000,-0.0080,24.4364,57.6664,0.0200,0.0000
-38.3012,13.6484,-4.2177,0.0000,-0.0000,0.2400,0.0600,0.3200,0.0000,0.0934,-0.0298,0.0001,997,1503,1500,1500,2008,1000,1505,1000,1000,1982,1370,1699,1016,-2.1253,-0.4190,0.1266,-0.0516,-0.1110,1.0012,0.1233,-0.0637,-0.1230,0.0635,0.2204,0.0300,0.0438,0.2204,0.0300,0.0438,0.3000,0.0600,0.0002,0,-3.5514,-259.0000,-0.0080,-3.5514,-259.0000,-0.0080,24.4812,57.7025,0.0400,0.0100
-38.2836,13.6360,-4.2053,0.0829,-0.0000,0.1200,0.0000,0.0000,0.0000,0.0930,-0.0299,-0.0017,996,1502,1500,1500,2008,1000,1505,1000,1000,1982,1370,1699,1016,-2.0709,-0.2493,0.1004,-0.0516,-0.1084,0.9985,0.1213,-0.0614,-0.1247,0.0648,0.2204,0.0300,0.0438,0.2204,0.0300,0.0438,0.3000,0.0600,0.0002,0,-3.5514,-259.0000,-0.0080,-3.5514,-259.0000,-0.0080,24.5260,57.7385,0.0200,0.0000
-38.2666,13.6244,-4.1944,0.0000,-0.0000,0.1200,0.0000,0.0000,0.0000,0.0930,-0.0299,-0.0018,996,1502,1500,1500,2008,1000,1505,1000,1000,1982,1370,1699,1016,-2.1454,-0.1985,0.1061,-0.0510,-0.1078,0.9982,0.1212,-0.0613,-0.1248,0.0649,0.2204,0.0300,0.0438,0.2204,0.0300,0.0438,0.3000,0.0600,0.0002,0,-3.5514,-259.0000,-0.0080,-3.5514,-259.0000,-0.0080,24.5709,57.7746,0.0200,0.0000
-38.2515,13.6135,-4.1840,-0.1657,-0.0000,0.1200,0.0000,0.0000,0.0000,0.0931,-0.0300,-0.0013,996,1502,1500,1500,2008,1000,1505,1000,1000,1982,1370,1699,1016,-2.4383,-0.0101,-0.0024,-0.0529,-0.1039,1.0023,0.1218,-0.0619,-0.1244,0.0644,0.2204,0.0300,0.0438,0.2204,0.0300,0.0438,0.3000,0.0600,0.0002,0,-3.5514,-259.0000,-0.0080,-3.5514,-259.0000,-0.0080,24.6158,57.8106,0.0200,0.0000
-38.2399,13.6018,-4.1743,0.0000,-0.0000,0.1200,0.0000,0.0000,0.0000,0.0933,-0.0299,-0.0014,996,1502,1500,1500,2008,1000,1505,1000,1000,1982,1371,1699,1016,-2.7514,-0.1337,0.0061,-0.0529,-0.1049,0.9944,0.1217,-0.0619,-0.1246,0.0648,0.2204,0.0300,0.0438,0.2204,0.0300,0.0438,0.3000,0.0600,0.0002,0,-3.5514,-259.7000,-0.0080,-3.5514,-259.7000,-0.0080,24.6608,57.8466,0.0200,0.0000
-38.2316,13.5901,-4.1638,0.0000,-0.0821,0.1200,0.0000,0.0000,0.0000,0.0934,-0.0299,-0.0015,996,1502,1500,1500,2008,1000,1505,1000,1000,1982,1371,1699,1016,-3.0714,-0.1968,0.0326,-0.0550,-0.1052,0.9986,0.1217,-0.0620,-0.1247,0.0650,0.2204,0.0300,0.0438,0.2204,0.0300,0.0438,0.3000,0.0600,0.0002,0,-3.5514,-259.7000,-0.0080,-3.5514,-259.7000,-0.0080,24.7057,57.8826,0.0200,0.0000
-38.2261,13.5780,-4.1530,0.0000,-0.0000,0.2400,0.0600,0.3200,0.0000,0.0937,-0.0297,0.0005,997,1503,1500,1500,2008,1000,1505,1000,1000,1982,1370,1699,1016,-3.2893,-0.2702,0.0003,-0.0574,-0.1071,0.9989,0.1239,-0.0646,-0.1229,0.0635,0.2204,0.0300,0.0438,0.2204,0.0300,0.0438,0.3000,0.0600,0.0002,0,-3.5514,-259.0000,-0.0080,-3.5514,-259.0000,-0.0080,24.7506,57.9186,0.0400,0.0100
-38.2231,13.5647,-4.1413,0.0000,-0.0821,0.1200,0.0000,0.0000,0.0000,0.0936,-0.0298,-0.0016,996,1502,1500,1500,2008,1000,1505,1000,1000,1982,1370,1699,1016,-3.5531,-0.3134,0.0559,-0.0562,-0.1086,0.9974,0.1217,-0.0622,-0.1249,0.0654,0.2204,0.0300,0.0438,0.2204,0.0300,0.0438,0.3000,0.0600,0.0002,0,-3.5514,-259.0000,-0.0080,-3.5514,-259.0000,-0.0080,24.7955,57.9546,0.0200,0.0000
-38.2210,13.5514,-4.1293,0.0829,-0.0821,0.1200,0.0000,0.0000,0.0000,0.0936,-0.0297,-0.0017,996,1502,1500,1500,2008,1000,1505,1000,1000,1982,1370,1699,1016,-3.5638,-0.3596,0.0741,-0.0577,-0.1096,0.9999,0.1216,-0.0622,-0.1250,0.0655,0.2204,0.0300,0.0438,0.2204,0.0300,0.0438,0.3000,0.0600,0.0002,0,-3.5514,-259.0000,-0.0080,-3.5514,-259.0000,-0.0080,24.8405,57.9906,0.0200,0.0000
-38.2184,13.5385,-4.1170,0.0000,-0.0000,0.1200,0.0000,0.0000,0.0000,0.0935,-0.0297,-0.0016,996,1502,1500,1500,2008,1000,1505,1000,1000,1982,1370,1699,1016,-3.4709,-0.3705,0.0602,-0.0529,-0.1138,0.9952,0.1216,-0.0623,-0.1248,0.0654,0.2204,0.0300,0.0438,0.2204,0.0300,0.0438,0.3000,0.0600,0.0002,0,-3.5514,-259.0000,-0.0080,-3.5514,-259.0000,-0.0080,24.8855,58.0265,0.0200,0.0000
-38.2145,13.5249,-4.1045,0.0000,-0.0000,0.1200,0.0000,0.0000,0.0000,0.0934,-0.0297,-0.0017,996,1502,1500,1500,2008,1000,1505,1000,1000,1982,1370,1699,1016,-3.2631,-0.3521,0.1081,-0.0502,-0.1157,0.9961,0.1214,-0.0620,-0.1248,0.0655,0.2204,0.0300,0.0438,0.2204,0.0300,0.0438,0.3000,0.0600,0.0002,0,-3.5514,-259.0000,-0.0080,-3.5514,-259.0000,-0.0080,24.9306,58.0625,0.0200,0.0000
-38.2081,13.5125,-4.0938,0.0000,-0.0000,0.1200,0.0000,0.0000,0.0000,0.0933,-0.0297,-0.0014,996,1502,1500,1500,2008,1000,1505,1000,1000,1982,1371,1699,1016,-2.9808,-0.1495,-0.0185,-0.0547,-0.1137,0.9946,0.1216,-0.0622,-0.1244,0.0649,0.2204,0.0300,0.0438,0.2204,0.0300,0.0438,0.3000,0.0600,0.0002,0,-3.5514,-259.7000,-0.0080,-3.5514,-259.7000,-0.0080,24.9756,58.0985,0.0200,0.0000
-38.1989,13.5017,-4.0839,0.0000,-0.0000,0.2400,0.0600,0.3200,0.0000,0.0934,-0.0296,0.0004,997,1503,1500,1500,2008,1000,1505,1000,1000,1982,1370,1699,1016,-2.7401,-0.0338,0.0397,-0.0502,-0.1176,0.9924,0.1234,-0.0642,-0.1227,0.0635,0.2204,0.0300,0.0438,0.2204,0.0300,0.0438,0.3000,0.0600,0.0002,0,-3.5514,-259.0000,-0.0080,-3.5514,-259.0000,-0.0080,25.0206,58.1345,0.0400,0.0100
-38.1891,13.4925,-4.0754,-0.0829,0.0821,0.1200,0.0000,0.0000,0.0000,0.0931,-0.0298,-0.0015,996,1502,1500,1500,2008,1000,1505,1000,1000,1982,1370,1699,1016,-2.7211,0.1972,0.0356,-0.0520,-0.1166,0.9993,0.1215,-0.0618,-0.1244,0.0648,0.2204,0.0300,0.0438,0.2204,0.0300,0.0438,0.3000,0.0600,0.0002,0,-3.5514,-259.0000,-0.0080,-3.5514,-259.0000,-0.0080,25.0657,58.1704,0.0200,0.0000
-38.1805,13.4841,-4.0684,-0.0829,-0.0821,0.1200,0.0000,0.0000,0.0000,0.0932,-0.0298,-0.0013,996,1502,1500,1500,2008,1000,1505,1000,1000,1982,1371,1699,1016,-2.9313,0.2683,-0.0326,-0.0508,-0.1095,0.9994,0.1217,-0.0621,-0.1243,0.0647,0.2204,0.0300,0.0438,0.2204,0.0300,0.0438,0.3000,0.0600,0.0002,0,-3.5514,-259.7000,-0.0080,-3.5514,-259.7000,-0.0080,25.1108,58.2064,0.0200,0.0000
-38.1749,13.4769,-4.0615,0.0829,-0.0000,0.1200,0.0000,0.0000,0.0000,0.0933,-0.0299,-0.0015,996,1502,1500,1500,2008,1000,1505,1000,1000,1982,1371,1699,1016,-3.2693,0.3740,0.0279,-0.0525,-0.1093,0.9974,0.1217,-0.0620,-0.1247,0.0650,0.2204,0.0300,0.0438,0.2204,0.0300,0.0438,0.3000,0.0600,0.0002,0,-3.5514,-259.7000,-0.0080,-3.5514,-259.7000,-0.0080,25.1559,58.2423,0.0200,0.0000
-38.1733,13.4703,-4.0549,-0.1657,-0.1642,0.1200,0.0000,0.0000,0.0000,0.0935,-0.0299,-0.0013,996,1502,1500,1500,2008,1000,1505,1000,1000,1982,1371,1699,1016,-3.7341,0.4824,-0.0244,-0.0533,-0.1097,0.9970,0.1221,-0.0623,-0.1247,0.0649,0.2204,0.0300,0.0438,0.2204,0.0300,0.0438,0.3000,0.0600,0.0002,0,-3.5514,-259.7000,-0.0080,-3.5514,-259.7000,-0.0080,25.2010,58.2783,0.0200,0.0000
-38.1774,13.4631,-4.0496,0.0000,-0.0000,0.1200,0.0000,0.0000,0.0000,0.0937,-0.0298,-0.0013,996,1502,1500,1500,2008,1000,1505,1000,1000,1982,1371,1699,1016,-4.1439,0.3992,-0.0579,-0.0523,-0.1098,0.9972,0.1223,-0.0626,-0.1249,0.0652,0.2204,0.0300,0.0438,0.2204,0.0300,0.0438,0.3000,0.0600,0.0002,0,-3.5514,-259.7000,-0.0080,-3.5514,-259.7000,-0.0080,25.2461,58.3142,0.0200,0.0000
-38.1842,13.4558,-4.0433,-0.1657,-0.0000,0.2400,0.0600,0.3200,0.0000,0.0941,-0.0297,0.0003,997,1503,1500,1500,2008,1000,1505,1000,1000,1982,1371,1699,1016,-4.4329,0.4622,0.0540,-0.0499,-0.1128,0.9965,0.1241,-0.0647,-0.1236,0.0641,0.2204,0.0300,0.0438,0.2204,0.0300,0.0438,0.3000,0.0600,0.0002,0,-3.5514,-259.7000,-0.0080,-3.5514,-259.7000,-0.0080,25.2913,58.3501,0.0400,0.0100
-38.1931,13.4492,-4.0372,0.0829,-0.0000,0.1200,0.0000,0.0000,0.0000,0.0939,-0.0298,-0.0016,996,1502,1500,1500,2008,1000,1505,1000,1000,1982,1370,1699,1016,-4.4943,0.4742,0.0700,-0.0511,-0.1180,0.9948,0.1221,-0.0624,-0.1254,0.0657,0.2204,0.0300,0.0438,0.2204,0.0300,0.0438,0.3000,0.0600,0.0002,0,-3.5514,-259.0000,-0.0080,-3.5514,-259.0000,-0.0080,25.3364,58.3861,0.0200,0.0000
-38.2031,13.4429,-4.0322,0.0000,0.0821,0.1200,0.0000,0.0000,0.0000,0.0940,-0.0299,-0.0014,996,1502,1500,1500,2008,1000,1505,1000,1000,1982,1370,1699,1016,-4.5374,0.6708,-0.0010,-0.0533,-0.1221,0.9978,0.1225,-0.0626,-0.1253,0.0654,0.2204,0.0300,0.0438,0.2204,0.0300,0.0438,0.3000,0.0600,0.0002,0,-3.5514,-259.0000,-0.0080,-3.5514,-259.0000,-0.0080,25.3816,58.4220,0.0200,0.0000
-38.2129,13.4381,-4.0286,0.0829,0.0821,0.1200,0.0000,0.0000,0.0000,0.0939,-0.0300,-0.0013,996,1502,1500,1500,2008,1000,1505,1000,1000,1982,1370,1699,1016,-4.4153,0.8134,-0.0310,-0.0553,-0.1261,0.9970,0.1226,-0.0626,-0.1252,0.0652,0.2204,0.0300,0.0438,0.2204,0.0300,0.0438,0.3000,0.0600,0.0002,0,-3.5514,-259.0000,-0.0080,-3.5514,-259.0000,-0.0080,25.4268,58.4579,0.0200,0.0000
-38.2213,13.4342,-4.0265,0.0829,-0.0000,0.1200,0.0000,0.0000,0.0000,0.0939,-0.0300,-0.0012,996,1502,1500,1500,2008,1000,1505,1000,1000,1982,1370,1699,1016,-4.2488,0.9811,-0.0872,-0.0528,-0.1231,0.9961,0.1228,-0.0627,-0.1251,0.0650,0.2204,0.0300,0.0438,0.2204,0.0300,0.0438,0.3000,0.0600,0.0002,0,-3.5514,-259.0000,-0.0080,-3.5514,-259.0000,-0.0080,25.4720,58.4939,0.0200,0.0000
-38.2275,13.4309,-4.0249,0.0829,-0.0000,0.1200,0.0000,0.0000,0.0000,0.0938,-0.0300,-0.0013,996,1502,1500,1500,2008,1000,1505,1000,1000,1982,1371,1699,1016,-4.0935,0.9870,-0.0550,-0.0528,-0.1246,0.9979,0.1226,-0.0625,-0.1251,0.0650,0.2204,0.0300,0.0438,0.2204,0.0300,0.0438,0.3000,0.0600,0.0002,0,-3.5514,-259.7000,-0.0080,-3.5514,-259.7000,-0.0080,25.5173,58.5298,0.0200,0.0000
-38.2332,13.4283,-4.0231,0.0000,-0.0000,0.2400,0.0600,0.3200,0.0000,0.0941,-0.0299,0.0007,997,1503,1500,1500,2008,1000,1505,1000,1000,1982,1371,1699,1016,-4.0814,1.0399,-0.0554,-0.0562,-0.1225,0.9973,0.1247,-0.0649,-0.1233,0.0634,0.2204,0.0300,0.0438,0.2204,0.0300,0.0438,0.3000,0.0600,0.0002,0,-3.5514,-259.7000,-0.0080,-3.5514,-259.7000,-0.0080,25.5625,58.5656,0.0400,0.0100
-38.2404,13.4252,-4.0218,0.0000,-0.0000,0.1200,0.0000,0.0000,0.0000,0.0939,-0.0300,-0.0010,996,1502,1500,1500,2008,1000,1505,1000,1000,1982,1371,1699,1016,-4.2769,0.9463,-0.1220,-0.0564,-0.1199,0.9981,0.1229,-0.0629,-0.1249,0.0649,0.2204,0.0300,0.0438,0.2204,0.0300,0.0438,0.3000,0.0600,0.0002,0,-3.5514,-259.7000,-0.0080,-3.5514,-259.7000,-0.0080,25.6077,58.6015,0.0200,0.0000
-38.2494,13.4215,-4.0202,0.0829,0.0821,0.1200,0.0000,0.0000,0.0000,0.0940,-0.0300,-0.0009,996,1502,1500,1500,2008,1000,1505,1000,1000,1982,1370,1699,1016,-4.5121,0.8957,-0.1602,-0.0547,-0.1185,0.9972,0.1231,-0.0632,-0.1249,0.0650,0.2204,0.0300,0.0438,0.2204,0.0300,0.0438,0.3000,0.0600,0.0002,0,-3.5514,-259.0000,-0.0080,-3.5514,-259.0000,-0.0080,25.6530,58.6373,0.0200,0.0000
-38.2606,13.4167,-4.0182,0.0829,-0.0000,0.1200,0.0000,0.0000,0.0000,0.0941,-0.0299,-0.0009,996,1502,1500,1500,2008,1000,1505,1000,1000,1982,1370,1699,1016,-4.6950,0.8171,-0.1695,-0.0578,-0.1153,0.9969,0.1232,-0.0633,-0.1250,0.0651,0.2204,0.0300,0.0438,0.2204,0.0300,0.0438,0.3000,0.0600,0.0002,0,-3.5514,-259.0000,-0.0080,-3.5514,-259.0000,-0.0080,25.6982,58.6731,0.0200,0.0000
-38.2731,13.4107,-4.0157,0.0000,0.0821,0.1200,0.0000,0.0000,0.0000,0.0942,-0.0298,-0.0008,996,1502,1500,1500,2008,1000,1505,1000,1000,1982,1371,1699,1016,-4.7634,0.6611,-0.1994,-0.0546,-0.1220,0.9959,0.1233,-0.0636,-0.1248,0.0652,0.2204,0.0300,0.0438,0.2204,0.0300,0.0438,0.3000,0.0600,0.0002,0,-3.5514,-259.7000,-0.0080,-3.5514,-259.7000,-0.0080,25.7435,58.7089,0.0200,0.0000
-38.2863,13.4041,-4.0113,0.0000,0.0821,0.1200,0.0000,0.0000,0.0000,0.0943,-0.0297,-0.0010,996,1502,1500,1500,2008,1000,1505,1000,1000,1982,1371,1699,1016,-4.8835,0.4409,-0.1397,-0.0570,-0.1244,0.9948,0.1231,-0.0636,-0.1250,0.0655,0.2204,0.0300,0.0438,0.2204,0.0300,0.0438,0.3000,0.0600,0.0002,0,-3.5514,-259.7000,-0.0080,-3.5514,-259.7000,-0.0080,25.7889,58.7448,0.0200,0.0000
-38.2984,13.3956,-4.0053,0.0000,0.0821,0.2400,0.0600,0.3200,0.0000,0.0945,-0.0295,0.0009,997,1503,1500,1500,2008,1000,1505,1000,1000,1982,1370,1699,1016,-4.6828,0.2278,-0.1302,-0.0598,-0.1335,0.9939,0.1249,-0.0659,-0.1230,0.0641,0.2204,0.0300,0.0438,0.2204,0.0300,0.0438,0.3000,0.0600,0.0002,0,-3.5514,-259.0000,-0.0080,-3.5514,-259.0000,-0.0080,25.8343,58.7807,0.0400,0.0100
-38.3075,13.3858,-3.9985,0.0829,0.0821,0.1200,0.0000,0.0000,0.0000,0.0941,-0.0295,-0.0011,996,1502,1500,1500,2008,1000,1505,1000,1000,1982,1370,1699,1016,-4.2700,0.0460,-0.1036,-0.0565,-0.1368,0.9962,0.1225,-0.0635,-0.1247,0.0656,0.2204,0.0300,0.0438,0.2204,0.0300,0.0438,0.3000,0.0600,0.0002,0,-3.5514,-259.0000,-0.0080,-3.5514,-259.0000,-0.0080,25.8797,58.8166,0.0200,0.0000
-38.3114,13.3740,-3.9900,0.0829,0.0821,0.1200,0.0000,0.0000,0.0000,0.0939,-0.0294,-0.0012,996,1502,1500,1500,2008,1000,1505,1000,1000,1982,1370,1699,1016,-3.8278,-0.1560,-0.0815,-0.0572,-0.1375,0.9942,0.1221,-0.0633,-0.1245,0.0656,0.2204,0.0300,0.0438,0.2204,0.0300,0.0438,0.3000,0.0600,0.0002,0,-3.5514,-259.0000,-0.0080,-3.5514,-259.0000,-0.0080,25.9251,58.8524,0.0200,0.0000
-38.3091,13.3611,-3.9803,0.0829,0.1642,0.1200,0.0000,0.0000,0.0000,0.0936,-0.0293,-0.0012,996,1502,1500,1500,2008,1000,1505,1000,1000,1982,1370,1699,1016,-3.2020,-0.2365,-0.0680,-0.0577,-0.1375,0.9900,0.1218,-0.0631,-0.1241,0.0654,0.2204,0.0300,0.0438,0.2204,0.0300,0.0438,0.3000,0.0600,0.0002,0,-3.5514,-259.0000,-0.0080,-3.5514,-259.0000,-0.0080,25.9705,58.8883,0.0200,0.0000
-38.3018,13.3473,-3.9692,0.0000,0.1642,0.1200,0.0000,0.0000,0.0000,0.0935,-0.0293,-0.0015,996,1502,1500,1500,2008,1000,1505,1000,1000,1982,1370,1699,1016,-2.9430,-0.3387,0.0340,-0.0535,-0.1346,0.9920,0.1212,-0.0627,-0.1243,0.0657,0.2204,0.0300,0.0438,0.2204,0.0300,0.0438,0.3000,0.0600,0.0002,0,-3.5514,-259.0000,-0.0080,-3.5514,-259.0000,-0.0080,26.0159,58.9241,0.0200,0.0000
-38.2922,13.3345,-3.9578,-0.1657,-0.0000,0.1200,0.0000,0.0000,0.0000,0.0934,-0.0292,-0.0018,996,1502,1500,1500,2008,1000,1505,1000,1000,1982,1370,1699,1016,-2.8202,-0.3405,0.1147,-0.0555,-0.1327,0.9936,0.1209,-0.0624,-0.1244,0.0659,0.2204,0.0300,0.0438,0.2204,0.0300,0.0438,0.3000,0.0600,0.0002,0,-3.5514,-259.0000,-0.0080,-3.5514,-259.0000,-0.0080,26.0613,58.9599,0.0200,0.0000
-38.2830,13.3220,-3.9465,0.0829,0.0821,0.2400,0.0600,0.3200,0.0000,0.0937,-0.0291,0.0005,997,1503,1500,1500,2008,1000,1505,1000,1000,1982,1370,1699,1016,-2.9719,-0.2199,0.0326,-0.0536,-0.1257,0.9956,0.1233,-0.0650,-0.1224,0.0641,0.2204,0.0300,0.0438,0.2204,0.0300,0.0438,0.3000,0.0600,0.0002,0,-3.5514,-259.0000,-0.0080,-3.5514,-259.0000,-0.0080,26.1068,58.9956,0.0400,0.0100
-38.2772,13.3100,-3.9353,-0.0829,-0.0821,0.1200,0.0000,0.0000,0.0000,0.0936,-0.0292,-0.0017,996,1502,1500,1500,2008,1000,1505,1000,1000,1982,1370,1699,1016,-3.3794,-0.1965,0.1036,-0.0546,-0.1260,0.9989,0.1211,-0.0626,-0.1246,0.0661,0.2204,0.0300,0.0438,0.2204,0.0300,0.0438,0.3000,0.0600,0.0002,0,-3.5514,-259.0000,-0.0080,-3.5514,-259.0000,-0.0080,26.1522,59.0314,0.0200,0.0000
-38.2754,13.2977,-3.9238,0.0000,0.1642,0.1200,0.0000,0.0000,0.0000,0.0938,-0.0292,-0.0017,996,1502,1500,1500,2008,1000,1505,1000,1000,1982,1370,1699,1016,-3.7357,-0.3349,0.0996,-0.0518,-0.1270,0.9935,0.1212,-0.0629,-0.1246,0.0663,0.2204,0.0300,0.0438,0.2204,0.0300,0.0438,0.3000,0.0600,0.0002,0,-3.5514,-259.0000,-0.0080,-3.5514,-259.0000,-0.0080,26.1977,59.0672,0.0200,0.0000
-38.2763,13.2850,-3.9114,0.0000,0.0821,0.1200,0.0000,0.0000,0.0000,0.0938,-0.0291,-0.0018,996,1502,1500,1500,2008,1000,1505,1000,1000,1982,1370,1699,1016,-3.9206,-0.4087,0.1291,-0.0560,-0.1299,0.9972,0.1212,-0.0630,-0.1247,0.0665,0.2204,0.0300,0.0438,0.2204,0.0300,0.0438,0.3000,0.0600,0.0002,0,-3.5514,-259.0000,-0.0080,-3.5514,-259.0000,-0.0080,26.2431,59.1030,0.0200,0.0000
-38.2774,13.2715,-3.8983,0.0829,0.0821,0.1200,0.0000,0.0000,0.0000,0.0938,-0.0290,-0.0019,996,1502,1500,1500,2008,1000,1505,1000,1000,1982,1370,1699,1016,-3.8224,-0.5504,0.1933,-0.0537,-0.1370,0.9983,0.1209,-0.0628,-0.1248,0.0667,0.2204,0.0300,0.0438,0.2204,0.0300,0.0438,0.3000,0.0600,0.0002,0,-3.5514,-259.0000,-0.0080,-3.5514,-259.0000,-0.0080,26.2886,59.1388,0.0200,0.0000
-38.2758,13.2570,-3.8843,0.0829,-0.0000,0.1200,0.0000,0.0000,0.0000,0.0936,-0.0290,-0.0017,996,1502,1500,1500,2008,1000,1505,1000,1000,1982,1370,1699,1016,-3.4203,-0.6009,0.1189,-0.0582,-0.1411,0.9915,0.1209,-0.0629,-0.1243,0.0664,0.2204,0.0300,0.0438,0.2204,0.0300,0.0438,0.3000,0.0600,0.0002,0,-3.5514,-259.0000,-0.0080,-3.5514,-259.0000,-0.0080,26.3342,59.1746,0.0200,0.0000
-38.2690,13.2426,-3.8713,-0.0829,0.1642,0.2400,0.0600,0.3200,0.0000,0.0936,-0.0288,0.0001,997,1503,1500,1500,2008,1000,1505,1000,1000,1982,1371,1699,1016,-2.8662,-0.4756,0.1134,-0.0538,-0.1463,0.9939,0.1226,-0.0649,-0.1223,0.0646,0.2204,0.0300,0.0438,0.2204,0.0300,0.0438,0.3000,0.0600,0.0002,0,-3.5514,-259.7000,-0.0080,-3.5514,-259.7000,-0.0080,26.3798,59.2104,0.0400,0.0100
-38.2557,13.2276,-3.8582,0.0829,-0.0000,0.1200,0.0000,0.0000,0.0000,0.0930,-0.0290,-0.0016,996,1502,1500,1500,2008,1000,1505,1000,1000,1982,1370,1699,1016,-2.1763,-0.4626,0.0444,-0.0515,-0.1469,0.9948,0.1204,-0.0625,-0.1235,0.0656,0.2204,0.0300,0.0438,0.2204,0.0300,0.0438,0.3000,0.0600,0.0002,0,-3.5514,-259.0000,-0.0080,-3.5514,-259.0000,-0.0080,26.4254,59.2462,0.0200,0.0000
-38.2366,13.2139,-3.8458,0.0829,0.0821,0.1200,0.0000,0.0000,0.0000,0.0928,-0.0290,-0.0017,996,1502,1500,1500,2008,1000,1505,1000,1000,1982,1370,1699,1016,-1.7793,-0.3698,0.1192,-0.0542,-0.1432,0.9918,0.1200,-0.0621,-0.1235,0.0656,0.2204,0.0300,0.0438,0.2204,0.0300,0.0438,0.3000,0.0600,0.0002,0,-3.5514,-259.0000,-0.0080,-3.5514,-259.0000,-0.0080,26.4709,59.2820,0.0200,0.0000
-38.2142,13.2010,-3.8346,0.0000,0.0821,0.1200,0.0000,0.0000,0.0000,0.0927,-0.0290,-0.0014,996,1502,1500,1500,2008,1000,1505,1000,1000,1982,1370,1699,1016,-1.5401,-0.1787,-0.0146,-0.0573,-0.1358,0.9958,0.1203,-0.0623,-0.1231,0.0650,0.2204,0.0300,0.0438,0.2204,0.0300,0.0438,0.3000,0.0600,0.0002,0,-3.5514,-259.0000,-0.0080,-3.5514,-259.0000,-0.0080,26.5165,59.3177,0.0200,0.0000
-38.1910,13.1885,-3.8249,0.0000,-0.0000,0.1200,0.0000,0.0000,0.0000,0.0926,-0.0290,-0.0014,996,1502,1500,1500,2008,1000,1505,1000,1000,1982,1370,1699,1016,-1.4875,-0.1976,-0.0186,-0.0533,-0.1341,0.9933,0.1202,-0.0622,-0.1230,0.0650,0.2204,0.0300,0.0438,0.2204,0.0300,0.0438,0.3000,0.0600,0.0002,0,-3.5514,-259.0000,-0.0080,-3.5514,-259.0000,-0.0080,26.5622,59.3535,0.0200,0.0000
-38.1687,13.1762,-3.8155,0.0000,0.0821,0.1200,0.0000,0.0000,0.0000,0.0926,-0.0290,-0.0013,996,1502,1500,1500,2008,1000,1505,1000,1000,1982,1370,1699,1016,-1.6717,-0.1240,-0.0351,-0.0533,-0.1337,0.9932,0.1203,-0.0623,-0.1229,0.0649,0.2204,0.0300,0.0438,0.2204,0.0300,0.0438,0.3000,0.0600,0.0002,0,-3.5514,-259.0000,-0.0080,-3.5514,-259.0000,-0.0080,26.6079,59.3893,0.0200,0.0000
-38.1487,13.1648,-3.8073,0.0829,-0.0000,0.2400,0.0600,0.3200,0.0000,0.0930,-0.0289,0.0007,997,1503,1500,1500,2008,1000,1505,1000,1000,1982,1370,1699,1016,-1.9218,0.0392,-0.0701,-0.0551,-0.1347,0.9928,0.1225,-0.0647,-0.1212,0.0634,0.2204,0.0300,0.0438,0.2204,0.0300,0.0438,0.3000,0.0600,0.0002,0,-3.5514,-259.0000,-0.0080,-3.5514,-259.0000,-0.0080,26.6535,59.4251,0.0400,0.0100
-38.1309,13.1545,-3.7990,0.0000,0.0821,0.1200,0.0000,0.0000,0.0000,0.0927,-0.0290,-0.0013,996,1502,1500,1500,2008,1000,1505,1000,1000,1982,1370,1699,1016,-2.0244,0.1018,-0.0267,-0.0531,-0.1336,0.9973,0.1204,-0.0623,-0.1231,0.0650,0.2204,0.0300,0.0438,0.2204,0.0300,0.0438,0.3000,0.0600,0.0002,0,-3.5514,-259.0000,-0.0080,-3.5514,-259.0000,-0.0080,26.6993,59.4609,0.0200,0.0000
-38.1130,13.1457,-3.7905,0.0000,0.0821,0.1200,0.0000,0.0000,0.0000,0.0926,-0.0291,-0.0019,996,1502,1500,1500,2008,1000,1505,1000,1000,1982,1370,1699,1016,-1.9280,0.2661,0.1340,-0.0546,-0.1377,0.9965,0.1198,-0.0617,-0.1236,0.0654,0.2204,0.0300,0.0438,0.2204,0.0300,0.0438,0.3000,0.0600,0.0002,0,-3.5514,-259.0000,-0.0080,-3.5514,-259.0000,-0.0080,26.7449,59.4967,0.0200,0.0000
-38.0925,13.1386,-3.7825,0.0829,0.0821,0.1200,0.0000,0.0000,0.0000,0.0924,-0.0291,-0.0020,996,1502,1500,1500,2008,1000,1505,1000,1000,1982,1370,1699,1016,-1.5424,0.3733,0.1887,-0.0547,-0.1439,0.9946,0.1195,-0.0613,-0.1235,0.0653,0.2204,0.0300,0.0438,0.2204,0.0300,0.0438,0.3000,0.0600,0.0002,0,-3.5514,-259.0000,-0.0080,-3.5514,-259.0000,-0.0080,26.7907,59.5325,0.0200,0.0000
-38.0684,13.1323,-3.7750,0.0000,0.0821,0.1200,0.0000,0.0000,0.0000,0.0922,-0.0291,-0.0017,996,1502,1500,1500,2008,1000,1505,1000,1000,1982,1370,1699,1016,-1.1169,0.4688,0.1243,-0.0551,-0.1470,0.9916,0.1196,-0.0613,-0.1230,0.0647,0.2204,0.0300,0.0438,0.2204,0.0300,0.0438,0.3000,0.0600,0.0002,0,-3.5514,-259.0000,-0.0080,-3.5514,-259.0000,-0.0080,26.8364,59.5683,0.0200,0.0000
-38.0391,13.1260,-3.7682,0.0829,0.0821,0.1200,0.0000,0.0000,0.0000,0.0919,-0.0291,-0.0017,996,1502,1500,1500,2008,1000,1505,1000,1000,1982,1370,1699,1016,-0.5886,0.5024,0.1013,-0.0554,-0.1458,0.9944,0.1193,-0.0610,-0.1227,0.0644,0.2204,0.0300,0.0438,0.2204,0.0300,0.0438,0.3000,0.0600,0.0002,0,-3.5514,-259.0000,-0.0080,-3.5514,-259.0000,-0.0080,26.8822,59.6042,0.0200,0.0000
-38.0043,13.1189,-3.7620,-0.0829,0.0821,0.2400,0.0600,0.3200,0.0000,0.0919,-0.0289,0.0004,997,1503,1500,1500,2008,1000,1505,1000,1000,1982,1370,1699,1016,-0.1574,0.3624,0.0408,-0.0562,-0.1422,0.9932,0.1212,-0.0633,-0.1204,0.0625,0.2204,0.0300,0.0438,0.2204,0.0300,0.0438,0.3000,0.0600,0.0002,0,-3.5514,-259.0000,-0.0080,-3.5514,-259.0000,-0.0080,26.9281,59.6399,0.0400,0.0100
-37.9663,13.1115,-3.7560,0.0000,0.1642,0.1200,0.0000,0.0000,0.0000,0.0914,-0.0291,-0.0011,996,1502,1500,1500,2008,1000,1505,1000,1000,1982,1371,1699,1016,0.1410,0.4619,-0.0788,-0.0553,-0.1411,0.9898,0.1193,-0.0611,-0.1216,0.0634,0.2204,0.0300,0.0438,0.2204,0.0300,0.0438,0.3000,0.0600,0.0002,0,-3.5514,-259.7000,-0.0080,-3.5514,-259.7000,-0.0080,26.9738,59.6756,0.0200,0.0000
-37.9265,13.1039,-3.7508,-0.1657,0.0821,0.1200,0.0000,0.0000,0.0000,0.0913,-0.0291,-0.0010,996,1502,1500,1500,2008,1000,1505,1000,1000,1982,1371,1699,1016,0.2239,0.4726,-0.1223,-0.0523,-0.1374,0.9949,0.1193,-0.0612,-0.1214,0.0632,0.2204,0.0300,0.0438,0.2204,0.0300,0.0438,0.3000,0.0600,0.0002,0,-3.5514,-259.7000,-0.0080,-3.5514,-259.7000,-0.0080,27.0196,59.7112,0.0200,0.0000
-37.8875,13.0966,-3.7464,0.0829,0.1642,0.1200,0.0000,0.0000,0.0000,0.0912,-0.0291,-0.0012,996,1502,1500,1500,2008,1000,1505,1000,1000,1982,1370,1699,1016,0.0558,0.4867,-0.0663,-0.0557,-0.1345,0.9916,0.1191,-0.0609,-0.1215,0.0634,0.2204,0.0300,0.0438,0.2204,0.0300,0.0438,0.3000,0.0600,0.0002,0,-3.5514,-259.0000,-0.0080,-3.5514,-259.0000,-0.0080,27.0654,59.7468,0.0200,0.0000
-37.8492,13.0888,-3.7413,-0.0829,-0.0000,0.1200,0.0000,0.0000,0.0000,0.0912,-0.0290,-0.0012,996,1502,1500,1500,2008,1000,1505,1000,1000,1982,1370,1699,1016,-0.0075,0.4575,-0.0709,-0.0535,-0.1351,0.9925,0.1190,-0.0610,-0.1214,0.0633,0.2204,0.0300,0.0438,0.2204,0.0300,0.0438,0.3000,0.0600,0.0002,0,-3.5514,-259.0000,-0.0080,-3.5514,-259.0000,-0.0080,27.1112,59.7825,0.0200,0.0000
-37.8114,13.0814,-3.7354,0.0000,0.0821,0.1200,0.0000,0.0000,0.0000,0.0911,-0.0290,-0.0014,996,1502,1500,1500,2008,1000,1505,1000,1000,1982,1371,1698,1016,-0.0305,0.3469,-0.0037,-0.0570,-0.1367,0.9919,0.1187,-0.0607,-0.1215,0.0635,0.2204,0.0300,0.0438,0.2204,0.0300,0.0438,0.3000,0.0600,0.0002,0,-3.5514,-259.7000,-0.0080,-3.5514,-259.7000,-0.0080,27.1570,59.8181,0.0200,0.0000
-37.7728,13.0738,-3.7277,0.0000,0.0821,0.2400,0.0600,0.3200,0.0000,0.0913,-0.0288,0.0001,997,1503,1500,1500,2008,1000,1505,1000,1000,1982,1370,1699,1016,0.0053,0.2265,0.1405,-0.0573,-0.1368,0.9929,0.1201,-0.0626,-0.1200,0.0624,0.2204,0.0300,0.0438,0.2204,0.0300,0.0438,0.3000,0.0600,0.0002,0,-3.5514,-259.0000,-0.0080,-3.5514,-259.0000,-0.0080,27.2028,59.8536,0.0400,0.0100
-37.7341,13.0659,-3.7189,0.0000,0.0821,0.1200,0.0000,0.0000,0.0000,0.0909,-0.0289,-0.0020,996,1502,1500,1500,2008,1000,1505,1000,1000,1982,1370,1699,1016,-0.0233,0.1772,0.1951,-0.0582,-0.1412,0.9937,0.1178,-0.0601,-0.1218,0.0641,0.2204,0.0300,0.0438,0.2204,0.0300,0.0438,0.3000,0.0600,0.0002,0,-3.5514,-259.0000,-0.0080,-3.5514,-259.0000,-0.0080,27.2486,59.8892,0.0200,0.0000
-37.6950,13.0585,-3.7099,0.0829,0.0821,0.1200,0.0000,0.0000,0.0000,0.0908,-0.0289,-0.0019,996,1502,1500,1500,2008,1000,1505,1000,1000,1982,1371,1699,1016,0.0092,0.2941,0.1894,-0.0564,-0.1411,0.9937,0.1178,-0.0600,-0.1217,0.0638,0.2204,0.0300,0.0438,0.2204,0.0300,0.0438,0.3000,0.0600,0.0002,0,-3.5514,-259.7000,-0.0080,-3.5514,-259.7000,-0.0080,27.2945,59.9248,0.0200,0.0000
-37.6560,13.0507,-3.7010,0.0000,0.0821,0.1200,0.0000,0.0000,0.0000,0.0907,-0.0288,-0.0019,996,1502,1500,1500,2008,1000,1505,1000,1000,1982,1371,1699,1016,0.0252,0.1687,0.1634,-0.0543,-0.1387,0.9933,0.1177,-0.0600,-0.1215,0.0638,0.2204,0.0300,0.0438,0.2204,0.0300,0.0438,0.3000,0.0600,0.0002,0,-3.5514,-259.7000,-0.0080,-3.5514,-259.7000,-0.0080,27.3403,59.9604,0.0200,0.0000
-37.6180,13.0421,-3.6936,0.0000,0.1642,0.1200,0.0000,0.0000,0.0000,0.0907,-0.0289,-0.0014,996,1502,1500,1500,2008,1000,1505,1000,1000,1982,1370,1699,1016,-0.0713,0.2962,0.0083,-0.0563,-0.1375,0.9946,0.1181,-0.0604,-0.1210,0.0633,0.2204,0.0300,0.0438,0.2204,0.0300,0.0438,0.3000,0.0600,0.0002,0,-3.5514,-259.0000,-0.0080,-3.5514,-259.0000,-0.0080,27.3862,59.9960,0.0200,0.0000
-37.5807,13.0338,-3.6860,0.0829,0.0821,0.1200,0.0000,0.0000,0.0000,0.0907,-0.0288,-0.0014,996,1502,1500,1500,2008,1000,1505,1000,1000,1982,1370,1699,1016,-0.1589,0.2226,0.0123,-0.0554,-0.1363,0.9916,0.1181,-0.0604,-0.1209,0.0632,0.2204,0.0300,0.0438,0.2204,0.0300,0.0438,0.3000,0.0600,0.0002,0,-3.5514,-259.0000,-0.0080,-3.5514,-259.0000,-0.0080,27.4321,60.0316,0.0200,0.0000
-37.5444,13.0239,-3.6785,0.0829,-0.0000,0.2400,0.0600,0.3200,0.0000,0.0909,-0.0286,0.0005,997,1503,1500,1500,2008,1000,1505,1000,1000,1982,1370,1699,1016,-0.2729,0.1423,-0.0251,-0.0541,-0.1328,0.9930,0.1201,-0.0628,-0.1190,0.0617,0.2204,0.0300,0.0438,0.2204,0.0300,0.0438,0.3000,0.0600,0.0002,0,-3.5514,-259.0000,-0.0080,-3.5514,-259.0000,-0.0080,27.4781,60.0673,0.0400,0.0100
-37.5093,13.0139,-3.6706,0.0829,0.0821,0.1200,0.0000,0.0000,0.0000,0.0906,-0.0287,-0.0016,996,1502,1500,1500,2008,1000,1505,1000,1000,1982,1370,1698,1016,-0.3300,0.0282,0.0460,-0.0552,-0.1341,0.9913,0.1177,-0.0603,-0.1208,0.0635,0.2204,0.0300,0.0438,0.2204,0.0300,0.0438,0.3000,0.0600,0.0002,0,-3.5514,-259.0000,-0.0080,-3.5514,-259.0000,-0.0080,27.5241,60.1029,0.0200,0.0000
-37.4732,13.0032,-3.6610,0.0829,0.2462,0.1200,0.0000,0.0000,0.0000,0.0905,-0.0287,-0.0019,996,1502,1500,1500,2008,1000,1505,1000,1000,1982,1370,1698,1016,-0.3076,-0.0037,0.1533,-0.0571,-0.1364,0.9898,0.1172,-0.0599,-0.1211,0.0637,0.2204,0.0300,0.0438,0.2204,0.0300,0.0438,0.3000,0.0600,0.0002,0,-3.5514,-259.0000,-0.0080,-3.5514,-259.0000,-0.0080,27.5701,60.1386,0.0200,0.0000
-37.4368,12.9922,-3.6500,0.0829,0.3283,0.1200,0.0000,0.0000,0.0000,0.0904,-0.0285,-0.0018,996,1502,1500,1500,2008,1000,1505,1000,1000,1982,1370,1699,1016,-0.2576,-0.3280,0.1295,-0.0574,-0.1381,0.9921,0.1170,-0.0601,-0.1207,0.0637,0.2204,0.0300,0.0438,0.2204,0.0300,0.0438,0.3000,0.0600,0.0002,0,-3.5514,-259.0000,-0.0080,-3.5514,-259.0000,-0.0080,27.6162,60.1742,0.0200,0.0000
-37.3993,12.9793,-3.6379,0.0000,0.0821,0.1200,0.0000,0.0000,0.0000,0.0903,-0.0284,-0.0020,996,1502,1500,1500,2008,1000,1505,1000,1000,1982,1370,1699,1016,-0.1451,-0.3862,0.1818,-0.0534,-0.1418,0.9939,0.1167,-0.0598,-0.1207,0.0638,0.2204,0.0300,0.0438,0.2204,0.0300,0.0438,0.3000,0.0600,0.0002,0,-3.5514,-259.0000,-0.0080,-3.5514,-259.0000,-0.0080,27.6622,60.2099,0.0200,0.0000
-37.3607,12.9667,-3.6251,0.0000,0.0821,0.1200,0.0000,0.0000,0.0000,0.0901,-0.0284,-0.0021,996,1502,1500,1500,2008,1000,1505,1000,1000,1982,1370,1699,1016,-0.0903,-0.3512,0.2398,-0.0564,-0.1399,0.9936,0.1165,-0.0596,-0.1207,0.0638,0.2204,0.0300,0.0438,0.2204,0.0300,0.0438,0.3000,0.0600,0.0002,0,-3.5514,-259.0000,-0.0080,-3.5514,-259.0000,-0.0080,27.7083,60.2456,0.0200,0.0000
-37.3210,12.9535,-3.6119,0.0829,0.0821,0.2400,0.0600,0.3200,0.0000,0.0903,-0.0282,-0.0001,997,1503,1500,1500,2008,1000,1505,1000,1000,1982,1370,1699,1016,0.0443,-0.4194,0.2082,-0.0578,-0.1389,0.9915,0.1184,-0.0619,-0.1186,0.0621,0.2204,0.0300,0.0438,0.2204,0.0300,0.0438,0.3000,0.0600,0.0002,0,-3.5514,-259.0000,-0.0080,-3.5514,-259.0000,-0.0080,27.7543,60.2812,0.0400,0.0100
-37.2807,12.9394,-3.5989,0.0000,0.1642,0.1200,0.0000,0.0000,0.0000,0.0899,-0.0283,-0.0016,996,1502,1500,1500,2008,1000,1505,1000,1000,1982,1370,1699,1016,0.0114,-0.5687,0.0605,-0.0575,-0.1397,0.9931,0.1166,-0.0601,-0.1198,0.0633,0.2204,0.0300,0.0438,0.2204,0.0300,0.0438,0.3000,0.0600,0.0002,0,-3.5514,-259.0000,-0.0080,-3.5514,-259.0000,-0.0080,27.8003,60.3167,0.0200,0.0000
-37.2403,12.9241,-3.5866,0.0829,0.1642,0.1200,0.0000,0.0000,0.0000,0.0898,-0.0282,-0.0015,996,1502,1500,1500,2008,1000,1505,1000,1000,1982,1370,1699,1016,0.0398,-0.5404,0.0238,-0.0588,-0.1340,0.9971,0.1165,-0.0600,-0.1196,0.0631,0.2204,0.0300,0.0438,0.2204,0.0300,0.0438,0.3000,0.0600,0.0002,0,-3.5514,-259.0000,-0.0080,-3.5514,-259.0000,-0.0080,27.8464,60.3523,0.0200,0.0000
-37.1995,12.9080,-3.5735,-0.1657,-0.0821,0.1200,0.0000,0.0000,0.0000,0.0897,-0.0282,-0.0015,996,1502,1500,1500,2008,1000,1505,1000,1000,1982,1370,1699,1016,0.0990,-0.6280,0.0191,-0.0572,-0.1396,0.9968,0.1164,-0.0601,-0.1193,0.0630,0.2204,0.0300,0.0438,0.2204,0.0300,0.0438,0.3000,0.0600,0.0002,0,-3.5514,-259.0000,-0.0080,-3.5514,-259.0000,-0.0080,27.8925,60.3879,0.0200,0.0000
-37.1577,12.8908,-3.5592,0.0000,0.0821,0.1200,0.0000,0.0000,0.0000,0.0896,-0.0280,-0.0014,996,1502,1500,1500,2008,1000,1505,1000,1000,1982,1371,1699,1016,0.1232,-0.8882,0.0037,-0.0564,-0.1372,0.9962,0.1162,-0.0602,-0.1190,0.0630,0.2204,0.0300,0.0438,0.2204,0.0300,0.0438,0.3000,0.0600,0.0002,0,-3.5514,-259.7000,-0.0080,-3.5514,-259.7000,-0.0080,27.9386,60.4234,0.0200,0.0000
-37.1153,12.8720,-3.5445,-0.0829,-0.0821,0.1200,0.0000,0.0000,0.0000,0.0895,-0.0280,-0.0016,996,1502,1500,1500,2008,1000,1505,1000,1000,1982,1371,1699,1016,0.2003,-0.9468,0.0456,-0.0565,-0.1385,0.9963,0.1158,-0.0599,-0.1191,0.0632,0.2204,0.0300,0.0438,0.2204,0.0300,0.0438,0.3000,0.0600,0.0002,0,-3.5514,-259.7000,-0.0080,-3.5514,-259.7000,-0.0080,27.9847,60.4589,0.0200,0.0000
-37.0726,12.8535,-3.5284,0.0000,-0.0000,0.2400,0.0600,0.3200,0.0000,0.0896,-0.0277,0.0001,997,1503,1500,1500,2008,1000,1505,1000,1000,1982,1370,1699,1016,0.1992,-1.0620,0.1480,-0.0564,-0.1388,0.9922,0.1175,-0.0620,-0.1173,0.0618,0.2204,0.0300,0.0438,0.2204,0.0300,0.0438,0.3000,0.0600,0.0002,0,-3.5514,-259.0000,-0.0080,-3.5514,-259.0000,-0.0080,28.0309,60.4946,0.0400,0.0100
-37.0291,12.8348,-3.5122,-0.0829,-0.0000,0.1200,0.0000,0.0000,0.0000,0.0892,-0.0279,-0.0017,996,1502,1500,1500,2008,1000,1505,1000,1000,1982,1371,1699,1016,0.3359,-0.9789,0.0882,-0.0546,-0.1370,0.9953,0.1154,-0.0597,-0.1188,0.0631,0.2204,0.0300,0.0438,0.2204,0.0300,0.0438,0.3000,0.0600,0.0002,0,-3.5514,-259.7000,-0.0080,-3.5514,-259.7000,-0.0080,28.0772,60.5302,0.0200,0.0000
-36.9848,12.8172,-3.4968,0.0829,0.0821,0.1200,0.0000,0.0000,0.0000,0.0891,-0.0279,-0.0019,996,1502,1500,1500,2008,1000,1505,1000,1000,1982,1371,1699,1016,0.4072,-0.8103,0.1538,-0.0517,-0.1408,0.9926,0.1151,-0.0593,-0.1189,0.0631,0.2204,0.0300,0.0438,0.2204,0.0300,0.0438,0.3000,0.0600,0.0002,0,-3.5514,-259.7000,-0.0080,-3.5514,-259.7000,-0.0080,28.1234,60.5659,0.0200,0.0000
-36.9391,12.7996,-3.4813,0.0829,0.1642,0.1200,0.0000,0.0000,0.0000,0.0889,-0.0279,-0.0016,996,1502,1500,1500,2008,1000,1505,1000,1000,1982,1370,1699,1016,0.5847,-0.7992,0.0725,-0.0527,-0.1397,0.9924,0.1152,-0.0595,-0.1184,0.0627,0.2204,0.0300,0.0438,0.2204,0.0300,0.0438,0.3000,0.0600,0.0002,0,-3.5514,-259.0000,-0.0080,-3.5514,-259.0000,-0.0080,28.1697,60.6015,0.0200,0.0000
-36.8920,12.7822,-3.4667,0.0000,0.0821,0.1200,0.0000,0.0000,0.0000,0.0888,-0.0278,-0.0017,996,1502,1500,1500,2008,1000,1505,1000,1000,1982,1370,1699,1016,0.7314,-0.7998,0.0779,-0.0562,-0.1401,0.9942,0.1149,-0.0593,-0.1182,0.0626,0.2204,0.0300,0.0438,0.2204,0.0300,0.0438,0.3000,0.0600,0.0002,0,-3.5514,-259.0000,-0.0080,-3.5514,-259.0000,-0.0080,28.2160,60.6371,0.0200,0.0000
-36.8433,12.7645,-3.4526,0.0000,-0.0000,0.1200,0.0000,0.0000,0.0000,0.0886,-0.0278,-0.0015,996,1502,1500,1500,2008,1000,1505,1000,1000,1982,1370,1699,1016,0.8900,-0.7705,0.0300,-0.0516,-0.1395,1.0031,0.1148,-0.0593,-0.1179,0.0623,0.2204,0.0300,0.0438,0.2204,0.0300,0.0438,0.3000,0.0600,0.0002,0,-3.5514,-259.0000,-0.0080,-3.5514,-259.0000,-0.0080,28.2623,60.6727,0.0200,0.0000
-36.7925,12.7469,-3.4389,0.0829,0.0821,0.2400,0.0600,0.3200,0.0000,0.0887,-0.0276,0.0007,997,1503,1500,1500,2008,1000,1505,1000,1000,1982,1370,1699,1016,1.0720,-0.8170,-0.0514,-0.0551,-0.1375,0.9925,0.1169,-0.0617,-0.1156,0.0604,0.2204,0.0300,0.0438,0.2204,0.0300,0.0438,0.3000,0.0600,0.0002,0,-3.5514,-259.0000,-0.0080,-3.5514,-259.0000,-0.0080,28.3085,60.7083,0.0400,0.0100
-36.7409,12.7290,-3.4254,-0.0829,0.1642,0.1200,0.0000,0.0000,0.0000,0.0883,-0.0277,-0.0014,996,1502,1500,1500,2008,1000,1505,1000,1000,1982,1370,1699,1016,1.1025,-0.8124,-0.0144,-0.0526,-0.1380,0.9929,0.1146,-0.0592,-0.1174,0.0620,0.2204,0.0300,0.0438,0.2204,0.0300,0.0438,0.3000,0.0600,0.0002,0,-3.5514,-259.0000,-0.0080,-3.5514,-259.0000,-0.0080,28.3548,60.7439,0.0200,0.0000
-36.6897,12.7107,-3.4120,0.0000,0.0821,0.1200,0.0000,0.0000,0.0000,0.0882,-0.0276,-0.0012,996,1502,1500,1500,2008,1000,1505,1000,1000,1982,1371,1699,1016,1.0700,-0.8849,-0.0736,-0.0527,-0.1370,0.9931,0.1146,-0.0594,-0.1170,0.0617,0.2204,0.0300,0.0438,0.2204,0.0300,0.0438,0.3000,0.0600,0.0002,0,-3.5514,-259.7000,-0.0080,-3.5514,-259.7000,-0.0080,28.4011,60.7795,0.0200,0.0000
-36.6373,12.6919,-3.3984,0.0000,0.0821,0.1200,0.0000,0.0000,0.0000,0.0880,-0.0276,-0.0013,996,1502,1500,1500,2008,1000,1505,1000,1000,1982,1371,1699,1016,1.0935,-0.7937,-0.0388,-0.0543,-0.1344,0.9943,0.1143,-0.0591,-0.1170,0.0617,0.2204,0.0300,0.0438,0.2204,0.0300,0.0438,0.3000,0.0600,0.0002,0,-3.5514,-259.7000,-0.0080,-3.5514,-259.7000,-0.0080,28.4475,60.8151,0.0200,0.0000
-36.5868,12.6749,-3.3856,0.0829,-0.0000,0.1200,0.0000,0.0000,0.0000,0.0880,-0.0277,-0.0012,996,1502,1500,1500,2008,1000,1505,1000,1000,1982,1370,1699,1016,0.9037,-0.6489,-0.0594,-0.0509,-0.1363,0.9916,0.1145,-0.0592,-0.1168,0.0615,0.2204,0.0300,0.0438,0.2204,0.0300,0.0438,0.3000,0.0600,0.0002,0,-3.5514,-259.0000,-0.0080,-3.5514,-259.0000,-0.0080,28.4938,60.8507,0.0200,0.0000
-36.5376,12.6589,-3.3737,0.0829,-0.0000,0.1200,0.0000,0.0000,0.0000,0.0879,-0.0277,-0.0014,996,1502,1500,1500,2008,1000,1505,1000,1000,1982,1370,1699,1016,0.7933,-0.4878,-0.0244,-0.0532,-0.1347,0.9942,0.1142,-0.0589,-0.1170,0.0617,0.2204,0.0300,0.0438,0.2204,0.0300,0.0438,0.3000,0.0600,0.0002,0,-3.5514,-259.0000,-0.0080,-3.5514,-259.0000,-0.0080,28.5402,60.8863,0.0200,0.0000
-36.4896,12.6441,-3.3615,0.0000,-0.0000,0.2400,0.0600,0.3200,0.0000,0.0881,-0.0275,0.0002,997,1503,1500,1500,2008,1000,1505,1000,1000,1982,1370,1699,1016,0.7305,-0.4418,0.0942,-0.0552,-0.1340,0.9971,0.1159,-0.0608,-0.1155,0.0604,0.2204,0.0300,0.0438,0.2204,0.0300,0.0438,0.3000,0.0600,0.0002,0,-3.5514,-259.0000,-0.0080,-3.5514,-259.0000,-0.0080,28.5866,60.9218,0.0400,0.0100
