roll_imu,pitch_imu,yaw_imu,alpha,beta,roll_des,pitch_des,yaw_des,throttle_des,roll_pid,pitch_pid,yaw_pid,radio_ch1,radio_ch2,radio_ch3,radio_ch4,radio_ch5,radio_ch6,radio_ch7,radio_ch8,radio_ch9,radio_ch10,radio_ch11,radio_ch12,radio_ch13,GyroX,GyroY,GyroZ,AccX,AccY,AccZ,s1_command,s2_command,s3_command,s4_command,kp_roll,ki_roll,kd_roll,kp_pitch,ki_pitch,kd_pitch,kp_yaw,ki_yaw,kd_yaw,failsafeTriggered,kp_alphaRoll,ki_alphaRoll,kd_alphaRoll,kp_betaPitch,ki_betaPitch,kd_betaPitch,ripIMU_roll,ripIMU_pitch,ripRoll_des,ripPitch_des
0.0000,0.0000,0.0000,-26.5193,15.8003,0.0000,0.0000,0.0000,0.0000,0.0000,0.0000,0.0000,1000,1500,1500,1500,2000,1000,1000,1000,1500,1500,1500,1500,1500,0.0000,0.0000,0.0000,0.0000,0.0000,0.0000,0.0000,0.0000,0.0000,0.0000,0.3000,0.0100,0.0700,0.3000,0.0100,0.0700,0.3000,0.0600,0.0002,0,-0.3000,-100.0000,-0.0010,-0.3000,-100.0000,-0.0010,0.0000,0.0000,0.0000,0.0000
35.2285,12.4552,3.8489,0.0829,0.0821,0.0000,-8.0400,-42.8800,0.0000,-0.2173,-0.0622,-0.1280,910,1369,1366,1366,2008,1000,1505,1505,1505,1006,2008,1000,1014,10.0573,0.0190,-0.2621,-0.0407,0.0681,0.9376,-0.2831,0.4076,0.0270,-0.1515,0.3036,0.4132,0.0700,0.3036,0.4132,0.0700,0.3000,0.0600,0.0002,0,-0.3000,-100.0000,-0.0010,-0.3000,-100.0000,-0.0010,7.1553,29.8020,-1.3100,-1.3400
35.3032,12.4428,3.8364,-0.0829,0.1642,0.0000,-2.3400,-12.4800,0.0000,-0.2184,-0.0445,-0.0375,971,1461,1461,1461,2008,1000,1505,1505,1505,1006,2008,1000,1014,11.2926,-0.5795,-0.1102,-0.0390,0.0738,0.9855,-0.2114,0.3003,0.1364,-0.2254,0.3036,0.4132,0.0700,0.3036,0.4132,0.0700,0.3000,0.0600,0.0002,0,-0.3000,-100.0000,-0.0010,-0.3000,-100.0000,-0.0010,7.1884,29.8449,-0.3900,-0.3900
35.3818,12.4242,3.8230,0.0000,0.0821,0.0000,-0.7800,-4.1600,0.0000,-0.2186,-0.0394,-0.0131,991,1490,1487,1487,2008,1000,1505,1505,1505,1006,2008,1000,1014,11.2892,-0.9503,0.1035,-0.0348,0.0791,0.9890,-0.1923,0.2712,0.1661,-0.2449,0.3036,0.4132,0.0700,0.3036,0.4132,0.0700,0.3000,0.0600,0.0002,0,-0.3000,-100.0000,-0.0010,-0.3000,-100.0000,-0.0010,7.2226,29.8879,-0.1000,-0.1300
35.4602,12.4031,3.8094,0.0000,0.0821,0.0000,-0.1800,-0.9600,0.0000,-0.2189,-0.0375,-0.0036,998,1503,1500,1500,2008,1000,1505,1505,1505,1006,2008,1000,1014,11.3512,-1.0614,0.1276,-0.0351,0.0869,0.9919,-0.1851,0.2600,0.1778,-0.2527,0.3036,0.4132,0.0700,0.3036,0.4132,0.0700,0.3000,0.0600,0.0002,0,-0.3000,-100.0000,-0.0010,-0.3000,-100.0000,-0.0010,7.2569,29.9308,0.0000,-0.0300
35.5378,12.3826,3.7959,0.0000,0.0821,0.0000,0.0000,0.0000,0.0000,-0.2190,-0.0369,-0.0007,996,1502,1500,1500,2008,1000,1505,1505,1505,1006,2008,1000,1014,11.1366,-0.9394,0.0943,-0.0364,0.0910,0.9898,-0.1827,0.2566,0.1814,-0.2553,0.3036,0.4132,0.0700,0.3036,0.4132,0.0700,0.3000,0.0600,0.0002,0,-0.3000,-100.0000,-0.0010,-0.3000,-100.0000,-0.0010,7.2912,29.9738,0.0200,0.0000
35.6145,12.3653,3.7835,-0.0829,-0.0000,0.0000,0.0000,0.0000,0.0000,-0.2191,-0.0373,-0.0001,996,1502,1500,1500,2008,1000,1505,1505,1505,1006,2008,1000,1014,11.0177,-0.3963,-0.0921,-0.0283,0.0935,0.9886,-0.1820,0.2565,0.1818,-0.2563,0.3036,0.4132,0.0700,0.3036,0.4132,0.0700,0.3000,0.0600,0.0002,0,-0.3000,-100.0000,-0.0010,-0.3000,-100.0000,-0.0010,7.3256,30.0166,0.0200,0.0000
35.6887,12.3529,3.7729,0.0000,-0.0000,0.0000,0.0000,0.0000,0.0000,-0.2191,-0.0376,0.0001,996,1502,1500,1500,2008,1000,1505,1505,1505,1006,2008,1000,1014,10.6627,0.1075,-0.1684,-0.0321,0.0922,0.9907,-0.1814,0.2566,0.1817,-0.2568,0.3036,0.4132,0.0700,0.3036,0.4132,0.0700,0.3000,0.0600,0.0002,0,-0.3000,-100.0000,-0.0010,-0.3000,-100.0000,-0.0010,7.3600,30.0595,0.0200,0.0000
35.7592,12.3448,3.7654,0.0000,0.0821,0.0000,0.0000,0.0000,0.0000,-0.2190,-0.0378,0.0000,996,1502,1500,1500,2008,1000,1505,1505,1505,1006,2008,1000,1014,10.1455,0.4186,-0.1315,-0.0304,0.0911,0.9903,-0.1812,0.2567,0.1812,-0.2568,0.3036,0.4132,0.0700,0.3036,0.4132,0.0700,0.3000,0.0600,0.0002,0,-0.3000,-100.0000,-0.0010,-0.3000,-100.0000,-0.0010,7.3943,30.1024,0.0200,0.0000
35.8231,12.3389,3.7596,-0.0829,0.1642,0.0000,0.0000,0.0000,0.0000,-0.2187,-0.0379,0.0000,996,1502,1500,1500,2008,1000,1505,1505,1505,1006,2008,1000,1014,9.4298,0.5968,-0.1133,-0.0390,0.0938,0.9910,-0.1808,0.2565,0.1808,-0.2566,0.3036,0.4132,0.0700,0.3036,0.4132,0.0700,0.3000,0.0600,0.0002,0,-0.3000,-100.0000,-0.0010,-0.3000,-100.0000,-0.0010,7.4287,30.1452,0.0200,0.0000
35.8797,12.3338,3.7546,0.0829,-0.0000,0.0000,0.0000,0.0000,0.0000,-0.2184,-0.0378,-0.0001,998,1504,1501,1501,2008,1000,1505,1505,1505,1006,2008,1000,1014,8.7637,0.5537,-0.0729,-0.0375,0.0960,0.9930,-0.1806,0.2563,0.1804,-0.2561,0.3036,0.4132,0.0700,0.3036,0.4132,0.0700,0.3000,0.0600,0.0002,0,-0.3000,-100.0000,-0.0010,-0.3000,-100.0000,-0.0010,7.4631,30.1879,0.0200,0.0000
35.9276,12.3264,3.7483,0.0000,0.1642,0.0000,0.0000,0.0000,0.0000,-0.2178,-0.0376,-0.0004,996,1502,1500,1500,2008,1000,1505,1505,1505,1006,2008,1000,1014,7.8038,0.2982,0.0072,-0.0396,0.1023,0.9871,-0.1806,0.2559,0.1798,-0.2551,0.3036,0.4132,0.0700,0.3036,0.4132,0.0700,0.3000,0.0600,0.0002,0,-0.3000,-100.0000,-0.0010,-0.3000,-100.0000,-0.0010,7.4974,30.2307,0.0200,0.0000
35.9662,12.3152,3.7404,0.0829,0.0821,0.0000,0.0000,0.0000,0.0000,-0.2174,-0.0372,-0.0006,996,1502,1500,1500,2008,1000,1505,1505,1505,1006,2008,1000,1014,7.0264,-0.2273,0.0856,-0.0384,0.1048,0.9896,-0.1808,0.2553,0.1796,-0.2540,0.3036,0.4132,0.0700,0.3036,0.4132,0.0700,0.3000,0.0600,0.0002,0,-0.3000,-100.0000,-0.0010,-0.3000,-100.0000,-0.0010,7.5318,30.2735,0.0200,0.0000
35.9966,12.2991,3.7298,0.0000,0.1642,0.0000,0.0000,0.0000,0.0000,-0.2170,-0.0369,-0.0007,996,1502,1500,1500,2008,1000,1505,1505,1505,1006,2008,1000,1014,6.3267,-0.6044,0.0877,-0.0345,0.1096,0.9871,-0.1808,0.2546,0.1794,-0.2533,0.3036,0.4132,0.0700,0.3036,0.4132,0.0700,0.3000,0.0600,0.0002,0,-0.3000,-100.0000,-0.0010,-0.3000,-100.0000,-0.0010,7.5662,30.3163,0.0200,0.0000
36.0192,12.2811,3.7183,0.0000,0.1642,0.0000,0.0000,0.0000,0.0000,-0.2166,-0.0368,-0.0007,996,1502,1500,1500,2008,1000,1505,1505,1505,1006,2008,1000,1014,5.6305,-0.7439,0.1296,-0.0368,0.1075,0.9902,-0.1806,0.2541,0.1791,-0.2526,0.3036,0.4132,0.0700,0.3036,0.4132,0.0700,0.3000,0.0600,0.0002,0,-0.3000,-100.0000,-0.0010,-0.3000,-100.0000,-0.0010,7.6006,30.3591,0.0200,0.0000
36.0343,12.2624,3.7056,-0.0829,-0.0000,0.0000,0.0000,0.0000,0.0000,-0.2162,-0.0367,-0.0007,996,1502,1500,1500,2008,1000,1505,1505,1505,1006,2008,1000,1014,4.9840,-0.7478,0.0874,-0.0302,0.1037,0.9857,-0.1801,0.2536,0.1788,-0.2522,0.3036,0.4132,0.0700,0.3036,0.4132,0.0700,0.3000,0.0600,0.0002,0,-0.3000,-100.0000,-0.0010,-0.3000,-100.0000,-0.0010,7.6350,30.4018,0.0200,0.0000
36.0430,12.2465,3.6943,0.0000,-0.0000,0.0000,0.0000,0.0000,0.0000,-0.2158,-0.0370,-0.0001,998,1504,1501,1501,2008,1000,1505,1505,1505,1006,2008,1000,1014,4.3303,-0.3118,-0.0722,-0.0297,0.1023,0.9882,-0.1789,0.2528,0.1787,-0.2526,0.3036,0.4132,0.0700,0.3036,0.4132,0.0700,0.3000,0.0600,0.0002,0,-0.3000,-100.0000,-0.0010,-0.3000,-100.0000,-0.0010,7.6694,30.4446,0.0200,0.0000
36.0454,12.2340,3.6842,0.0000,0.0821,0.0000,0.0000,0.0000,0.0000,-0.2153,-0.0372,-0.0002,996,1502,1500,1500,2008,1000,1505,1505,1505,1006,2008,1000,1014,3.6429,0.0683,-0.0665,-0.0301,0.1050,0.9876,-0.1783,0.2527,0.1779,-0.2523,0.3036,0.4132,0.0700,0.3036,0.4132,0.0700,0.3000,0.0600,0.0002,0,-0.3000,-100.0000,-0.0010,-0.3000,-100.0000,-0.0010,7.7038,30.4873,0.0200,0.0000
36.0412,12.2240,3.6761,0.0000,-0.0000,0.0000,0.0000,0.0000,0.0000,-0.2149,-0.0373,-0.0002,996,1502,1500,1500,2008,1000,1505,1505,1505,1006,2008,1000,1014,3.0704,0.2542,-0.0505,-0.0302,0.1064,0.9936,-0.1778,0.2523,0.1774,-0.2520,0.3036,0.4132,0.0700,0.3036,0.4132,0.0700,0.3000,0.0600,0.0002,0,-0.3000,-100.0000,-0.0010,-0.3000,-100.0000,-0.0010,7.7382,30.5300,0.0200,0.0000
36.0317,12.2162,3.6691,0.0829,0.0821,0.0000,0.0000,0.0000,0.0000,-0.2144,-0.0374,0.0001,996,1502,1500,1500,2008,1000,1505,1505,1505,1006,2008,1000,1014,2.4656,0.4664,-0.1659,-0.0354,0.1092,0.9905,-0.1769,0.2517,0.1771,-0.2519,0.3036,0.4132,0.0700,0.3036,0.4132,0.0700,0.3000,0.0600,0.0002,0,-0.3000,-100.0000,-0.0010,-0.3000,-100.0000,-0.0010,7.7726,30.5727,0.0200,0.0000
36.0163,12.2097,3.6634,0.0000,0.0821,0.0000,0.0000,0.0000,0.0000,-0.2140,-0.0374,-0.0003,996,1502,1500,1500,2008,1000,1505,1505,1505,1006,2008,1000,1014,1.9640,0.5259,-0.0337,-0.0369,0.1110,0.9938,-0.1768,0.2517,0.1763,-0.2512,0.3036,0.4132,0.0700,0.3036,0.4132,0.0700,0.3000,0.0600,0.0002,0,-0.3000,-100.0000,-0.0010,-0.3000,-100.0000,-0.0010,7.8070,30.6154,0.0200,0.0000
35.9948,12.2021,3.6574,0.0000,0.0821,0.0000,0.0000,0.0000,0.0000,-0.2135,-0.0374,-0.0004,996,1502,1500,1500,2008,1000,1505,1505,1505,1006,2008,1000,1014,1.3816,0.4749,0.0086,-0.0330,0.1093,0.9862,-0.1766,0.2513,0.1758,-0.2505,0.3036,0.4132,0.0700,0.3036,0.4132,0.0700,0.3000,0.0600,0.0002,0,-0.3000,-100.0000,-0.0010,-0.3000,-100.0000,-0.0010,7.8414,30.6581,0.0200,0.0000
35.9679,12.1927,3.6515,0.0000,0.0821,0.0000,0.0000,0.0000,0.0000,-0.2131,-0.0371,-0.0005,998,1504,1501,1501,2008,1000,1505,1505,1505,1006,2008,1000,1014,0.8096,0.0815,0.0637,-0.0345,0.1068,0.9888,-0.1765,0.2507,0.1755,-0.2496,0.3036,0.4132,0.0700,0.3036,0.4132,0.0700,0.3000,0.0600,0.0002,0,-0.3000,-100.0000,-0.0010,-0.3000,-100.0000,-0.0010,7.8759,30.7008,0.0200,0.0000
35.9347,12.1800,3.6443,0.0000,0.0821,0.0000,0.0000,0.0000,0.0000,-0.2126,-0.0369,-0.0009,996,1502,1500,1500,2008,1000,1505,1505,1505,1006,2008,1000,1014,0.2737,-0.1509,0.1832,-0.0382,0.1055,0.9845,-0.1766,0.2503,0.1748,-0.2486,0.3036,0.4132,0.0700,0.3036,0.4132,0.0700,0.3000,0.0600,0.0002,0,-0.3000,-100.0000,-0.0010,-0.3000,-100.0000,-0.0010,7.9103,30.7435,0.0200,0.0000
35.8955,12.1654,3.6364,0.0000,0.0821,0.0000,0.0000,0.0000,0.0000,-0.2121,-0.0367,-0.0011,996,1502,1500,1500,2008,1000,1505,1505,1505,1006,2008,1000,1014,-0.2282,-0.2896,0.2577,-0.0378,0.1062,0.9884,-0.1765,0.2500,0.1743,-0.2477,0.3036,0.4132,0.0700,0.3036,0.4132,0.0700,0.3000,0.0600,0.0002,0,-0.3000,-100.0000,-0.0010,-0.3000,-100.0000,-0.0010,7.9448,30.7861,0.0200,0.0000
35.8512,12.1499,3.6280,0.0000,0.0821,0.0000,0.0000,0.0000,0.0000,-0.2116,-0.0367,-0.0010,996,1502,1500,1500,2008,1000,1505,1505,1505,1006,2008,1000,1014,-0.7579,-0.3360,0.2219,-0.0354,0.1045,0.9903,-0.1760,0.2493,0.1739,-0.2472,0.3036,0.4132,0.0700,0.3036,0.4132,0.0700,0.3000,0.0600,0.0002,0,-0.3000,-100.0000,-0.0010,-0.3000,-100.0000,-0.0010,7.9792,30.8288,0.0200,0.0000
35.8014,12.1337,3.6187,0.0000,0.0821,0.0000,0.0000,0.0000,0.0000,-0.2112,-0.0366,-0.0008,996,1502,1500,1500,2008,1000,1505,1505,1505,1006,2008,1000,1014,-1.1748,-0.3848,0.1461,-0.0337,0.1065,0.9849,-0.1754,0.2486,0.1738,-0.2469,0.3036,0.4132,0.0700,0.3036,0.4132,0.0700,0.3000,0.0600,0.0002,0,-0.3000,-100.0000,-0.0010,-0.3000,-100.0000,-0.0010,8.0136,30.8714,0.0200,0.0000
35.7466,12.1182,3.6100,0.0000,0.0821,0.0000,0.0000,0.0000,0.0000,-0.2106,-0.0366,-0.0010,996,1502,1500,1500,2008,1000,1505,1505,1505,1006,2008,1000,1014,-1.6889,-0.2996,0.2386,-0.0293,0.1063,0.9906,-0.1751,0.2483,0.1730,-0.2462,0.3036,0.4132,0.0700,0.3036,0.4132,0.0700,0.3000,0.0600,0.0002,0,-0.3000,-100.0000,-0.0010,-0.3000,-100.0000,-0.0010,8.0481,30.9140,0.0200,0.0000
35.6881,12.1039,3.6022,-0.0829,0.1642,0.0000,0.0000,0.0000,0.0000,-0.2102,-0.0367,-0.0006,998,1504,1501,1501,2008,1000,1505,1505,1505,1006,2008,1000,1014,-2.0047,-0.0472,0.0630,-0.0311,0.1034,0.9918,-0.1741,0.2476,0.1729,-0.2464,0.3036,0.4132,0.0700,0.3036,0.4132,0.0700,0.3000,0.0600,0.0002,0,-0.3000,-100.0000,-0.0010,-0.3000,-100.0000,-0.0010,8.0826,30.9566,0.0200,0.0000
35.6266,12.0916,3.5960,0.0000,-0.0000,0.0000,0.0000,0.0000,0.0000,-0.2098,-0.0368,-0.0010,996,1502,1500,1500,2008,1000,1505,1505,1505,1006,2008,1000,1014,-2.3282,0.1311,0.2216,-0.0358,0.1050,0.9915,-0.1741,0.2477,0.1720,-0.2456,0.3036,0.4132,0.0700,0.3036,0.4132,0.0700,0.3000,0.0600,0.0002,0,-0.3000,-100.0000,-0.0010,-0.3000,-100.0000,-0.0010,8.1170,30.9992,0.0200,0.0000
35.5618,12.0802,3.5912,0.0829,0.0821,0.0000,0.0000,0.0000,0.0000,-0.2094,-0.0368,-0.0013,996,1502,1500,1500,2008,1000,1505,1505,1505,1006,2008,1000,1014,-2.6594,0.2075,0.3152,-0.0356,0.1003,0.9838,-0.1739,0.2475,0.1713,-0.2449,0.3036,0.4132,0.0700,0.3036,0.4132,0.0700,0.3000,0.0600,0.0002,0,-0.3000,-100.0000,-0.0010,-0.3000,-100.0000,-0.0010,8.1515,31.0418,0.0200,0.0000
35.4941,12.0686,3.5875,0.0000,-0.0000,0.0000,0.0000,0.0000,0.0000,-0.2090,-0.0368,-0.0015,996,1502,1500,1500,2008,1000,1505,1505,1505,1006,2008,1000,1014,-2.8858,0.1929,0.3846,-0.0348,0.1028,0.9890,-0.1738,0.2473,0.1707,-0.2443,0.3036,0.4132,0.0700,0.3036,0.4132,0.0700,0.3000,0.0600,0.0002,0,-0.3000,-100.0000,-0.0010,-0.3000,-100.0000,-0.0010,8.1860,31.0844,0.0200,0.0000
35.4244,12.0557,3.5842,0.0000,0.0821,0.0000,0.0000,0.0000,0.0000,-0.2087,-0.0367,-0.0019,996,1502,1500,1500,2008,1000,1505,1505,1505,1006,2008,1000,1014,-3.0740,0.1644,0.5196,-0.0346,0.1000,0.9886,-0.1739,0.2473,0.1701,-0.2435,0.3036,0.4132,0.0700,0.3036,0.4132,0.0700,0.3000,0.0600,0.0002,0,-0.3000,-100.0000,-0.0010,-0.3000,-100.0000,-0.0010,8.2205,31.1271,0.0200,0.0000
35.3530,12.0421,3.5817,0.0000,0.0821,0.0000,0.0000,0.0000,0.0000,-0.2084,-0.0367,-0.0022,996,1502,1500,1500,2008,1000,1505,1505,1505,1006,2008,1000,1014,-3.1714,0.1410,0.5897,-0.0335,0.1032,0.9887,-0.1739,0.2472,0.1696,-0.2429,0.3036,0.4132,0.0700,0.3036,0.4132,0.0700,0.3000,0.0600,0.0002,0,-0.3000,-100.0000,-0.0010,-0.3000,-100.0000,-0.0010,8.2549,31.1697,0.0200,0.0000
35.2807,12.0275,3.5786,0.0000,-0.0000,0.0000,0.0000,0.0000,0.0000,-0.2081,-0.0365,-0.0020,998,1504,1501,1501,2008,1000,1505,1505,1505,1006,2008,1000,1014,-3.3070,-0.0914,0.5520,-0.0354,0.0973,0.9938,-0.1737,0.2466,0.1696,-0.2425,0.3036,0.4132,0.0700,0.3036,0.4132,0.0700,0.3000,0.0600,0.0002,0,-0.3000,-100.0000,-0.0010,-0.3000,-100.0000,-0.0010,8.2895,31.2123,0.0200,0.0000
35.2066,12.0123,3.5747,-0.0829,-0.0000,0.0000,0.0000,0.0000,0.0000,-0.2078,-0.0364,-0.0019,996,1502,1500,1500,2008,1000,1505,1505,1505,1006,2008,1000,1014,-3.4655,-0.0407,0.5126,-0.0367,0.0985,0.9886,-0.1732,0.2461,0.1694,-0.2423,0.3036,0.4132,0.0700,0.3036,0.4132,0.0700,0.3000,0.0600,0.0002,0,-0.3000,-100.0000,-0.0010,-0.3000,-100.0000,-0.0010,8.3240,31.2549,0.0200,0.0000
35.1312,11.9973,3.5706,0.0000,0.0821,0.0000,0.0000,0.0000,0.0000,-0.2075,-0.0364,-0.0019,996,1502,1500,1500,2008,1000,1505,1505,1505,1006,2008,1000,1014,-3.5413,-0.0138,0.5016,-0.0338,0.0976,0.9890,-0.1729,0.2458,0.1692,-0.2420,0.3036,0.4132,0.0700,0.3036,0.4132,0.0700,0.3000,0.0600,0.0002,0,-0.3000,-100.0000,-0.0010,-0.3000,-100.0000,-0.0010,8.3584,31.2974,0.0200,0.0000
35.0549,11.9837,3.5665,0.0000,-0.0000,0.0000,0.0000,0.0000,0.0000,-0.2072,-0.0364,-0.0016,996,1502,1500,1500,2008,1000,1505,1505,1505,1006,2008,1000,1014,-3.6166,0.0144,0.3975,-0.0314,0.0947,0.9960,-0.1724,0.2451,0.1692,-0.2420,0.3036,0.4132,0.0700,0.3036,0.4132,0.0700,0.3000,0.0600,0.0002,0,-0.3000,-100.0000,-0.0010,-0.3000,-100.0000,-0.0010,8.3930,31.3400,0.0200,0.0000
34.9778,11.9700,3.5623,0.0000,-0.0000,0.0000,0.0000,0.0000,0.0000,-0.2069,-0.0364,-0.0016,996,1502,1500,1500,2008,1000,1505,1505,1505,1006,2008,1000,1014,-3.6674,0.0745,0.3967,-0.0333,0.0949,0.9898,-0.1721,0.2449,0.1690,-0.2418,0.3036,0.4132,0.0700,0.3036,0.4132,0.0700,0.3000,0.0600,0.0002,0,-0.3000,-100.0000,-0.0010,-0.3000,-100.0000,-0.0010,8.4275,31.3825,0.0200,0.0000
34.9006,11.9569,3.5582,0.0000,-0.0000,0.0000,0.0000,0.0000,0.0000,-0.2067,-0.0364,-0.0016,996,1502,1500,1500,2008,1000,1505,1505,1505,1006,2008,1000,1014,-3.6373,0.1020,0.4217,-0.0322,0.0926,0.9906,-0.1720,0.2447,0.1687,-0.2415,0.3036,0.4132,0.0700,0.3036,0.4132,0.0700,0.3000,0.0600,0.0002,0,-0.3000,-100.0000,-0.0010,-0.3000,-100.0000,-0.0010,8.4620,31.4250,0.0200,0.0000
34.8236,11.9434,3.5540,0.0000,-0.0000,0.0000,0.0000,0.0000,0.0000,-0.2065,-0.0363,-0.0018,998,1504,1501,1501,2008,1000,1505,1505,1505,1006,2008,1000,1014,-3.6532,0.0860,0.4321,-0.0332,0.0982,0.9845,-0.1719,0.2445,0.1684,-0.2410,0.3036,0.4132,0.0700,0.3036,0.4132,0.0700,0.3000,0.0600,0.0002,0,-0.3000,-100.0000,-0.0010,-0.3000,-100.0000,-0.0010,8.4965,31.4675,0.0200,0.0000
34.7460,11.9303,3.5499,0.0000,-0.0000,0.0000,0.0000,0.0000,0.0000,-0.2062,-0.0363,-0.0017,996,1502,1500,1500,2008,1000,1505,1505,1505,1006,2008,1000,1014,-3.6864,0.1310,0.4192,-0.0348,0.0949,0.9923,-0.1716,0.2442,0.1682,-0.2409,0.3036,0.4132,0.0700,0.3036,0.4132,0.0700,0.3000,0.0600,0.0002,0,-0.3000,-100.0000,-0.0010,-0.3000,-100.0000,-0.0010,8.5310,31.5100,0.0200,0.0000
34.6690,11.9180,3.5464,0.0000,0.0821,0.0000,0.0000,0.0000,0.0000,-0.2060,-0.0363,-0.0015,996,1502,1500,1500,2008,1000,1505,1505,1505,1006,2008,1000,1014,-3.6719,0.1546,0.3788,-0.0365,0.0945,0.9916,-0.1712,0.2438,0.1682,-0.2408,0.3036,0.4132,0.0700,0.3036,0.4132,0.0700,0.3000,0.0600,0.0002,0,-0.3000,-100.0000,-0.0010,-0.3000,-100.0000,-0.0010,8.5655,31.5525,0.0200,0.0000
34.5922,11.9053,3.5420,0.0000,0.0821,0.0000,0.0000,0.0000,0.0000,-0.2058,-0.0362,-0.0015,996,1502,1500,1500,2008,1000,1505,1505,1505,1006,2008,1000,1014,-3.6111,0.0846,0.3742,-0.0340,0.0909,0.9903,-0.1711,0.2435,0.1681,-0.2405,0.3036,0.4132,0.0700,0.3036,0.4132,0.0700,0.3000,0.0600,0.0002,0,-0.3000,-100.0000,-0.0010,-0.3000,-100.0000,-0.0010,8.6001,31.5950,0.0200,0.0000
34.5148,11.8922,3.5368,-0.0829,0.0821,0.0000,0.0000,0.0000,0.0000,-0.2056,-0.0361,-0.0014,996,1502,1500,1500,2008,1000,1505,1505,1505,1006,2008,1000,1014,-3.5449,-0.0186,0.3245,-0.0354,0.0913,0.9902,-0.1709,0.2431,0.1681,-0.2403,0.3036,0.4132,0.0700,0.3036,0.4132,0.0700,0.3000,0.0600,0.0002,0,-0.3000,-100.0000,-0.0010,-0.3000,-100.0000,-0.0010,8.6346,31.6375,0.0200,0.0000
34.4379,11.8786,3.5309,0.0829,0.1642,0.0000,0.0000,0.0000,0.0000,-0.2053,-0.0360,-0.0015,996,1502,1500,1500,2008,1000,1505,1505,1505,1006,2008,1000,1014,-3.6241,-0.0581,0.3422,-0.0344,0.0916,0.9883,-0.1708,0.2428,0.1678,-0.2399,0.3036,0.4132,0.0700,0.3036,0.4132,0.0700,0.3000,0.0600,0.0002,0,-0.3000,-100.0000,-0.0010,-0.3000,-100.0000,-0.0010,8.6692,31.6799,0.0200,0.0000
34.3607,11.8643,3.5248,0.0000,0.0821,0.0000,0.0000,0.0000,0.0000,-0.2051,-0.0359,-0.0010,998,1504,1501,1501,2008,1000,1505,1505,1505,1006,2008,1000,1014,-3.6271,-0.1333,0.2237,-0.0340,0.0916,0.9908,-0.1702,0.2421,0.1681,-0.2400,0.3036,0.4132,0.0700,0.3036,0.4132,0.0700,0.3000,0.0600,0.0002,0,-0.3000,-100.0000,-0.0010,-0.3000,-100.0000,-0.0010,8.7037,31.7224,0.0200,0.0000
34.2833,11.8505,3.5172,-0.0829,0.0821,0.0000,0.0000,0.0000,0.0000,-0.2049,-0.0359,-0.0008,996,1502,1500,1500,2008,1000,1505,1505,1505,1006,2008,1000,1014,-3.5844,-0.0570,0.1270,-0.0330,0.0903,0.9909,-0.1697,0.2416,0.1682,-0.2400,0.3036,0.4132,0.0700,0.3036,0.4132,0.0700,0.3000,0.0600,0.0002,0,-0.3000,-100.0000,-0.0010,-0.3000,-100.0000,-0.0010,8.7383,31.7648,0.0200,0.0000
34.2066,11.8376,3.5099,-0.0829,-0.0000,0.0000,0.0000,0.0000,0.0000,-0.2047,-0.0359,-0.0006,996,1502,1500,1500,2008,1000,1505,1505,1505,1006,2008,1000,1014,-3.5556,-0.0163,0.0699,-0.0332,0.0897,0.9899,-0.1693,0.2412,0.1681,-0.2400,0.3036,0.4132,0.0700,0.3036,0.4132,0.0700,0.3000,0.0600,0.0002,0,-0.3000,-100.0000,-0.0010,-0.3000,-100.0000,-0.0010,8.7728,31.8072,0.0200,0.0000
34.1295,11.8250,3.5017,0.0000,0.0821,0.0000,0.0000,0.0000,0.0000,-0.2044,-0.0359,-0.0004,996,1502,1500,1500,2008,1000,1505,1505,1505,1006,2008,1000,1014,-3.5497,-0.0357,-0.0014,-0.0324,0.0890,0.9932,-0.1689,0.2407,0.1682,-0.2399,0.3036,0.4132,0.0700,0.3036,0.4132,0.0700,0.3000,0.0600,0.0002,0,-0.3000,-100.0000,-0.0010,-0.3000,-100.0000,-0.0010,8.8074,31.8497,0.0200,0.0000
34.0522,11.8133,3.4942,0.0000,0.0821,0.0000,0.0000,0.0000,0.0000,-0.2042,-0.0359,-0.0004,996,1502,1500,1500,2008,1000,1505,1505,1505,1006,2008,1000,1014,-3.5908,-0.0070,0.0021,-0.0369,0.0864,0.9900,-0.1687,0.2404,0.1679,-0.2396,0.3036,0.4132,0.0700,0.3036,0.4132,0.0700,0.3000,0.0600,0.0002,0,-0.3000,-100.0000,-0.0010,-0.3000,-100.0000,-0.0010,8.8420,31.8921,0.0200,0.0000
33.9748,11.8016,3.4859,0.0000,0.0821,0.0000,0.0000,0.0000,0.0000,-0.2040,-0.0358,-0.0004,996,1502,1500,1500,2008,1000,1505,1505,1505,1006,2008,1000,1014,-3.5563,-0.1083,-0.0070,-0.0322,0.0874,0.9902,-0.1686,0.2401,0.1678,-0.2393,0.3036,0.4132,0.0700,0.3036,0.4132,0.0700,0.3000,0.0600,0.0002,0,-0.3000,-100.0000,-0.0010,-0.3000,-100.0000,-0.0010,8.8765,31.9345,0.0200,0.0000
33.8979,11.7897,3.4776,0.0000,0.0821,0.0000,0.0000,0.0000,0.0000,-0.2037,-0.0358,-0.0004,998,1504,1501,1501,2008,1000,1505,1505,1505,1006,2008,1000,1014,-3.5534,-0.0014,-0.0104,-0.0375,0.0874,0.9906,-0.1683,0.2399,0.1675,-0.2391,0.3036,0.4132,0.0700,0.3036,0.4132,0.0700,0.3000,0.0600,0.0002,0,-0.3000,-100.0000,-0.0010,-0.3000,-100.0000,-0.0010,8.9111,31.9769,0.0200,0.0000
33.8209,11.7781,3.4696,0.0000,-0.0000,0.0000,0.0000,0.0000,0.0000,-0.2035,-0.0357,-0.0006,996,1502,1500,1500,2008,1000,1505,1505,1505,1006,2008,1000,1014,-3.5575,-0.0334,0.0440,-0.0328,0.0861,0.9896,-0.1683,0.2398,0.1672,-0.2387,0.3036,0.4132,0.0700,0.3036,0.4132,0.0700,0.3000,0.0600,0.0002,0,-0.3000,-100.0000,-0.0010,-0.3000,-100.0000,-0.0010,8.9457,32.0192,0.0200,0.0000
33.7436,11.7657,3.4617,-0.0829,0.0821,0.0000,0.0000,0.0000,0.0000,-0.2033,-0.0357,-0.0008,996,1502,1500,1500,2008,1000,1505,1505,1505,1006,2008,1000,1014,-3.5440,-0.0154,0.1278,-0.0329,0.0877,0.9903,-0.1684,0.2398,0.1667,-0.2381,0.3036,0.4132,0.0700,0.3036,0.4132,0.0700,0.3000,0.0600,0.0002,0,-0.3000,-100.0000,-0.0010,-0.3000,-100.0000,-0.0010,8.9803,32.0615,0.0200,0.0000
33.6665,11.7530,3.4546,0.0829,-0.0000,0.0000,0.0000,0.0000,0.0000,-0.2030,-0.0356,-0.0005,996,1502,1500,1500,2008,1000,1505,1505,1505,1006,2008,1000,1014,-3.6236,-0.0737,0.0493,-0.0342,0.0842,0.9887,-0.1678,0.2391,0.1669,-0.2381,0.3036,0.4132,0.0700,0.3036,0.4132,0.0700,0.3000,0.0600,0.0002,0,-0.3000,-100.0000,-0.0010,-0.3000,-100.0000,-0.0010,9.0149,32.1037,0.0200,0.0000
33.5890,11.7400,3.4474,0.0000,-0.0000,0.0000,0.0000,0.0000,0.0000,-0.2028,-0.0356,-0.0008,996,1502,1500,1500,2008,1000,1505,1505,1505,1006,2008,1000,1014,-3.5670,0.0015,0.1135,-0.0336,0.0843,0.9948,-0.1679,0.2392,0.1664,-0.2377,0.3036,0.4132,0.0700,0.3036,0.4132,0.0700,0.3000,0.0600,0.0002,0,-0.3000,-100.0000,-0.0010,-0.3000,-100.0000,-0.0010,9.0495,32.1460,0.0200,0.0000
33.5120,11.7275,3.4407,0.0000,-0.0000,0.0000,0.0000,0.0000,0.0000,-0.2025,-0.0356,-0.0009,996,1502,1500,1500,2008,1000,1505,1505,1505,1006,2008,1000,1014,-3.5866,0.0445,0.1703,-0.0346,0.0853,0.9892,-0.1678,0.2391,0.1660,-0.2373,0.3036,0.4132,0.0700,0.3036,0.4132,0.0700,0.3000,0.0600,0.0002,0,-0.3000,-100.0000,-0.0010,-0.3000,-100.0000,-0.0010,9.0841,32.1883,0.0200,0.0000
33.4346,11.7153,3.4336,-0.0829,-0.0000,0.0000,0.0000,0.0000,0.0000,-0.2023,-0.0356,-0.0007,998,1504,1501,1501,2008,1000,1505,1505,1505,1006,2008,1000,1014,-3.5540,0.0499,0.0667,-0.0317,0.0820,0.9878,-0.1674,0.2386,0.1661,-0.2373,0.3036,0.4132,0.0700,0.3036,0.4132,0.0700,0.3000,0.0600,0.0002,0,-0.3000,-100.0000,-0.0010,-0.3000,-100.0000,-0.0010,9.1187,32.2306,0.0200,0.0000
33.3574,11.7033,3.4261,0.0000,-0.0000,0.0000,0.0000,0.0000,0.0000,-0.2021,-0.0356,-0.0008,996,1502,1500,1500,2008,1000,1505,1505,1505,1006,2008,1000,1014,-3.5630,0.0452,0.1214,-0.0330,0.0833,0.9923,-0.1674,0.2385,0.1657,-0.2368,0.3036,0.4132,0.0700,0.3036,0.4132,0.0700,0.3000,0.0600,0.0002,0,-0.3000,-100.0000,-0.0010,-0.3000,-100.0000,-0.0010,9.1533,32.2729,0.0200,0.0000
33.2800,11.6908,3.4190,0.0000,0.0821,0.0000,0.0000,0.0000,0.0000,-0.2018,-0.0355,-0.0007,996,1502,1500,1500,2008,1000,1505,1505,1505,1006,2008,1000,1014,-3.5550,-0.0403,0.1073,-0.0338,0.0814,0.9965,-0.1671,0.2381,0.1656,-0.2366,0.3036,0.4132,0.0700,0.3036,0.4132,0.0700,0.3000,0.0600,0.0002,0,-0.3000,-100.0000,-0.0010,-0.3000,-100.0000,-0.0010,9.1879,32.3151,0.0200,0.0000
33.2022,11.6782,3.4114,0.0829,0.0821,0.0000,0.0000,0.0000,0.0000,-0.2016,-0.0354,-0.0009,996,1502,1500,1500,2008,1000,1505,1505,1505,1006,2008,1000,1014,-3.6356,-0.0492,0.1359,-0.0369,0.0810,0.9913,-0.1670,0.2379,0.1652,-0.2361,0.3036,0.4132,0.0700,0.3036,0.4132,0.0700,0.3000,0.0600,0.0002,0,-0.3000,-100.0000,-0.0010,-0.3000,-100.0000,-0.0010,9.2225,32.3574,0.0200,0.0000
33.1240,11.6652,3.4039,0.0000,0.1642,0.0000,0.0000,0.0000,0.0000,-0.2013,-0.0354,-0.0004,996,1502,1500,1500,2008,1000,1505,1505,1505,1006,2008,1000,1014,-3.7113,-0.0543,0.0207,-0.0339,0.0813,0.9959,-0.1663,0.2371,0.1655,-0.2362,0.3036,0.4132,0.0700,0.3036,0.4132,0.0700,0.3000,0.0600,0.0002,0,-0.3000,-100.0000,-0.0010,-0.3000,-100.0000,-0.0010,9.2572,32.3996,0.0200,0.0000
33.0451,11.6530,3.3959,0.0829,0.0821,0.0000,0.0000,0.0000,0.0000,-0.2010,-0.0354,-0.0006,996,1502,1500,1500,2008,1000,1505,1505,1505,1006,2008,1000,1014,-3.7920,0.0129,0.0445,-0.0383,0.0817,0.9912,-0.1661,0.2369,0.1650,-0.2358,0.3036,0.4132,0.0700,0.3036,0.4132,0.0700,0.3000,0.0600,0.0002,0,-0.3000,-100.0000,-0.0010,-0.3000,-100.0000,-0.0010,9.2918,32.4418,0.0200,0.0000
32.9648,11.6411,3.3878,0.0000,0.0821,0.0000,0.0000,0.0000,0.0000,-0.2007,-0.0353,-0.0003,998,1504,1501,1501,2008,1000,1505,1505,1505,1006,2008,1000,1014,-3.8550,-0.0123,-0.0360,-0.0335,0.0787,0.9934,-0.1656,0.2363,0.1651,-0.2357,0.3036,0.4132,0.0700,0.3036,0.4132,0.0700,0.3000,0.0600,0.0002,0,-0.3000,-100.0000,-0.0010,-0.3000,-100.0000,-0.0010,9.3264,32.4840,0.0200,0.0000
32.8843,11.6292,3.3794,0.0000,-0.0000,0.0000,0.0000,0.0000,0.0000,-0.2004,-0.0353,-0.0002,996,1502,1500,1500,2008,1000,1505,1505,1505,1006,2008,1000,1014,-3.8644,0.0284,-0.0590,-0.0315,0.0767,0.9920,-0.1653,0.2360,0.1649,-0.2356,0.3036,0.4132,0.0700,0.3036,0.4132,0.0700,0.3000,0.0600,0.0002,0,-0.3000,-100.0000,-0.0010,-0.3000,-100.0000,-0.0010,9.3611,32.5262,0.0200,0.0000
32.8028,11.6172,3.3712,0.0000,-0.0000,0.0000,0.0000,0.0000,0.0000,-0.2001,-0.0352,-0.0005,996,1502,1500,1500,2008,1000,1505,1505,1505,1006,2008,1000,1014,-4.0131,-0.0880,0.0213,-0.0308,0.0786,0.9898,-0.1653,0.2358,0.1644,-0.2348,0.3036,0.4132,0.0700,0.3036,0.4132,0.0700,0.3000,0.0600,0.0002,0,-0.3000,-100.0000,-0.0010,-0.3000,-100.0000,-0.0010,9.3957,32.5684,0.0200,0.0000
32.7206,11.6051,3.3632,-0.0829,0.0821,0.0000,0.0000,0.0000,0.0000,-0.1998,-0.0352,-0.0003,996,1502,1500,1500,2008,1000,1505,1505,1505,1006,2008,1000,1014,-4.0167,0.0203,-0.0503,-0.0324,0.0772,0.9919,-0.1649,0.2354,0.1643,-0.2348,0.3036,0.4132,0.0700,0.3036,0.4132,0.0700,0.3000,0.0600,0.0002,0,-0.3000,-100.0000,-0.0010,-0.3000,-100.0000,-0.0010,9.4304,32.6106,0.0200,0.0000
32.6376,11.5927,3.3548,-0.0829,0.0821,0.0000,0.0000,0.0000,0.0000,-0.1995,-0.0351,-0.0004,996,1502,1500,1500,2008,1000,1505,1505,1505,1006,2008,1000,1014,-4.1135,-0.0740,-0.0095,-0.0338,0.0755,0.9946,-0.1648,0.2351,0.1640,-0.2342,0.3036,0.4132,0.0700,0.3036,0.4132,0.0700,0.3000,0.0600,0.0002,0,-0.3000,-100.0000,-0.0010,-0.3000,-100.0000,-0.0010,9.4650,32.6528,0.0200,0.0000
32.5534,11.5806,3.3468,0.0829,0.0821,0.0000,0.0000,0.0000,0.0000,-0.1991,-0.0351,-0.0006,996,1502,1500,1500,2008,1000,1505,1505,1505,1006,2008,1000,1014,-4.2818,-0.0501,0.0341,-0.0357,0.0746,0.9916,-0.1646,0.2348,0.1635,-0.2337,0.3036,0.4132,0.0700,0.3036,0.4132,0.0700,0.3000,0.0600,0.0002,0,-0.3000,-100.0000,-0.0010,-0.3000,-100.0000,-0.0010,9.4997,32.6950,0.0200,0.0000
32.4682,11.5686,3.3392,-0.0829,0.0821,0.0000,0.0000,0.0000,0.0000,-0.1988,-0.0351,-0.0007,998,1504,1501,1501,2008,1000,1505,1505,1505,1006,2008,1000,1014,-4.3295,-0.0178,0.0998,-0.0364,0.0749,0.9934,-0.1644,0.2346,0.1630,-0.2333,0.3036,0.4132,0.0700,0.3036,0.4132,0.0700,0.3000,0.0600,0.0002,0,-0.3000,-100.0000,-0.0010,-0.3000,-100.0000,-0.0010,9.5344,32.7372,0.0200,0.0000
32.3815,11.5562,3.3312,0.0000,0.0821,0.0000,0.0000,0.0000,0.0000,-0.1984,-0.0351,-0.0004,996,1502,1500,1500,2008,1000,1505,1505,1505,1006,2008,1000,1014,-4.5348,-0.0410,0.0085,-0.0337,0.0722,0.9927,-0.1638,0.2339,0.1630,-0.2331,0.3036,0.4132,0.0700,0.3036,0.4132,0.0700,0.3000,0.0600,0.0002,0,-0.3000,-100.0000,-0.0010,-0.3000,-100.0000,-0.0010,9.5691,32.7794,0.0200,0.0000
32.2929,11.5438,3.3235,0.0829,-0.0000,0.0000,0.0000,0.0000,0.0000,-0.1981,-0.0350,-0.0006,996,1502,1500,1500,2008,1000,1505,1505,1505,1006,2008,1000,1014,-4.7015,0.0009,0.0663,-0.0347,0.0720,0.9911,-0.1636,0.2337,0.1624,-0.2325,0.3036,0.4132,0.0700,0.3036,0.4132,0.0700,0.3000,0.0600,0.0002,0,-0.3000,-100.0000,-0.0010,-0.3000,-100.0000,-0.0010,9.6038,32.8215,0.0200,0.0000
32.2032,11.5312,3.3160,0.0000,0.0821,0.0000,0.0000,0.0000,0.0000,-0.1978,-0.0350,-0.0007,996,1502,1500,1500,2008,1000,1505,1505,1505,1006,2008,1000,1014,-4.6953,-0.0724,0.0823,-0.0343,0.0730,0.9895,-0.1635,0.2334,0.1621,-0.2321,0.3036,0.4132,0.0700,0.3036,0.4132,0.0700,0.3000,0.0600,0.0002,0,-0.3000,-100.0000,-0.0010,-0.3000,-100.0000,-0.0010,9.6385,32.8637,0.0200,0.0000
32.1127,11.5182,3.3083,0.0000,0.1642,0.0000,0.0000,0.0000,0.0000,-0.1974,-0.0349,-0.0005,996,1502,1500,1500,2008,1000,1505,1505,1505,1006,2008,1000,1014,-4.8356,-0.0921,0.0358,-0.0333,0.0706,0.9910,-0.1631,0.2329,0.1620,-0.2318,0.3036,0.4132,0.0700,0.3036,0.4132,0.0700,0.3000,0.0600,0.0002,0,-0.3000,-100.0000,-0.0010,-0.3000,-100.0000,-0.0010,9.6732,32.9058,0.0200,0.0000
32.0208,11.5053,3.3003,0.0000,0.0821,0.0000,0.0000,0.0000,0.0000,-0.1971,-0.0349,-0.0007,996,1502,1500,1500,2008,1000,1505,1505,1505,1006,2008,1000,1014,-4.9483,-0.0468,0.0900,-0.0327,0.0728,0.9970,-0.1629,0.2327,0.1615,-0.2312,0.3036,0.4132,0.0700,0.3036,0.4132,0.0700,0.3000,0.0600,0.0002,0,-0.3000,-100.0000,-0.0010,-0.3000,-100.0000,-0.0010,9.7079,32.9479,0.0200,0.0000
31.9280,11.4927,3.2928,-0.0829,0.0821,0.0000,0.0000,0.0000,0.0000,-0.1967,-0.0349,-0.0007,998,1504,1501,1501,2008,1000,1505,1505,1505,1006,2008,1000,1014,-5.0468,0.0399,0.0916,-0.0354,0.0721,0.9954,-0.1625,0.2323,0.1611,-0.2309,0.3036,0.4132,0.0700,0.3036,0.4132,0.0700,0.3000,0.0600,0.0002,0,-0.3000,-100.0000,-0.0010,-0.3000,-100.0000,-0.0010,9.7426,32.9901,0.0200,0.0000
31.8329,11.4807,3.2856,0.0000,0.0821,0.0000,0.0000,0.0000,0.0000,-0.1962,-0.0349,-0.0006,996,1502,1500,1500,2008,1000,1505,1505,1505,1006,2008,1000,1014,-5.3194,0.0830,0.0372,-0.0341,0.0690,0.9929,-0.1619,0.2317,0.1608,-0.2306,0.3036,0.4132,0.0700,0.3036,0.4132,0.0700,0.3000,0.0600,0.0002,0,-0.3000,-100.0000,-0.0010,-0.3000,-100.0000,-0.0010,9.7773,33.0322,0.0200,0.0000
31.7358,11.4690,3.2789,0.0000,-0.0000,0.0000,0.0000,0.0000,0.0000,-0.1958,-0.0349,-0.0005,996,1502,1500,1500,2008,1000,1505,1505,1505,1006,2008,1000,1014,-5.5297,0.0572,0.0398,-0.0361,0.0688,0.9933,-0.1614,0.2311,0.1605,-0.2302,0.3036,0.4132,0.0700,0.3036,0.4132,0.0700,0.3000,0.0600,0.0002,0,-0.3000,-100.0000,-0.0010,-0.3000,-100.0000,-0.0010,9.8120,33.0744,0.0200,0.0000
31.6372,11.4568,3.2718,0.0000,0.0821,0.0000,0.0000,0.0000,0.0000,-0.1954,-0.0348,-0.0008,996,1502,1500,1500,2008,1000,1505,1505,1505,1006,2008,1000,1014,-5.5989,0.0164,0.1403,-0.0341,0.0669,0.9939,-0.1615,0.2311,0.1598,-0.2294,0.3036,0.4132,0.0700,0.3036,0.4132,0.0700,0.3000,0.0600,0.0002,0,-0.3000,-100.0000,-0.0010,-0.3000,-100.0000,-0.0010,9.8467,33.1164,0.0200,0.0000
31.5361,11.4442,3.2645,0.0829,0.0821,0.0000,0.0000,0.0000,0.0000,-0.1949,-0.0347,-0.0007,996,1502,1500,1500,2008,1000,1505,1505,1505,1006,2008,1000,1014,-5.8954,-0.0668,0.0775,-0.0359,0.0676,0.9954,-0.1609,0.2303,0.1596,-0.2290,0.3036,0.4132,0.0700,0.3036,0.4132,0.0700,0.3000,0.0600,0.0002,0,-0.3000,-100.0000,-0.0010,-0.3000,-100.0000,-0.0010,9.8815,33.1585,0.0200,0.0000
31.4329,11.4314,3.2562,0.0829,0.0821,0.0000,0.0000,0.0000,0.0000,-0.1945,-0.0347,-0.0005,996,1502,1500,1500,2008,1000,1505,1505,1505,1006,2008,1000,1014,-6.0681,-0.0492,0.0366,-0.0341,0.0654,0.9910,-0.1604,0.2297,0.1593,-0.2286,0.3036,0.4132,0.0700,0.3036,0.4132,0.0700,0.3000,0.0600,0.0002,0,-0.3000,-100.0000,-0.0010,-0.3000,-100.0000,-0.0010,9.9162,33.2005,0.0200,0.0000
31.3275,11.4188,3.2488,0.0000,0.0821,0.0000,0.0000,0.0000,0.0000,-0.1940,-0.0347,-0.0006,998,1504,1501,1501,2008,1000,1505,1505,1505,1006,2008,1000,1014,-6.2454,0.0063,0.0666,-0.0342,0.0642,0.9925,-0.1599,0.2293,0.1588,-0.2281,0.3036,0.4132,0.0700,0.3036,0.4132,0.0700,0.3000,0.0600,0.0002,0,-0.3000,-100.0000,-0.0010,-0.3000,-100.0000,-0.0010,9.9509,33.2425,0.0200,0.0000
31.2200,11.4060,3.2417,0.0829,0.0821,0.0000,0.0000,0.0000,0.0000,-0.1936,-0.0346,-0.0008,996,1502,1500,1500,2008,1000,1505,1505,1505,1006,2008,1000,1014,-6.4572,-0.0126,0.1237,-0.0356,0.0654,0.9910,-0.1597,0.2289,0.1582,-0.2274,0.3036,0.4132,0.0700,0.3036,0.4132,0.0700,0.3000,0.0600,0.0002,0,-0.3000,-100.0000,-0.0010,-0.3000,-100.0000,-0.0010,9.9857,33.2846,0.0200,0.0000
31.1108,11.3925,3.2344,0.0000,0.0821,0.0000,0.0000,0.0000,0.0000,-0.1931,-0.0346,-0.0006,996,1502,1500,1500,2008,1000,1505,1505,1505,1006,2008,1000,1014,-6.6179,-0.0250,0.0877,-0.0325,0.0628,0.9916,-0.1592,0.2283,0.1579,-0.2271,0.3036,0.4132,0.0700,0.3036,0.4132,0.0700,0.3000,0.0600,0.0002,0,-0.3000,-100.0000,-0.0010,-0.3000,-100.0000,-0.0010,10.0204,33.3266,0.0200,0.0000
31.0002,11.3800,3.2278,0.0000,-0.0000,0.0000,0.0000,0.0000,0.0000,-0.1927,-0.0346,-0.0006,996,1502,1500,1500,2008,1000,1505,1505,1505,1006,2008,1000,1014,-6.7866,0.0741,0.0848,-0.0337,0.0637,0.9922,-0.1587,0.2279,0.1574,-0.2267,0.3036,0.4132,0.0700,0.3036,0.4132,0.0700,0.3000,0.0600,0.0002,0,-0.3000,-100.0000,-0.0010,-0.3000,-100.0000,-0.0010,10.0551,33.3686,0.0200,0.0000
30.8869,11.3675,3.2205,0.0000,0.0821,0.0000,0.0000,0.0000,0.0000,-0.1921,-0.0345,-0.0007,996,1502,1500,1500,2008,1000,1505,1505,1505,1006,2008,1000,1014,-7.0805,-0.0554,0.0934,-0.0357,0.0605,0.9882,-0.1583,0.2273,0.1569,-0.2259,0.3036,0.4132,0.0700,0.3036,0.4132,0.0700,0.3000,0.0600,0.0002,0,-0.3000,-100.0000,-0.0010,-0.3000,-100.0000,-0.0010,10.0899,33.4106,0.0200,0.0000
30.7714,11.3553,3.2126,-0.0829,-0.0000,0.0000,0.0000,0.0000,0.0000,-0.1917,-0.0345,-0.0003,996,1502,1500,1500,2008,1000,1505,1505,1505,1006,2008,1000,1014,-7.1984,0.0181,-0.0422,-0.0351,0.0560,0.9906,-0.1575,0.2264,0.1569,-0.2259,0.3036,0.4132,0.0700,0.3036,0.4132,0.0700,0.3000,0.0600,0.0002,0,-0.3000,-100.0000,-0.0010,-0.3000,-100.0000,-0.0010,10.1247,33.4527,0.0200,0.0000
30.6541,11.3435,3.2048,0.0000,0.0821,0.0000,0.0000,0.0000,0.0000,-0.1912,-0.0344,-0.0006,998,1504,1501,1501,2008,1000,1505,1505,1505,1006,2008,1000,1014,-7.3471,-0.0665,0.0433,-0.0367,0.0544,0.9956,-0.1575,0.2262,0.1562,-0.2250,0.3036,0.4132,0.0700,0.3036,0.4132,0.0700,0.3000,0.0600,0.0002,0,-0.3000,-100.0000,-0.0010,-0.3000,-100.0000,-0.0010,10.1594,33.4946,0.0200,0.0000
30.5367,11.3305,3.1980,0.0000,0.0821,0.0000,0.0000,0.0000,0.0000,-0.1909,-0.0344,-0.0008,996,1502,1500,1500,2008,1000,1505,1505,1505,1006,2008,1000,1014,-7.3182,0.0127,0.1213,-0.0348,0.0509,0.9906,-0.1573,0.2261,0.1557,-0.2245,0.3036,0.4132,0.0700,0.3036,0.4132,0.0700,0.3000,0.0600,0.0002,0,-0.3000,-100.0000,-0.0010,-0.3000,-100.0000,-0.0010,10.1942,33.5366,0.0200,0.0000
30.4198,11.3174,3.1909,0.0829,-0.0000,0.0000,0.0000,0.0000,0.0000,-0.1906,-0.0343,-0.0009,996,1502,1500,1500,2008,1000,1505,1505,1505,1006,2008,1000,1014,-7.2169,-0.0882,0.1598,-0.0348,0.0513,0.9978,-0.1572,0.2258,0.1554,-0.2240,0.3036,0.4132,0.0700,0.3036,0.4132,0.0700,0.3000,0.0600,0.0002,0,-0.3000,-100.0000,-0.0010,-0.3000,-100.0000,-0.0010,10.2290,33.5785,0.0200,0.0000
30.3045,11.3041,3.1836,0.0000,0.0821,0.0000,0.0000,0.0000,0.0000,-0.1903,-0.0343,-0.0006,996,1502,1500,1500,2008,1000,1505,1505,1505,1006,2008,1000,1014,-7.0813,-0.0398,0.0564,-0.0351,0.0530,0.9925,-0.1566,0.2252,0.1555,-0.2241,0.3036,0.4132,0.0700,0.3036,0.4132,0.0700,0.3000,0.0600,0.0002,0,-0.3000,-100.0000,-0.0010,-0.3000,-100.0000,-0.0010,10.2637,33.6205,0.0200,0.0000
30.1901,11.2910,3.1764,0.0000,-0.0000,0.0000,0.0000,0.0000,0.0000,-0.1901,-0.0342,-0.0007,996,1502,1500,1500,2008,1000,1505,1505,1505,1006,2008,1000,1014,-6.9295,-0.0439,0.0960,-0.0345,0.0500,0.9904,-0.1566,0.2251,0.1551,-0.2236,0.3036,0.4132,0.0700,0.3036,0.4132,0.0700,0.3000,0.0600,0.0002,0,-0.3000,-100.0000,-0.0010,-0.3000,-100.0000,-0.0010,10.2985,33.6624,0.0200,0.0000
30.0775,11.2777,3.1687,0.0000,0.0821,0.0000,0.0000,0.0000,0.0000,-0.1899,-0.0342,-0.0005,996,1502,1500,1500,2008,1000,1505,1505,1505,1006,2008,1000,1014,-6.8049,-0.0656,0.0285,-0.0313,0.0444,0.9938,-0.1562,0.2245,0.1552,-0.2235,0.3036,0.4132,0.0700,0.3036,0.4132,0.0700,0.3000,0.0600,0.0002,0,-0.3000,-100.0000,-0.0010,-0.3000,-100.0000,-0.0010,10.3333,33.7044,0.0200,0.0000
29.9658,11.2642,3.1605,0.0000,-0.0000,0.0000,0.0000,0.0000,0.0000,-0.1896,-0.0341,-0.0005,998,1504,1501,1501,2008,1000,1505,1505,1505,1006,2008,1000,1014,-6.6942,-0.1943,0.0250,-0.0376,0.0423,0.9936,-0.1560,0.2241,0.1551,-0.2232,0.3036,0.4132,0.0700,0.3036,0.4132,0.0700,0.3000,0.0600,0.0002,0,-0.3000,-100.0000,-0.0010,-0.3000,-100.0000,-0.0010,10.3681,33.7462,0.0200,0.0000
29.8557,11.2496,3.1516,0.0000,0.1642,0.0000,0.0000,0.0000,0.0000,-0.1895,-0.0339,-0.0006,996,1502,1500,1500,2008,1000,1505,1505,1505,1006,2008,1000,1014,-6.3469,-0.3114,0.0819,-0.0332,0.0336,0.9932,-0.1562,0.2240,0.1550,-0.2228,0.3036,0.4132,0.0700,0.3036,0.4132,0.0700,0.3000,0.0600,0.0002,0,-0.3000,-100.0000,-0.0010,-0.3000,-100.0000,-0.0010,10.4029,33.7881,0.0200,0.0000
29.7503,11.2350,3.1423,0.0829,-0.0000,0.0000,0.0000,0.0000,0.0000,-0.1895,-0.0339,-0.0005,996,1502,1500,1500,2008,1000,1505,1505,1505,1006,2008,1000,1014,-5.8484,-0.2983,0.0141,-0.0361,0.0258,0.9943,-0.1561,0.2239,0.1552,-0.2230,0.3036,0.4132,0.0700,0.3036,0.4132,0.0700,0.3000,0.0600,0.0002,0,-0.3000,-100.0000,-0.0010,-0.3000,-100.0000,-0.0010,10.4377,33.8300,0.0200,0.0000
29.6533,11.2198,3.1326,0.0000,-0.0000,0.0000,0.0000,0.0000,0.0000,-0.1900,-0.0339,-0.0005,996,1502,1500,1500,2008,1000,1505,1505,1505,1006,2008,1000,1014,-4.7246,-0.2605,0.0339,-0.0319,0.0228,0.9919,-0.1566,0.2244,0.1557,-0.2234,0.3036,0.4132,0.0700,0.3036,0.4132,0.0700,0.3000,0.0600,0.0002,0,-0.3000,-100.0000,-0.0010,-0.3000,-100.0000,-0.0010,10.4725,33.8718,0.0200,0.0000
29.5696,11.2064,3.1229,0.0000,-0.0000,0.0000,0.0000,0.0000,0.0000,-0.1908,-0.0339,-0.0001,996,1502,1500,1500,2008,1000,1505,1505,1505,1006,2008,1000,1014,-3.2574,-0.1941,-0.1103,-0.0338,0.0287,0.9922,-0.1570,0.2247,0.1568,-0.2246,0.3036,0.4132,0.0700,0.3036,0.4132,0.0700,0.3000,0.0600,0.0002,0,-0.3000,-100.0000,-0.0010,-0.3000,-100.0000,-0.0010,10.5073,33.9136,0.0200,0.0000
29.5036,11.1955,3.1131,0.0000,-0.0000,0.0000,0.0000,0.0000,0.0000,-0.1918,-0.0341,0.0005,996,1502,1500,1500,2008,1000,1505,1505,1505,1006,2008,1000,1014,-1.5210,0.1860,-0.3040,-0.0343,0.0319,0.9910,-0.1572,0.2254,0.1582,-0.2265,0.3036,0.4132,0.0700,0.3036,0.4132,0.0700,0.3000,0.0600,0.0002,0,-0.3000,-100.0000,-0.0010,-0.3000,-100.0000,-0.0010,10.5421,33.9554,0.0200,0.0000
29.4569,11.1869,3.1037,0.0000,0.1642,0.0000,0.0000,0.0000,0.0000,-0.1931,-0.0341,0.0005,998,1504,1501,1501,2008,1000,1505,1505,1505,1006,2008,1000,1014,0.4797,0.1538,-0.3078,-0.0327,0.0302,0.9948,-0.1585,0.2266,0.1595,-0.2277,0.3036,0.4132,0.0700,0.3036,0.4132,0.0700,0.3000,0.0600,0.0002,0,-0.3000,-100.0000,-0.0010,-0.3000,-100.0000,-0.0010,10.5770,33.9972,0.0200,0.0000
29.4320,11.1782,3.0935,0.0000,0.0821,0.0000,0.0000,0.0000,0.0000,-0.1945,-0.0341,0.0003,996,1502,1500,1500,2008,1000,1505,1505,1505,1006,2008,1000,1014,2.6513,0.2067,-0.2633,-0.0359,0.0193,0.9910,-0.1601,0.2283,0.1607,-0.2289,0.3036,0.4132,0.0700,0.3036,0.4132,0.0700,0.3000,0.0600,0.0002,0,-0.3000,-100.0000,-0.0010,-0.3000,-100.0000,-0.0010,10.6118,34.0390,0.0200,0.0000
29.4305,11.1684,3.0840,0.0000,-0.0000,0.0000,0.0000,0.0000,0.0000,-0.1961,-0.0339,0.0002,996,1502,1500,1500,2008,1000,1505,1505,1505,1006,2008,1000,1014,4.9263,-0.0604,-0.1951,-0.0379,0.0127,0.9940,-0.1620,0.2298,0.1624,-0.2302,0.3036,0.4132,0.0700,0.3036,0.4132,0.0700,0.3000,0.0600,0.0002,0,-0.3000,-100.0000,-0.0010,-0.3000,-100.0000,-0.0010,10.6466,34.0809,0.0200,0.0000
29.4537,11.1555,3.0718,0.0000,0.0821,0.0000,0.0000,0.0000,0.0000,-0.1980,-0.0335,0.0007,996,1502,1500,1500,2008,1000,1505,1505,1505,1006,2008,1000,1014,7.4864,-0.5571,-0.3508,-0.0378,0.0067,0.9955,-0.1638,0.2308,0.1652,-0.2321,0.3036,0.4132,0.0700,0.3036,0.4132,0.0700,0.3000,0.0600,0.0002,0,-0.3000,-100.0000,-0.0010,-0.3000,-100.0000,-0.0010,10.6815,34.1227,0.0200,0.0000
29.5040,11.1407,3.0550,0.0829,0.0821,0.0000,0.0000,0.0000,0.0000,-0.2001,-0.0332,0.0019,996,1502,1500,1500,2008,1000,1505,1505,1505,1006,2008,1000,1014,10.2648,-0.9007,-0.7335,-0.0397,0.0055,0.9956,-0.1650,0.2314,0.1687,-0.2351,0.3036,0.4132,0.0700,0.3036,0.4132,0.0700,0.3000,0.0600,0.0002,0,-0.3000,-100.0000,-0.0010,-0.3000,-100.0000,-0.0010,10.7164,34.1645,0.0200,0.0000
29.5839,11.1243,3.0316,0.0000,0.0821,0.0000,0.0000,0.0000,0.0000,-0.2024,-0.0328,0.0037,996,1502,1500,1500,2008,1000,1505,1505,1505,1006,2008,1000,1014,13.2714,-1.3435,-1.3087,-0.0394,0.0147,0.9928,-0.1659,0.2316,0.1732,-0.2389,0.3036,0.4132,0.0700,0.3036,0.4132,0.0700,0.3000,0.0600,0.0002,0,-0.3000,-100.0000,-0.0010,-0.3000,-100.0000,-0.0010,10.7512,34.2063,0.0200,0.0000
29.6934,11.1090,3.0007,0.0000,0.0821,0.0000,0.0000,0.0000,0.0000,-0.2046,-0.0328,0.0057,998,1504,1501,1501,2008,1000,1505,1505,1505,1006,2008,1000,1014,15.8868,-1.2643,-1.9908,-0.0305,0.0360,1.0001,-0.1661,0.2318,0.1774,-0.2431,0.3036,0.4132,0.0700,0.3036,0.4132,0.0700,0.3000,0.0600,0.0002,0,-0.3000,-100.0000,-0.0010,-0.3000,-100.0000,-0.0010,10.7861,34.2481,0.0200,0.0000
29.8266,11.0992,2.9662,0.0000,0.0821,0.0000,0.0000,0.0000,0.0000,-0.2066,-0.0330,0.0071,996,1502,1500,1500,2008,1000,1505,1505,1505,1006,2008,1000,1014,18.1884,-0.9273,-2.5001,-0.0289,0.0417,0.9886,-0.1664,0.2325,0.1807,-0.2468,0.3036,0.4132,0.0700,0.3036,0.4132,0.0700,0.3000,0.0600,0.0002,0,-0.3000,-100.0000,-0.0010,-0.3000,-100.0000,-0.0010,10.8210,34.2899,0.0200,0.0000
29.9814,11.0948,2.9314,0.0000,-0.0000,0.0000,0.0000,0.0000,0.0000,-0.2082,-0.0336,0.0074,996,1502,1500,1500,2008,1000,1505,1505,1505,1006,2008,1000,1014,19.7770,-0.1524,-2.5812,-0.0255,0.0503,0.9880,-0.1672,0.2344,0.1820,-0.2491,0.3036,0.4132,0.0700,0.3036,0.4132,0.0700,0.3000,0.0600,0.0002,0,-0.3000,-100.0000,-0.0010,-0.3000,-100.0000,-0.0010,10.8558,34.3316,0.0200,0.0000
30.1470,11.0971,2.9035,0.0000,-0.0000,0.0000,0.0000,0.0000,0.0000,-0.2089,-0.0342,0.0059,996,1502,1500,1500,2008,1000,1505,1505,1505,1006,2008,1000,1014,20.1726,0.6714,-2.1199,-0.0278,0.0503,0.9878,-0.1688,0.2372,0.1807,-0.2491,0.3036,0.4132,0.0700,0.3036,0.4132,0.0700,0.3000,0.0600,0.0002,0,-0.3000,-100.0000,-0.0010,-0.3000,-100.0000,-0.0010,10.8907,34.3734,0.0200,0.0000
30.3171,11.1034,2.8853,0.0000,0.0821,0.0000,0.0000,0.0000,0.0000,-0.2095,-0.0348,0.0037,996,1502,1500,1500,2008,1000,1505,1505,1505,1006,2008,1000,1014,20.1823,1.5177,-1.3823,-0.0255,0.0544,0.9884,-0.1710,0.2405,0.1784,-0.2480,0.3036,0.4132,0.0700,0.3036,0.4132,0.0700,0.3000,0.0600,0.0002,0,-0.3000,-100.0000,-0.0010,-0.3000,-100.0000,-0.0010,10.9256,34.4151,0.0200,0.0000
30.4857,11.1125,2.8784,-0.0829,0.1642,0.0000,0.0000,0.0000,0.0000,-0.2096,-0.0352,0.0013,996,1502,1500,1500,2008,1000,1505,1505,1505,1006,2008,1000,1014,19.6351,2.0179,-0.5836,-0.0314,0.0656,0.9854,-0.1731,0.2434,0.1758,-0.2461,0.3036,0.4132,0.0700,0.3036,0.4132,0.0700,0.3000,0.0600,0.0002,0,-0.3000,-100.0000,-0.0010,-0.3000,-100.0000,-0.0010,10.9605,34.4569,0.0200,0.0000
30.6498,11.1197,2.8802,-0.0829,0.0821,0.0000,0.0000,0.0000,0.0000,-0.2097,-0.0352,-0.0008,998,1504,1501,1501,2008,1000,1505,1505,1505,1006,2008,1000,1014,19.0869,2.1136,0.1491,-0.0332,0.0782,0.9915,-0.1753,0.2458,0.1737,-0.2441,0.3036,0.4132,0.0700,0.3036,0.4132,0.0700,0.3000,0.0600,0.0002,0,-0.3000,-100.0000,-0.0010,-0.3000,-100.0000,-0.0010,10.9954,34.4986,0.0200,0.0000
30.8082,11.1226,2.8879,0.0000,0.1642,0.0000,0.0000,0.0000,0.0000,-0.2096,-0.0351,-0.0026,996,1502,1500,1500,2008,1000,1505,1505,1505,1006,2008,1000,1014,18.2569,1.8789,0.7515,-0.0358,0.0943,0.9950,-0.1772,0.2473,0.1719,-0.2421,0.3036,0.4132,0.0700,0.3036,0.4132,0.0700,0.3000,0.0600,0.0002,0,-0.3000,-100.0000,-0.0010,-0.3000,-100.0000,-0.0010,11.0303,34.5404,0.0200,0.0000
30.9582,11.1199,2.8971,0.0829,0.1642,0.0000,0.0000,0.0000,0.0000,-0.2095,-0.0347,-0.0037,996,1502,1500,1500,2008,1000,1505,1505,1505,1006,2008,1000,1014,17.4690,1.4115,1.0814,-0.0428,0.1032,0.9947,-0.1784,0.2479,0.1711,-0.2406,0.3036,0.4132,0.0700,0.3036,0.4132,0.0700,0.3000,0.0600,0.0002,0,-0.3000,-100.0000,-0.0010,-0.3000,-100.0000,-0.0010,11.0652,34.5821,0.0200,0.0000
31.0999,11.1100,2.9064,0.0000,0.0821,0.0000,0.0000,0.0000,0.0000,-0.2093,-0.0343,-0.0044,996,1502,1500,1500,2008,1000,1505,1505,1505,1006,2008,1000,1014,16.5896,0.7592,1.3413,-0.0392,0.1045,0.9881,-0.1795,0.2480,0.1706,-0.2392,0.3036,0.4132,0.0700,0.3036,0.4132,0.0700,0.3000,0.0600,0.0002,0,-0.3000,-100.0000,-0.0010,-0.3000,-100.0000,-0.0010,11.1002,34.6238,0.0200,0.0000
31.2310,11.0941,2.9134,0.0829,0.0821,0.0000,0.0000,0.0000,0.0000,-0.2090,-0.0337,-0.0046,996,1502,1500,1500,2008,1000,1505,1505,1505,1006,2008,1000,1014,15.5898,0.0923,1.4111,-0.0405,0.0979,0.9881,-0.1799,0.2474,0.1707,-0.2382,0.3036,0.4132,0.0700,0.3036,0.4132,0.0700,0.3000,0.0600,0.0002,0,-0.3000,-100.0000,-0.0010,-0.3000,-100.0000,-0.0010,11.1351,34.6654,0.0200,0.0000
31.3491,11.0726,2.9167,0.0000,0.1642,0.0000,0.0000,0.0000,0.0000,-0.2084,-0.0333,-0.0043,996,1502,1500,1500,2008,1000,1505,1505,1505,1006,2008,1000,1014,14.2274,-0.4416,1.3042,-0.0413,0.0932,0.9877,-0.1794,0.2460,0.1709,-0.2375,0.3036,0.4132,0.0700,0.3036,0.4132,0.0700,0.3000,0.0600,0.0002,0,-0.3000,-100.0000,-0.0010,-0.3000,-100.0000,-0.0010,11.1700,34.7071,0.0200,0.0000
31.4506,11.0492,2.9166,0.0000,0.0821,0.0000,0.0000,0.0000,0.0000,-0.2077,-0.0331,-0.0033,998,1504,1501,1501,2008,1000,1505,1505,1505,1006,2008,1000,1014,12.6687,-0.6334,1.0166,-0.0368,0.0920,0.9901,-0.1779,0.2441,0.1712,-0.2374,0.3036,0.4132,0.0700,0.3036,0.4132,0.0700,0.3000,0.0600,0.0002,0,-0.3000,-100.0000,-0.0010,-0.3000,-100.0000,-0.0010,11.2049,34.7487,0.0200,0.0000
31.5352,11.0261,2.9121,-0.0829,0.1642,0.0000,0.0000,0.0000,0.0000,-0.2069,-0.0329,-0.0020,996,1502,1500,1500,2008,1000,1505,1505,1505,1006,2008,1000,1014,11.1901,-0.8009,0.5753,-0.0350,0.0964,0.9872,-0.1760,0.2418,0.1719,-0.2378,0.3036,0.4132,0.0700,0.3036,0.4132,0.0700,0.3000,0.0600,0.0002,0,-0.3000,-100.0000,-0.0010,-0.3000,-100.0000,-0.0010,11.2398,34.7904,0.0200,0.0000
31.6041,11.0046,2.9026,0.0829,0.1642,0.0000,0.0000,0.0000,0.0000,-0.2060,-0.0329,-0.0004,996,1502,1500,1500,2008,1000,1505,1505,1505,1006,2008,1000,1014,9.7018,-0.7882,0.0373,-0.0349,0.1131,0.9949,-0.1736,0.2393,0.1728,-0.2385,0.3036,0.4132,0.0700,0.3036,0.4132,0.0700,0.3000,0.0600,0.0002,0,-0.3000,-100.0000,-0.0010,-0.3000,-100.0000,-0.0010,11.2748,34.8320,0.0200,0.0000
31.6568,10.9871,2.8886,0.0000,0.0821,0.0000,0.0000,0.0000,0.0000,-0.2052,-0.0329,0.0013,996,1502,1500,1500,2008,1000,1505,1505,1505,1006,2008,1000,1014,8.3169,-0.7174,-0.5340,-0.0368,0.1202,0.9830,-0.1711,0.2368,0.1737,-0.2394,0.3036,0.4132,0.0700,0.3036,0.4132,0.0700,0.3000,0.0600,0.0002,0,-0.3000,-100.0000,-0.0010,-0.3000,-100.0000,-0.0010,11.3097,34.8736,0.0200,0.0000
31.6966,10.9722,2.8706,0.0829,-0.0000,0.0000,0.0000,0.0000,0.0000,-0.2047,-0.0329,0.0026,996,1502,1500,1500,2008,1000,1505,1505,1505,1006,2008,1000,1014,7.3356,-0.5582,-0.9525,-0.0336,0.1225,0.9939,-0.1692,0.2350,0.1743,-0.2402,0.3036,0.4132,0.0700,0.3036,0.4132,0.0700,0.3000,0.0600,0.0002,0,-0.3000,-100.0000,-0.0010,-0.3000,-100.0000,-0.0010,11.3446,34.9152,0.0200,0.0000
31.7261,10.9608,2.8507,-0.0829,0.0821,0.0000,0.0000,0.0000,0.0000,-0.2041,-0.0330,0.0029,996,1502,1500,1500,2008,1000,1505,1505,1505,1006,2008,1000,1014,6.3908,-0.4038,-1.0667,-0.0354,0.1138,0.9815,-0.1682,0.2342,0.1740,-0.2400,0.3036,0.4132,0.0700,0.3036,0.4132,0.0700,0.3000,0.0600,0.0002,0,-0.3000,-100.0000,-0.0010,-0.3000,-100.0000,-0.0010,11.3796,34.9568,0.0200,0.0000
31.7449,10.9511,2.8313,0.0000,0.0821,0.0000,0.0000,0.0000,0.0000,-0.2034,-0.0331,0.0028,998,1504,1501,1501,2008,1000,1505,1505,1505,1006,2008,1000,1014,5.3479,-0.1911,-1.0646,-0.0327,0.1015,0.9935,-0.1675,0.2337,0.1731,-0.2393,0.3036,0.4132,0.0700,0.3036,0.4132,0.0700,0.3000,0.0600,0.0002,0,-0.3000,-100.0000,-0.0010,-0.3000,-100.0000,-0.0010,11.4145,34.9984,0.0200,0.0000
31.7542,10.9417,2.8139,0.0000,0.0821,0.0000,0.0000,0.0000,0.0000,-0.2029,-0.0331,0.0019,996,1502,1500,1500,2008,1000,1505,1505,1505,1006,2008,1000,1014,4.5018,-0.2385,-0.7925,-0.0303,0.0957,0.9859,-0.1679,0.2340,0.1717,-0.2378,0.3036,0.4132,0.0700,0.3036,0.4132,0.0700,0.3000,0.0600,0.0002,0,-0.3000,-100.0000,-0.0010,-0.3000,-100.0000,-0.0010,11.4495,35.0399,0.0200,0.0000
31.7543,10.9312,2.8003,0.0829,0.0821,0.0000,0.0000,0.0000,0.0000,-0.2022,-0.0332,0.0008,996,1502,1500,1500,2008,1000,1505,1505,1505,1006,2008,1000,1014,3.5010,-0.0168,-0.3808,-0.0347,0.1006,0.9913,-0.1682,0.2346,0.1697,-0.2361,0.3036,0.4132,0.0700,0.3036,0.4132,0.0700,0.3000,0.0600,0.0002,0,-0.3000,-100.0000,-0.0010,-0.3000,-100.0000,-0.0010,11.4845,35.0815,0.0200,0.0000
31.7473,10.9203,2.7909,0.0000,0.0821,0.0000,0.0000,0.0000,0.0000,-0.2018,-0.0332,-0.0002,996,1502,1500,1500,2008,1000,1505,1505,1505,1006,2008,1000,1014,3.0223,0.1072,-0.0754,-0.0351,0.1073,0.9909,-0.1688,0.2352,0.1684,-0.2348,0.3036,0.4132,0.0700,0.3036,0.4132,0.0700,0.3000,0.0600,0.0002,0,-0.3000,-100.0000,-0.0010,-0.3000,-100.0000,-0.0010,11.5194,35.1231,0.0200,0.0000
31.7359,10.9082,2.7847,0.0000,0.0821,0.0000,0.0000,0.0000,0.0000,-0.2013,-0.0333,-0.0007,996,1502,1500,1500,2008,1000,1505,1505,1505,1006,2008,1000,1014,2.4052,0.2162,0.1187,-0.0339,0.1188,0.9977,-0.1688,0.2353,0.1673,-0.2339,0.3036,0.4132,0.0700,0.3036,0.4132,0.0700,0.3000,0.0600,0.0002,0,-0.3000,-100.0000,-0.0010,-0.3000,-100.0000,-0.0010,11.5544,35.1646,0.0200,0.0000
31.7193,10.8958,2.7795,0.0829,0.0821,0.0000,0.0000,0.0000,0.0000,-0.2010,-0.0332,-0.0010,996,1502,1500,1500,2008,1000,1505,1505,1505,1006,2008,1000,1014,2.0021,0.1828,0.2040,-0.0320,0.1195,0.9887,-0.1688,0.2352,0.1668,-0.2332,0.3036,0.4132,0.0700,0.3036,0.4132,0.0700,0.3000,0.0600,0.0002,0,-0.3000,-100.0000,-0.0010,-0.3000,-100.0000,-0.0010,11.5894,35.2062,0.0200,0.0000
31.6986,10.8824,2.7760,0.0000,0.0821,0.0000,0.0600,0.3200,0.0000,-0.2006,-0.0330,0.0005,997,1503,1500,1500,2008,1000,1505,1505,1505,1006,2008,1000,1014,1.5029,0.1580,0.3663,-0.0375,0.1146,0.9893,-0.1671,0.2330,0.1681,-0.2341,0.3036,0.4132,0.0700,0.3036,0.4132,0.0700,0.3000,0.0600,0.0002,0,-0.3000,-100.0000,-0.0010,-0.3000,-100.0000,-0.0010,11.6244,35.2478,0.0400,0.0100
31.6716,10.8680,2.7724,0.0000,-0.0000,0.0000,0.0000,0.0000,0.0000,-0.2001,-0.0330,-0.0018,996,1502,1500,1500,2008,1000,1505,1505,1505,1006,2008,1000,1014,0.9855,0.0349,0.4842,-0.0335,0.1039,0.9857,-0.1690,0.2350,0.1653,-0.2313,0.3036,0.4132,0.0700,0.3036,0.4132,0.0700,0.3000,0.0600,0.0002,0,-0.3000,-100.0000,-0.0010,-0.3000,-100.0000,-0.0010,11.6594,35.2894,0.0200,0.0000
31.6393,10.8524,2.7693,0.0000,-0.0000,0.0000,0.0000,0.0000,0.0000,-0.1996,-0.0329,-0.0020,996,1502,1500,1500,2008,1000,1505,1505,1505,1006,2008,1000,1014,0.3254,-0.1100,0.5435,-0.0358,0.1020,0.9857,-0.1687,0.2344,0.1647,-0.2305,0.3036,0.4132,0.0700,0.3036,0.4132,0.0700,0.3000,0.0600,0.0002,0,-0.3000,-100.0000,-0.0010,-0.3000,-100.0000,-0.0010,11.6944,35.3309,0.0200,0.0000
31.6000,10.8363,2.7657,0.0829,-0.0000,0.0000,0.0000,0.0000,0.0000,-0.1991,-0.0328,-0.0020,996,1502,1500,1500,2008,1000,1505,1505,1505,1006,2008,1000,1014,-0.2422,-0.1023,0.5360,-0.0344,0.0982,0.9897,-0.1682,0.2338,0.1643,-0.2299,0.3036,0.4132,0.0700,0.3036,0.4132,0.0700,0.3000,0.0600,0.0002,0,-0.3000,-100.0000,-0.0010,-0.3000,-100.0000,-0.0010,11.7294,35.3724,0.0200,0.0000
31.5544,10.8206,2.7615,0.0000,-0.0000,0.0000,0.0000,0.0000,0.0000,-0.1985,-0.0328,-0.0013,996,1502,1500,1500,2008,1000,1505,1505,1505,1006,2008,1000,1014,-0.8633,-0.1163,0.3356,-0.0362,0.1059,0.9924,-0.1671,0.2326,0.1644,-0.2299,0.3036,0.4132,0.0700,0.3036,0.4132,0.0700,0.3000,0.0600,0.0002,0,-0.3000,-100.0000,-0.0010,-0.3000,-100.0000,-0.0010,11.7645,35.4138,0.0200,0.0000
31.5031,10.8060,2.7548,0.0829,0.1642,0.0000,0.0000,0.0000,0.0000,-0.1980,-0.0327,-0.0005,996,1502,1500,1500,2008,1000,1505,1505,1505,1006,2008,1000,1014,-1.2829,-0.0846,0.0551,-0.0362,0.1125,0.9907,-0.1658,0.2313,0.1648,-0.2303,0.3036,0.4132,0.0700,0.3036,0.4132,0.0700,0.3000,0.0600,0.0002,0,-0.3000,-100.0000,-0.0010,-0.3000,-100.0000,-0.0010,11.7995,35.4553,0.0200,0.0000
31.4472,10.7935,2.7467,0.0000,-0.0000,0.0000,0.0600,0.3200,0.0000,-0.1976,-0.0325,0.0019,997,1503,1500,1500,2008,1000,1505,1505,1505,1006,2008,1000,1014,-1.6989,-0.0772,-0.1178,-0.0346,0.1147,0.9882,-0.1631,0.2282,0.1670,-0.2320,0.3036,0.4132,0.0700,0.3036,0.4132,0.0700,0.3000,0.0600,0.0002,0,-0.3000,-100.0000,-0.0010,-0.3000,-100.0000,-0.0010,11.8345,35.4967,0.0400,0.0100
31.3878,10.7811,2.7374,0.0000,0.0821,0.0000,0.0000,0.0000,0.0000,-0.1973,-0.0327,0.0004,996,1502,1500,1500,2008,1000,1505,1505,1505,1006,2008,1000,1014,-1.8999,-0.0574,-0.2335,-0.0351,0.1101,0.9907,-0.1642,0.2296,0.1650,-0.2303,0.3036,0.4132,0.0700,0.3036,0.4132,0.0700,0.3000,0.0600,0.0002,0,-0.3000,-100.0000,-0.0010,-0.3000,-100.0000,-0.0010,11.8695,35.5382,0.0200,0.0000
31.3254,10.7693,2.7289,0.0000,-0.0000,0.0000,0.0000,0.0000,0.0000,-0.1969,-0.0327,-0.0003,996,1502,1500,1500,2008,1000,1505,1505,1505,1006,2008,1000,1014,-2.1938,0.0682,-0.0280,-0.0345,0.1030,0.9854,-0.1644,0.2299,0.1638,-0.2293,0.3036,0.4132,0.0700,0.3036,0.4132,0.0700,0.3000,0.0600,0.0002,0,-0.3000,-100.0000,-0.0010,-0.3000,-100.0000,-0.0010,11.9046,35.5796,0.0200,0.0000
31.2600,10.7573,2.7224,0.0829,-0.0000,0.0000,0.0000,0.0000,0.0000,-0.1964,-0.0327,-0.0007,996,1502,1500,1500,2008,1000,1505,1505,1505,1006,2008,1000,1014,-2.5202,0.0517,0.1049,-0.0373,0.0987,0.9843,-0.1644,0.2298,0.1631,-0.2285,0.3036,0.4132,0.0700,0.3036,0.4132,0.0700,0.3000,0.0600,0.0002,0,-0.3000,-100.0000,-0.0010,-0.3000,-100.0000,-0.0010,11.9396,35.6210,0.0200,0.0000
31.1922,10.7431,2.7174,0.0829,0.0821,0.0000,0.0000,0.0000,0.0000,-0.1961,-0.0326,-0.0019,996,1502,1500,1500,2008,1000,1505,1505,1505,1006,2008,1000,1014,-2.7455,-0.0625,0.4911,-0.0333,0.0975,0.9927,-0.1654,0.2306,0.1616,-0.2267,0.3036,0.4132,0.0700,0.3036,0.4132,0.0700,0.3000,0.0600,0.0002,0,-0.3000,-100.0000,-0.0010,-0.3000,-100.0000,-0.0010,11.9747,35.6624,0.0200,0.0000
31.1227,10.7277,2.7147,0.0000,0.0821,0.0000,0.0000,0.0000,0.0000,-0.1958,-0.0326,-0.0019,996,1502,1500,1500,2008,1000,1505,1505,1505,1006,2008,1000,1014,-2.8949,0.0017,0.5282,-0.0328,0.1006,0.9875,-0.1651,0.2303,0.1612,-0.2264,0.3036,0.4132,0.0700,0.3036,0.4132,0.0700,0.3000,0.0600,0.0002,0,-0.3000,-100.0000,-0.0010,-0.3000,-100.0000,-0.0010,12.0097,35.7038,0.0200,0.0000
31.0515,10.7128,2.7120,0.0000,0.0821,0.0000,0.0000,0.0000,0.0000,-0.1954,-0.0326,-0.0019,998,1504,1501,1501,2008,1000,1505,1505,1505,1006,2008,1000,1014,-3.0709,0.1018,0.5191,-0.0342,0.1044,0.9886,-0.1648,0.2300,0.1609,-0.2261,0.3036,0.4132,0.0700,0.3036,0.4132,0.0700,0.3000,0.0600,0.0002,0,-0.3000,-100.0000,-0.0010,-0.3000,-100.0000,-0.0010,12.0448,35.7452,0.0200,0.0000
30.9789,10.6980,2.7099,0.0000,0.0821,0.0000,0.0000,0.0000,0.0000,-0.1951,-0.0325,-0.0020,996,1502,1500,1500,2008,1000,1505,1505,1505,1006,2008,1000,1014,-3.2170,0.0432,0.5465,-0.0327,0.1054,0.9914,-0.1645,0.2296,0.1606,-0.2257,0.3036,0.4132,0.0700,0.3036,0.4132,0.0700,0.3000,0.0600,0.0002,0,-0.3000,-100.0000,-0.0010,-0.3000,-100.0000,-0.0010,12.0799,35.7866,0.0200,0.0000
30.9061,10.6828,2.7068,0.0829,-0.0000,0.0000,0.0000,0.0000,0.0000,-0.1949,-0.0324,-0.0019,996,1502,1500,1500,2008,1000,1505,1505,1505,1006,2008,1000,1014,-3.1720,-0.0079,0.4956,-0.0345,0.1054,0.9913,-0.1643,0.2292,0.1606,-0.2255,0.3036,0.4132,0.0700,0.3036,0.4132,0.0700,0.3000,0.0600,0.0002,0,-0.3000,-100.0000,-0.0010,-0.3000,-100.0000,-0.0010,12.1149,35.8280,0.0200,0.0000
30.8327,10.6684,2.7042,0.0000,0.0821,0.0000,0.0000,0.0000,0.0000,-0.1946,-0.0324,-0.0020,996,1502,1500,1500,2008,1000,1505,1505,1505,1006,2008,1000,1014,-3.2824,0.0543,0.5242,-0.0358,0.0958,0.9950,-0.1642,0.2290,0.1602,-0.2251,0.3036,0.4132,0.0700,0.3036,0.4132,0.0700,0.3000,0.0600,0.0002,0,-0.3000,-100.0000,-0.0010,-0.3000,-100.0000,-0.0010,12.1500,35.8693,0.0200,0.0000
30.7585,10.6541,2.7019,0.0000,0.0821,0.0000,0.0000,0.0000,0.0000,-0.1943,-0.0324,-0.0018,996,1502,1500,1500,2008,1000,1505,1505,1505,1006,2008,1000,1014,-3.4063,0.0660,0.4676,-0.0297,0.0937,0.9874,-0.1637,0.2285,0.1601,-0.2249,0.3036,0.4132,0.0700,0.3036,0.4132,0.0700,0.3000,0.0600,0.0002,0,-0.3000,-100.0000,-0.0010,-0.3000,-100.0000,-0.0010,12.1851,35.9107,0.0200,0.0000
30.6828,10.6394,2.6990,-0.1657,-0.0821,0.0000,0.0000,0.0000,0.0000,-0.1940,-0.0323,-0.0019,996,1502,1500,1500,2008,1000,1505,1505,1505,1006,2008,1000,1014,-3.4864,-0.0176,0.5152,-0.0349,0.0952,0.9863,-0.1637,0.2282,0.1598,-0.2244,0.3036,0.4132,0.0700,0.3036,0.4132,0.0700,0.3000,0.0600,0.0002,0,-0.3000,-100.0000,-0.0010,-0.3000,-100.0000,-0.0010,12.2202,35.9520,0.0200,0.0000
30.6066,10.6246,2.6962,0.0000,0.0821,0.0000,0.0600,0.3200,0.0000,-0.1938,-0.0321,0.0001,997,1503,1500,1500,2008,1000,1505,1505,1505,1006,2008,1000,1014,-3.4854,0.0933,0.4765,-0.0341,0.0950,0.9900,-0.1615,0.2258,0.1618,-0.2260,0.3036,0.4132,0.0700,0.3036,0.4132,0.0700,0.3000,0.0600,0.0002,0,-0.3000,-100.0000,-0.0010,-0.3000,-100.0000,-0.0010,12.2553,35.9934,0.0400,0.0100
30.5313,10.6100,2.6931,0.0000,0.0821,0.0000,0.0000,0.0000,0.0000,-0.1937,-0.0322,-0.0014,996,1502,1500,1500,2008,1000,1505,1505,1505,1006,2008,1000,1014,-3.2831,-0.0066,0.3762,-0.0349,0.0913,0.9935,-0.1629,0.2274,0.1600,-0.2245,0.3036,0.4132,0.0700,0.3036,0.4132,0.0700,0.3000,0.0600,0.0002,0,-0.3000,-100.0000,-0.0010,-0.3000,-100.0000,-0.0010,12.2904,36.0347,0.0200,0.0000
30.4587,10.5960,2.6885,-0.0829,-0.0000,0.0000,0.0000,0.0000,0.0000,-0.1937,-0.0322,-0.0012,996,1502,1500,1500,2008,1000,1505,1505,1505,1006,2008,1000,1014,-2.9928,0.0250,0.2825,-0.0337,0.0936,0.9915,-0.1627,0.2271,0.1603,-0.2246,0.3036,0.4132,0.0700,0.3036,0.4132,0.0700,0.3000,0.0600,0.0002,0,-0.3000,-100.0000,-0.0010,-0.3000,-100.0000,-0.0010,12.3255,36.0760,0.0200,0.0000
30.3888,10.5825,2.6830,0.0000,-0.0000,0.0000,0.0000,0.0000,0.0000,-0.1937,-0.0321,-0.0009,996,1502,1500,1500,2008,1000,1505,1505,1505,1006,2008,1000,1014,-2.6520,-0.0484,0.1679,-0.0354,0.0952,0.9905,-0.1625,0.2267,0.1607,-0.2249,0.3036,0.4132,0.0700,0.3036,0.4132,0.0700,0.3000,0.0600,0.0002,0,-0.3000,-100.0000,-0.0010,-0.3000,-100.0000,-0.0010,12.3606,36.1173,0.0200,0.0000
30.3230,10.5687,2.6764,0.0000,0.0821,0.0000,0.0000,0.0000,0.0000,-0.1938,-0.0320,-0.0007,996,1502,1500,1500,2008,1000,1505,1505,1505,1006,2008,1000,1014,-2.2246,-0.0873,0.1116,-0.0365,0.0963,0.9842,-0.1625,0.2266,0.1611,-0.2251,0.3036,0.4132,0.0700,0.3036,0.4132,0.0700,0.3000,0.0600,0.0002,0,-0.3000,-100.0000,-0.0010,-0.3000,-100.0000,-0.0010,12.3957,36.1586,0.0200,0.0000
30.2604,10.5550,2.6696,-0.0829,-0.0000,0.0000,0.0000,0.0000,0.0000,-0.1938,-0.0320,-0.0008,996,1502,1500,1500,2008,1000,1505,1505,1505,1006,2008,1000,1014,-1.9491,-0.1331,0.1219,-0.0352,0.0917,0.9860,-0.1627,0.2266,0.1610,-0.2249,0.3036,0.4132,0.0700,0.3036,0.4132,0.0700,0.3000,0.0600,0.0002,0,-0.3000,-100.0000,-0.0010,-0.3000,-100.0000,-0.0010,12.4309,36.1999,0.0200,0.0000
30.2009,10.5401,2.6627,0.0000,-0.0000,0.0000,0.0600,0.3200,0.0000,-0.1939,-0.0317,0.0009,997,1503,1500,1500,2008,1000,1505,1505,1505,1006,2008,1000,1014,-1.6171,-0.1632,0.1913,-0.0350,0.0858,0.9896,-0.1612,0.2246,0.1631,-0.2265,0.3036,0.4132,0.0700,0.3036,0.4132,0.0700,0.3000,0.0600,0.0002,0,-0.3000,-100.0000,-0.0010,-0.3000,-100.0000,-0.0010,12.4660,36.2413,0.0400,0.0100
30.1448,10.5245,2.6560,0.0000,-0.0000,0.0000,0.0000,0.0000,0.0000,-0.1939,-0.0318,-0.0008,996,1502,1500,1500,2008,1000,1505,1505,1505,1006,2008,1000,1014,-1.2981,-0.2239,0.1622,-0.0334,0.0828,0.9865,-0.1629,0.2265,0.1613,-0.2249,0.3036,0.4132,0.0700,0.3036,0.4132,0.0700,0.3000,0.0600,0.0002,0,-0.3000,-100.0000,-0.0010,-0.3000,-100.0000,-0.0010,12.5012,36.2826,0.0200,0.0000
30.0928,10.5089,2.6487,0.0000,0.0821,0.0000,0.0000,0.0000,0.0000,-0.1941,-0.0317,-0.0008,996,1502,1500,1500,2008,1000,1505,1505,1505,1006,2008,1000,1014,-0.8108,-0.3368,0.1602,-0.0351,0.0803,0.9890,-0.1632,0.2266,0.1616,-0.2250,0.3036,0.4132,0.0700,0.3036,0.4132,0.0700,0.3000,0.0600,0.0002,0,-0.3000,-100.0000,-0.0010,-0.3000,-100.0000,-0.0010,12.5363,36.3238,0.0200,0.0000
30.0473,10.4933,2.6401,0.0000,0.0821,0.0000,0.0000,0.0000,0.0000,-0.1945,-0.0316,-0.0004,996,1502,1500,1500,2008,1000,1505,1505,1505,1006,2008,1000,1014,-0.0239,-0.3177,0.0185,-0.0339,0.0813,0.9872,-0.1633,0.2266,0.1624,-0.2257,0.3036,0.4132,0.0700,0.3036,0.4132,0.0700,0.3000,0.0600,0.0002,0,-0.3000,-100.0000,-0.0010,-0.3000,-100.0000,-0.0010,12.5714,36.3650,0.0200,0.0000
30.0105,10.4793,2.6303,0.0000,-0.0000,0.0000,0.0000,0.0000,0.0000,-0.1951,-0.0317,0.0005,996,1502,1500,1500,2008,1000,1505,1505,1505,1006,2008,1000,1014,0.9569,-0.1184,-0.2925,-0.0311,0.0839,0.9893,-0.1628,0.2263,0.1639,-0.2273,0.3036,0.4132,0.0700,0.3036,0.4132,0.0700,0.3000,0.0600,0.0002,0,-0.3000,-100.0000,-0.0010,-0.3000,-100.0000,-0.0010,12.6066,36.4063,0.0200,0.0000
29.9848,10.4689,2.6207,0.0000,0.0821,0.0000,0.0000,0.0000,0.0000,-0.1957,-0.0320,0.0007,996,1502,1500,1500,2008,1000,1505,1505,1505,1006,2008,1000,1014,1.9290,0.2659,-0.3518,-0.0306,0.0880,0.9858,-0.1630,0.2270,0.1644,-0.2283,0.3036,0.4132,0.0700,0.3036,0.4132,0.0700,0.3000,0.0600,0.0002,0,-0.3000,-100.0000,-0.0010,-0.3000,-100.0000,-0.0010,12.6418,36.4475,0.0200,0.0000
29.9704,10.4626,2.6111,0.0000,0.0821,0.0000,0.0600,0.3200,0.0000,-0.1965,-0.0320,0.0032,997,1503,1500,1500,2008,1000,1505,1505,1505,1006,2008,1000,1014,3.1094,0.5437,-0.5499,-0.0353,0.0882,0.9924,-0.1613,0.2253,0.1677,-0.2316,0.3036,0.4132,0.0700,0.3036,0.4132,0.0700,0.3000,0.0600,0.0002,0,-0.3000,-100.0000,-0.0010,-0.3000,-100.0000,-0.0010,12.6769,36.4888,0.0400,0.0100
29.9680,10.4593,2.6025,0.0000,-0.0000,0.0000,0.0000,0.0000,0.0000,-0.1972,-0.0324,0.0015,996,1502,1500,1500,2008,1000,1505,1505,1505,1006,2008,1000,1014,4.1680,0.8567,-0.6184,-0.0349,0.0847,0.9888,-0.1633,0.2280,0.1664,-0.2311,0.3036,0.4132,0.0700,0.3036,0.4132,0.0700,0.3000,0.0600,0.0002,0,-0.3000,-100.0000,-0.0010,-0.3000,-100.0000,-0.0010,12.7121,36.5300,0.0200,0.0000
29.9750,10.4582,2.5939,0.0829,0.0821,0.0000,0.0000,0.0000,0.0000,-0.1978,-0.0323,0.0013,996,1502,1500,1500,2008,1000,1505,1505,1505,1006,2008,1000,1014,4.9931,0.7636,-0.5721,-0.0357,0.0825,0.9900,-0.1642,0.2288,0.1668,-0.2314,0.3036,0.4132,0.0700,0.3036,0.4132,0.0700,0.3000,0.0600,0.0002,0,-0.3000,-100.0000,-0.0010,-0.3000,-100.0000,-0.0010,12.7473,36.5712,0.0200,0.0000
29.9901,10.4551,2.5849,0.0829,-0.0000,0.0000,0.0000,0.0000,0.0000,-0.1983,-0.0321,0.0013,996,1502,1500,1500,2008,1000,1505,1505,1505,1006,2008,1000,1014,5.6580,0.5820,-0.5410,-0.0395,0.0893,0.9885,-0.1649,0.2292,0.1674,-0.2317,0.3036,0.4132,0.0700,0.3036,0.4132,0.0700,0.3000,0.0600,0.0002,0,-0.3000,-100.0000,-0.0010,-0.3000,-100.0000,-0.0010,12.7824,36.6124,0.0200,0.0000
30.0099,10.4487,2.5738,0.0000,-0.0000,0.0000,0.0000,0.0000,0.0000,-0.1986,-0.0318,0.0013,996,1502,1500,1500,2008,1000,1505,1505,1505,1006,2008,1000,1014,5.9912,0.0907,-0.5600,-0.0392,0.0988,0.9874,-0.1655,0.2291,0.1681,-0.2317,0.3036,0.4132,0.0700,0.3036,0.4132,0.0700,0.3000,0.0600,0.0002,0,-0.3000,-100.0000,-0.0010,-0.3000,-100.0000,-0.0010,12.8176,36.6536,0.0200,0.0000
30.0309,10.4369,2.5595,0.0829,-0.0000,0.0000,0.0000,0.0000,0.0000,-0.1987,-0.0313,0.0013,996,1502,1500,1500,2008,1000,1505,1505,1505,1006,2008,1000,1014,6.0105,-0.5684,-0.5566,-0.0390,0.1013,0.9910,-0.1661,0.2287,0.1687,-0.2312,0.3036,0.4132,0.0700,0.3036,0.4132,0.0700,0.3000,0.0600,0.0002,0,-0.3000,-100.0000,-0.0010,-0.3000,-100.0000,-0.0010,12.8528,36.6948,0.0200,0.0000
30.0499,10.4202,2.5420,0.0829,-0.0000,0.0000,0.0600,0.3200,0.0000,-0.1985,-0.0308,0.0034,997,1503,1500,1500,2008,1000,1505,1505,1505,1006,2008,1000,1014,5.6913,-0.9974,-0.6373,-0.0349,0.1082,0.9910,-0.1643,0.2259,0.1712,-0.2327,0.3036,0.4132,0.0700,0.3036,0.4132,0.0700,0.3000,0.0600,0.0002,0,-0.3000,-100.0000,-0.0010,-0.3000,-100.0000,-0.0010,12.8880,36.7359,0.0400,0.0100
30.0650,10.4005,2.5220,0.0000,-0.0000,0.0000,0.0000,0.0000,0.0000,-0.1983,-0.0307,0.0020,996,1502,1500,1500,2008,1000,1505,1505,1505,1006,2008,1000,1014,5.2961,-1.2605,-0.7848,-0.0351,0.1082,0.9909,-0.1656,0.2269,0.1696,-0.2310,0.3036,0.4132,0.0700,0.3036,0.4132,0.0700,0.3000,0.0600,0.0002,0,-0.3000,-100.0000,-0.0010,-0.3000,-100.0000,-0.0010,12.9232,36.7771,0.0200,0.0000
30.0734,10.3799,2.5014,0.0829,-0.0000,0.0000,0.0000,0.0000,0.0000,-0.1977,-0.0306,0.0016,996,1502,1500,1500,2008,1000,1505,1505,1505,1006,2008,1000,1014,4.4937,-1.2851,-0.6390,-0.0340,0.1112,0.9875,-0.1656,0.2268,0.1687,-0.2299,0.3036,0.4132,0.0700,0.3036,0.4132,0.0700,0.3000,0.0600,0.0002,0,-0.3000,-100.0000,-0.0010,-0.3000,-100.0000,-0.0010,12.9584,36.8183,0.0200,0.0000
30.0722,10.3588,2.4823,0.0000,-0.0000,0.0000,0.0000,0.0000,0.0000,-0.1970,-0.0307,0.0012,996,1502,1500,1500,2008,1000,1505,1505,1505,1006,2008,1000,1014,3.4586,-1.1159,-0.5200,-0.0320,0.1116,0.9856,-0.1652,0.2265,0.1675,-0.2289,0.3036,0.4132,0.0700,0.3036,0.4132,0.0700,0.3000,0.0600,0.0002,0,-0.3000,-100.0000,-0.0010,-0.3000,-100.0000,-0.0010,12.9936,36.8594,0.0200,0.0000
30.0606,10.3390,2.4662,-0.0829,0.0821,0.0000,0.0000,0.0000,0.0000,-0.1962,-0.0309,0.0005,996,1502,1500,1500,2008,1000,1505,1505,1505,1006,2008,1000,1014,2.3877,-0.7178,-0.2883,-0.0290,0.1139,0.9891,-0.1649,0.2266,0.1658,-0.2276,0.3036,0.4132,0.0700,0.3036,0.4132,0.0700,0.3000,0.0600,0.0002,0,-0.3000,-100.0000,-0.0010,-0.3000,-100.0000,-0.0010,13.0289,36.9005,0.0200,0.0000
30.0380,10.3228,2.4539,0.0000,0.0821,0.0000,0.0000,0.0000,0.0000,-0.1954,-0.0312,0.0002,996,1502,1500,1500,2008,1000,1505,1505,1505,1006,2008,1000,1014,1.2378,-0.2621,-0.2084,-0.0274,0.1121,0.9947,-0.1640,0.2263,0.1644,-0.2267,0.3036,0.4132,0.0700,0.3036,0.4132,0.0700,0.3000,0.0600,0.0002,0,-0.3000,-100.0000,-0.0010,-0.3000,-100.0000,-0.0010,13.0641,36.9416,0.0200,0.0000
30.0047,10.3093,2.4457,0.0000,-0.0000,0.0000,0.0600,0.3200,0.0000,-0.1945,-0.0312,0.0014,997,1503,1500,1500,2008,1000,1505,1505,1505,1006,2008,1000,1014,0.1882,0.1246,0.0352,-0.0300,0.1124,0.9867,-0.1619,0.2243,0.1647,-0.2271,0.3036,0.4132,0.0700,0.3036,0.4132,0.0700,0.3000,0.0600,0.0002,0,-0.3000,-100.0000,-0.0010,-0.3000,-100.0000,-0.0010,13.0993,36.9826,0.0400,0.0100
29.9615,10.2977,2.4407,-0.0829,-0.0000,0.0000,0.0000,0.0000,0.0000,-0.1938,-0.0315,-0.0009,996,1502,1500,1500,2008,1000,1505,1505,1505,1006,2008,1000,1014,-0.7166,0.3396,0.1883,-0.0310,0.1118,0.9908,-0.1632,0.2262,0.1613,-0.2243,0.3036,0.4132,0.0700,0.3036,0.4132,0.0700,0.3000,0.0600,0.0002,0,-0.3000,-100.0000,-0.0010,-0.3000,-100.0000,-0.0010,13.1345,37.0236,0.0200,0.0000
29.9093,10.2871,2.4391,0.0000,-0.0000,0.0000,0.0000,0.0000,0.0000,-0.1930,-0.0317,-0.0015,996,1502,1500,1500,2008,1000,1505,1505,1505,1006,2008,1000,1014,-1.6064,0.6158,0.3885,-0.0320,0.1090,0.9880,-0.1629,0.2262,0.1598,-0.2231,0.3036,0.4132,0.0700,0.3036,0.4132,0.0700,0.3000,0.0600,0.0002,0,-0.3000,-100.0000,-0.0010,-0.3000,-100.0000,-0.0010,13.1698,37.0647,0.0200,0.0000
29.8491,10.2784,2.4393,0.0829,-0.0000,0.0000,0.0000,0.0000,0.0000,-0.1923,-0.0317,-0.0016,996,1502,1500,1500,2008,1000,1505,1505,1505,1006,2008,1000,1014,-2.2623,0.7476,0.4083,-0.0323,0.1091,0.9910,-0.1622,0.2256,0.1591,-0.2225,0.3036,0.4132,0.0700,0.3036,0.4132,0.0700,0.3000,0.0600,0.0002,0,-0.3000,-100.0000,-0.0010,-0.3000,-100.0000,-0.0010,13.2050,37.1057,0.0200,0.0000
29.7837,10.2689,2.4401,0.0000,0.0821,0.0000,0.0000,0.0000,0.0000,-0.1918,-0.0316,-0.0021,996,1502,1500,1500,2008,1000,1505,1505,1505,1006,2008,1000,1014,-2.7204,0.6326,0.5755,-0.0340,0.1062,0.9877,-0.1623,0.2255,0.1581,-0.2213,0.3036,0.4132,0.0700,0.3036,0.4132,0.0700,0.3000,0.0600,0.0002,0,-0.3000,-100.0000,-0.0010,-0.3000,-100.0000,-0.0010,13.2403,37.1467,0.0200,0.0000
29.7133,10.2581,2.4414,0.0000,-0.0000,0.0000,0.0000,0.0000,0.0000,-0.1913,-0.0315,-0.0023,996,1502,1500,1500,2008,1000,1505,1505,1505,1006,2008,1000,1014,-3.1740,0.5193,0.6441,-0.0352,0.1023,0.9903,-0.1621,0.2251,0.1575,-0.2205,0.3036,0.4132,0.0700,0.3036,0.4132,0.0700,0.3000,0.0600,0.0002,0,-0.3000,-100.0000,-0.0010,-0.3000,-100.0000,-0.0010,13.2756,37.1878,0.0200,0.0000
29.6387,10.2457,2.4424,0.0000,0.1642,0.0000,0.0600,0.3200,0.0000,-0.1908,-0.0312,-0.0005,997,1503,1500,1500,2008,1000,1505,1505,1505,1006,2008,1000,1014,-3.4777,0.3563,0.6854,-0.0378,0.0996,0.9888,-0.1601,0.2225,0.1592,-0.2216,0.3036,0.4132,0.0700,0.3036,0.4132,0.0700,0.3000,0.0600,0.0002,0,-0.3000,-100.0000,-0.0010,-0.3000,-100.0000,-0.0010,13.3108,37.2288,0.0400,0.0100
29.5617,10.2319,2.4422,0.0829,-0.0000,0.0000,0.0000,0.0000,0.0000,-0.1905,-0.0311,-0.0023,996,1502,1500,1500,2008,1000,1505,1505,1505,1006,2008,1000,1014,-3.6574,0.0934,0.6609,-0.0385,0.1017,0.9883,-0.1617,0.2239,0.1570,-0.2193,0.3036,0.4132,0.0700,0.3036,0.4132,0.0700,0.3000,0.0600,0.0002,0,-0.3000,-100.0000,-0.0010,-0.3000,-100.0000,-0.0010,13.3461,37.2699,0.0200,0.0000
29.4823,10.2159,2.4409,-0.1657,-0.0000,0.0000,0.0000,0.0000,0.0000,-0.1901,-0.0310,-0.0022,996,1502,1500,1500,2008,1000,1505,1505,1505,1006,2008,1000,1014,-3.8720,-0.0902,0.6300,-0.0354,0.1013,0.9852,-0.1614,0.2233,0.1569,-0.2188,0.3036,0.4132,0.0700,0.3036,0.4132,0.0700,0.3000,0.0600,0.0002,0,-0.3000,-100.0000,-0.0010,-0.3000,-100.0000,-0.0010,13.3814,37.3109,0.0200,0.0000
29.4011,10.1982,2.4380,0.0000,-0.0000,0.0000,0.0000,0.0000,0.0000,-0.1898,-0.0308,-0.0020,996,1502,1500,1500,2008,1000,1505,1505,1505,1006,2008,1000,1014,-3.9526,-0.1931,0.5286,-0.0341,0.1008,0.9888,-0.1609,0.2226,0.1570,-0.2187,0.3036,0.4132,0.0700,0.3036,0.4132,0.0700,0.3000,0.0600,0.0002,0,-0.3000,-100.0000,-0.0010,-0.3000,-100.0000,-0.0010,13.4167,37.3519,0.0200,0.0000
29.3187,10.1797,2.4335,-0.0829,0.1642,0.0000,0.0000,0.0000,0.0000,-0.1895,-0.0307,-0.0016,996,1502,1500,1500,2008,1000,1505,1505,1505,1006,2008,1000,1014,-4.0379,-0.3528,0.4283,-0.0325,0.0993,0.9925,-0.1605,0.2218,0.1572,-0.2185,0.3036,0.4132,0.0700,0.3036,0.4132,0.0700,0.3000,0.0600,0.0002,0,-0.3000,-100.0000,-0.0010,-0.3000,-100.0000,-0.0010,13.4520,37.3929,0.0200,0.0000
29.2355,10.1623,2.4288,-0.0829,0.0821,0.0000,0.0000,0.0000,0.0000,-0.1892,-0.0307,-0.0015,996,1502,1500,1500,2008,1000,1505,1505,1505,1006,2008,1000,1014,-4.1090,-0.1541,0.3920,-0.0305,0.0970,0.9907,-0.1600,0.2215,0.1569,-0.2184,0.3036,0.4132,0.0700,0.3036,0.4132,0.0700,0.3000,0.0600,0.0002,0,-0.3000,-100.0000,-0.0010,-0.3000,-100.0000,-0.0010,13.4873,37.4339,0.0200,0.0000
29.1519,10.1463,2.4247,0.0000,0.0821,0.0000,0.0600,0.3200,0.0000,-0.1889,-0.0306,0.0005,997,1503,1500,1500,2008,1000,1505,1505,1505,1006,2008,1000,1014,-4.1068,-0.0222,0.3408,-0.0304,0.0932,0.9915,-0.1578,0.2190,0.1589,-0.2201,0.3036,0.4132,0.0700,0.3036,0.4132,0.0700,0.3000,0.0600,0.0002,0,-0.3000,-100.0000,-0.0010,-0.3000,-100.0000,-0.0010,13.5226,37.4749,0.0400,0.0100
29.0684,10.1324,2.4218,0.0000,0.0821,0.0000,0.0000,0.0000,0.0000,-0.1887,-0.0309,-0.0017,996,1502,1500,1500,2008,1000,1505,1505,1505,1006,2008,1000,1014,-4.0902,0.1731,0.4315,-0.0365,0.0946,0.9909,-0.1595,0.2213,0.1561,-0.2179,0.3036,0.4132,0.0700,0.3036,0.4132,0.0700,0.3000,0.0600,0.0002,0,-0.3000,-100.0000,-0.0010,-0.3000,-100.0000,-0.0010,13.5580,37.5159,0.0200,0.0000
28.9854,10.1195,2.4201,0.0829,0.0821,0.0000,0.0000,0.0000,0.0000,-0.1884,-0.0310,-0.0018,996,1502,1500,1500,2008,1000,1505,1505,1505,1006,2008,1000,1014,-4.1205,0.3267,0.4883,-0.0319,0.0947,0.9904,-0.1593,0.2212,0.1557,-0.2176,0.3036,0.4132,0.0700,0.3036,0.4132,0.0700,0.3000,0.0600,0.0002,0,-0.3000,-100.0000,-0.0010,-0.3000,-100.0000,-0.0010,13.5933,37.5568,0.0200,0.0000
28.9028,10.1078,2.4194,0.0829,-0.0000,0.0000,0.0000,0.0000,0.0000,-0.1882,-0.0309,-0.0016,996,1502,1500,1500,2008,1000,1505,1505,1505,1006,2008,1000,1014,-4.0519,0.3597,0.4211,-0.0361,0.0935,0.9887,-0.1589,0.2208,0.1557,-0.2175,0.3036,0.4132,0.0700,0.3036,0.4132,0.0700,0.3000,0.0600,0.0002,0,-0.3000,-100.0000,-0.0010,-0.3000,-100.0000,-0.0010,13.6286,37.5978,0.0200,0.0000
28.8205,10.0961,2.4180,0.0000,-0.0000,0.0000,0.0000,0.0000,0.0000,-0.1880,-0.0309,-0.0016,996,1502,1500,1500,2008,1000,1505,1505,1505,1006,2008,1000,1014,-4.0023,0.3628,0.4247,-0.0318,0.0921,0.9924,-0.1587,0.2205,0.1554,-0.2173,0.3036,0.4132,0.0700,0.3036,0.4132,0.0700,0.3000,0.0600,0.0002,0,-0.3000,-100.0000,-0.0010,-0.3000,-100.0000,-0.0010,13.6639,37.6388,0.0200,0.0000
28.7390,10.0838,2.4164,0.0829,-0.0000,0.0000,0.0000,0.0000,0.0000,-0.1878,-0.0308,-0.0016,996,1502,1500,1500,2008,1000,1505,1505,1505,1006,2008,1000,1014,-3.9297,0.2602,0.4260,-0.0326,0.0940,0.9877,-0.1586,0.2202,0.1554,-0.2170,0.3036,0.4132,0.0700,0.3036,0.4132,0.0700,0.3000,0.0600,0.0002,0,-0.3000,-100.0000,-0.0010,-0.3000,-100.0000,-0.0010,13.6993,37.6797,0.0200,0.0000
28.6579,10.0705,2.4135,0.0000,-0.0000,0.0000,0.0600,0.3200,0.0000,-0.1876,-0.0305,0.0005,997,1503,1500,1500,2008,1000,1505,1505,1505,1006,2008,1000,1014,-3.8689,0.1626,0.3302,-0.0353,0.0908,0.9906,-0.1566,0.2176,0.1576,-0.2186,0.3036,0.4132,0.0700,0.3036,0.4132,0.0700,0.3000,0.0600,0.0002,0,-0.3000,-100.0000,-0.0010,-0.3000,-100.0000,-0.0010,13.7346,37.7205,0.0400,0.0100
28.5765,10.0564,2.4085,0.0000,0.0821,0.0000,0.0000,0.0000,0.0000,-0.1873,-0.0304,-0.0010,996,1502,1500,1500,2008,1000,1505,1505,1505,1006,2008,1000,1014,-3.8749,-0.1588,0.1784,-0.0362,0.0902,0.9936,-0.1579,0.2187,0.1560,-0.2168,0.3036,0.4132,0.0700,0.3036,0.4132,0.0700,0.3000,0.0600,0.0002,0,-0.3000,-100.0000,-0.0010,-0.3000,-100.0000,-0.0010,13.7699,37.7614,0.0200,0.0000
28.4949,10.0414,2.4023,0.0000,-0.0000,0.0000,0.0000,0.0000,0.0000,-0.1872,-0.0304,-0.0009,996,1502,1500,1500,2008,1000,1505,1505,1505,1006,2008,1000,1014,-3.7919,-0.1848,0.1707,-0.0357,0.0898,0.9924,-0.1577,0.2184,0.1559,-0.2166,0.3036,0.4132,0.0700,0.3036,0.4132,0.0700,0.3000,0.0600,0.0002,0,-0.3000,-100.0000,-0.0010,-0.3000,-100.0000,-0.0010,13.8053,37.8023,0.0200,0.0000
28.4140,10.0257,2.3952,0.0000,0.0821,0.0000,0.0000,0.0000,0.0000,-0.1869,-0.0303,-0.0007,996,1502,1500,1500,2008,1000,1505,1505,1505,1006,2008,1000,1014,-3.7529,-0.2404,0.1074,-0.0364,0.0882,0.9923,-0.1574,0.2179,0.1560,-0.2165,0.3036,0.4132,0.0700,0.3036,0.4132,0.0700,0.3000,0.0600,0.0002,0,-0.3000,-100.0000,-0.0010,-0.3000,-100.0000,-0.0010,13.8406,37.8432,0.0200,0.0000
28.3335,10.0105,2.3878,0.0000,0.1642,0.0000,0.0000,0.0000,0.0000,-0.1867,-0.0303,-0.0004,996,1502,1500,1500,2008,1000,1505,1505,1505,1006,2008,1000,1014,-3.6944,-0.1453,0.0040,-0.0355,0.0882,0.9886,-0.1568,0.2174,0.1561,-0.2166,0.3036,0.4132,0.0700,0.3036,0.4132,0.0700,0.3000,0.0600,0.0002,0,-0.3000,-100.0000,-0.0010,-0.3000,-100.0000,-0.0010,13.8760,37.8841,0.0200,0.0000
28.2534,9.9964,2.3797,0.0000,-0.0000,0.0000,0.0000,0.0000,0.0000,-0.1865,-0.0303,-0.0002,996,1502,1500,1500,2008,1000,1505,1505,1505,1006,2008,1000,1014,-3.6574,-0.0610,-0.0596,-0.0344,0.0876,0.9902,-0.1565,0.2171,0.1560,-0.2166,0.3036,0.4132,0.0700,0.3036,0.4132,0.0700,0.3000,0.0600,0.0002,0,-0.3000,-100.0000,-0.0010,-0.3000,-100.0000,-0.0010,13.9113,37.9249,0.0200,0.0000
28.1743,9.9831,2.3718,0.0000,-0.0000,0.0000,0.0600,0.3200,0.0000,-0.1864,-0.0301,0.0018,997,1503,1500,1500,2008,1000,1505,1505,1505,1006,2008,1000,1014,-3.5043,-0.0440,-0.0918,-0.0332,0.0861,0.9901,-0.1545,0.2147,0.1580,-0.2182,0.3036,0.4132,0.0700,0.3036,0.4132,0.0700,0.3000,0.0600,0.0002,0,-0.3000,-100.0000,-0.0010,-0.3000,-100.0000,-0.0010,13.9467,37.9658,0.0400,0.0100
28.0958,9.9706,2.3638,0.0829,-0.0000,0.0000,0.0000,0.0000,0.0000,-0.1861,-0.0303,-0.0004,996,1502,1500,1500,2008,1000,1505,1505,1505,1006,2008,1000,1014,-3.5660,0.0681,-0.0181,-0.0322,0.0857,0.9925,-0.1562,0.2168,0.1554,-0.2160,0.3036,0.4132,0.0700,0.3036,0.4132,0.0700,0.3000,0.0600,0.0002,0,-0.3000,-100.0000,-0.0010,-0.3000,-100.0000,-0.0010,13.9821,38.0066,0.0200,0.0000
28.0173,9.9584,2.3566,0.0000,0.0821,0.0000,0.0000,0.0000,0.0000,-0.1859,-0.0303,-0.0001,996,1502,1500,1500,2008,1000,1505,1505,1505,1006,2008,1000,1014,-3.5158,0.0728,-0.0851,-0.0323,0.0871,0.9927,-0.1557,0.2163,0.1555,-0.2161,0.3036,0.4132,0.0700,0.3036,0.4132,0.0700,0.3000,0.0600,0.0002,0,-0.3000,-100.0000,-0.0010,-0.3000,-100.0000,-0.0010,14.0175,38.0474,0.0200,0.0000
27.9388,9.9462,2.3498,0.0000,-0.0000,0.0000,0.0000,0.0000,0.0000,-0.1856,-0.0303,-0.0006,996,1502,1500,1500,2008,1000,1505,1505,1505,1006,2008,1000,1014,-3.5757,0.1416,0.0658,-0.0343,0.0823,0.9909,-0.1559,0.2165,0.1547,-0.2153,0.3036,0.4132,0.0700,0.3036,0.4132,0.0700,0.3000,0.0600,0.0002,0,-0.3000,-100.0000,-0.0010,-0.3000,-100.0000,-0.0010,14.0529,38.0883,0.0200,0.0000
27.8607,9.9338,2.3440,0.0000,0.0821,0.0000,0.0000,0.0000,0.0000,-0.1854,-0.0302,-0.0007,996,1502,1500,1500,2008,1000,1505,1505,1505,1006,2008,1000,1014,-3.5149,0.0313,0.0823,-0.0361,0.0835,0.9898,-0.1559,0.2163,0.1546,-0.2149,0.3036,0.4132,0.0700,0.3036,0.4132,0.0700,0.3000,0.0600,0.0002,0,-0.3000,-100.0000,-0.0010,-0.3000,-100.0000,-0.0010,14.0883,38.1291,0.0200,0.0000
27.7825,9.9204,2.3381,0.0000,0.0821,0.0000,0.0000,0.0000,0.0000,-0.1852,-0.0301,-0.0009,996,1502,1500,1500,2008,1000,1505,1505,1505,1006,2008,1000,1014,-3.5042,-0.0316,0.1494,-0.0362,0.0836,0.9892,-0.1560,0.2162,0.1542,-0.2144,0.3036,0.4132,0.0700,0.3036,0.4132,0.0700,0.3000,0.0600,0.0002,0,-0.3000,-100.0000,-0.0010,-0.3000,-100.0000,-0.0010,14.1237,38.1700,0.0200,0.0000
27.7043,9.9065,2.3325,0.0000,0.0821,0.0000,0.0600,0.3200,0.0000,-0.1849,-0.0298,0.0009,997,1503,1500,1500,2008,1000,1505,1505,1505,1006,2008,1000,1014,-3.5498,-0.0748,0.2005,-0.0365,0.0841,0.9852,-0.1542,0.2138,0.1560,-0.2157,0.3036,0.4132,0.0700,0.3036,0.4132,0.0700,0.3000,0.0600,0.0002,0,-0.3000,-100.0000,-0.0010,-0.3000,-100.0000,-0.0010,14.1591,38.2108,0.0400,0.0100
27.6262,9.8921,2.3269,0.0829,-0.0000,0.0000,0.0000,0.0000,0.0000,-0.1847,-0.0300,-0.0007,996,1502,1500,1500,2008,1000,1505,1505,1505,1006,2008,1000,1014,-3.4836,-0.0795,0.1152,-0.0351,0.0864,0.9894,-0.1555,0.2154,0.1540,-0.2140,0.3036,0.4132,0.0700,0.3036,0.4132,0.0700,0.3000,0.0600,0.0002,0,-0.3000,-100.0000,-0.0010,-0.3000,-100.0000,-0.0010,14.1945,38.2516,0.0200,0.0000
27.5480,9.8775,2.3205,0.0000,0.1642,0.0000,0.0000,0.0000,0.0000,-0.1845,-0.0299,-0.0008,996,1502,1500,1500,2008,1000,1505,1505,1505,1006,2008,1000,1014,-3.5020,-0.1293,0.1283,-0.0342,0.0807,0.9921,-0.1554,0.2152,0.1538,-0.2136,0.3036,0.4132,0.0700,0.3036,0.4132,0.0700,0.3000,0.0600,0.0002,0,-0.3000,-100.0000,-0.0010,-0.3000,-100.0000,-0.0010,14.2300,38.2924,0.0200,0.0000
27.4702,9.8630,2.3141,0.1657,0.0821,0.0000,0.0000,0.0000,0.0000,-0.1843,-0.0299,-0.0007,996,1502,1500,1500,2008,1000,1505,1505,1505,1006,2008,1000,1014,-3.4418,-0.1223,0.1061,-0.0325,0.0824,0.9926,-0.1552,0.2149,0.1537,-0.2134,0.3036,0.4132,0.0700,0.3036,0.4132,0.0700,0.3000,0.0600,0.0002,0,-0.3000,-100.0000,-0.0010,-0.3000,-100.0000,-0.0010,14.2654,38.3332,0.0200,0.0000
27.3922,9.8486,2.3079,0.0000,-0.0000,0.0000,0.0000,0.0000,0.0000,-0.1840,-0.0299,-0.0008,996,1502,1500,1500,2008,1000,1505,1505,1505,1006,2008,1000,1014,-3.5283,-0.0249,0.1176,-0.0340,0.0793,0.9953,-0.1549,0.2146,0.1533,-0.2131,0.3036,0.4132,0.0700,0.3036,0.4132,0.0700,0.3000,0.0600,0.0002,0,-0.3000,-100.0000,-0.0010,-0.3000,-100.0000,-0.0010,14.3008,38.3739,0.0200,0.0000
27.3139,9.8350,2.3019,0.0829,-0.0000,0.0000,0.0000,0.0000,0.0000,-0.1838,-0.0298,-0.0008,996,1502,1500,1500,2008,1000,1505,1505,1505,1006,2008,1000,1014,-3.5329,-0.0207,0.1225,-0.0341,0.0788,0.9893,-0.1547,0.2144,0.1531,-0.2128,0.3036,0.4132,0.0700,0.3036,0.4132,0.0700,0.3000,0.0600,0.0002,0,-0.3000,-100.0000,-0.0010,-0.3000,-100.0000,-0.0010,14.3363,38.4146,0.0200,0.0000
27.2349,9.8214,2.2963,0.0000,0.0821,0.0000,0.0600,0.3200,0.0000,-0.1835,-0.0297,0.0013,997,1503,1500,1500,2008,1000,1505,1505,1505,1006,2008,1000,1014,-3.6130,0.0678,0.0968,-0.0378,0.0789,0.9904,-0.1525,0.2118,0.1551,-0.2145,0.3036,0.4132,0.0700,0.3036,0.4132,0.0700,0.3000,0.0600,0.0002,0,-0.3000,-100.0000,-0.0010,-0.3000,-100.0000,-0.0010,14.3717,38.4553,0.0400,0.0100
27.1557,9.8082,2.2895,0.0000,0.0821,0.0000,0.0000,0.0000,0.0000,-0.1832,-0.0298,-0.0002,996,1502,1500,1500,2008,1000,1505,1505,1505,1006,2008,1000,1014,-3.6346,0.0323,-0.0415,-0.0362,0.0786,0.9869,-0.1536,0.2132,0.1532,-0.2128,0.3036,0.4132,0.0700,0.3036,0.4132,0.0700,0.3000,0.0600,0.0002,0,-0.3000,-100.0000,-0.0010,-0.3000,-100.0000,-0.0010,14.4072,38.4960,0.0200,0.0000
27.0756,9.7955,2.2814,0.0000,0.0821,0.0000,0.0000,0.0000,0.0000,-0.1829,-0.0297,-0.0001,996,1502,1500,1500,2008,1000,1505,1505,1505,1006,2008,1000,1014,-3.6715,-0.0491,-0.1037,-0.0367,0.0793,0.9901,-0.1533,0.2127,0.1531,-0.2125,0.3036,0.4132,0.0700,0.3036,0.4132,0.0700,0.3000,0.0600,0.0002,0,-0.3000,-100.0000,-0.0010,-0.3000,-100.0000,-0.0010,14.4426,38.5368,0.0200,0.0000
26.9951,9.7824,2.2738,0.0829,0.0821,0.0000,0.0000,0.0000,0.0000,-0.1826,-0.0296,-0.0006,996,1502,1500,1500,2008,1000,1505,1505,1505,1006,2008,1000,1014,-3.7603,-0.0868,0.0478,-0.0371,0.0759,0.9875,-0.1536,0.2129,0.1524,-0.2116,0.3036,0.4132,0.0700,0.3036,0.4132,0.0700,0.3000,0.0600,0.0002,0,-0.3000,-100.0000,-0.0010,-0.3000,-100.0000,-0.0010,14.4781,38.5774,0.0200,0.0000
26.9143,9.7681,2.2670,0.0000,-0.0000,0.0000,0.0000,0.0000,0.0000,-0.1824,-0.0296,-0.0004,996,1502,1500,1500,2008,1000,1505,1505,1505,1006,2008,1000,1014,-3.7755,-0.0728,0.0170,-0.0375,0.0763,0.9929,-0.1532,0.2124,0.1524,-0.2116,0.3036,0.4132,0.0700,0.3036,0.4132,0.0700,0.3000,0.0600,0.0002,0,-0.3000,-100.0000,-0.0010,-0.3000,-100.0000,-0.0010,14.5136,38.6181,0.0200,0.0000
26.8332,9.7545,2.2599,-0.0829,-0.0000,0.0000,0.0000,0.0000,0.0000,-0.1821,-0.0296,-0.0005,996,1502,1500,1500,2008,1000,1505,1505,1505,1006,2008,1000,1014,-3.7996,-0.0000,0.0490,-0.0313,0.0769,0.9913,-0.1530,0.2123,0.1520,-0.2112,0.3036,0.4132,0.0700,0.3036,0.4132,0.0700,0.3000,0.0600,0.0002,0,-0.3000,-100.0000,-0.0010,-0.3000,-100.0000,-0.0010,14.5490,38.6588,0.0200,0.0000
26.7513,9.7405,2.2531,0.0000,0.0821,0.0000,0.0600,0.3200,0.0000,-0.1818,-0.0294,0.0011,997,1503,1500,1500,2008,1000,1505,1505,1505,1006,2008,1000,1014,-3.8599,-0.0277,0.1251,-0.0344,0.0761,0.9959,-0.1513,0.2101,0.1536,-0.2123,0.3036,0.4132,0.0700,0.3036,0.4132,0.0700,0.3000,0.0600,0.0002,0,-0.3000,-100.0000,-0.0010,-0.3000,-100.0000,-0.0010,14.5845,38.6994,0.0400,0.0100
26.6686,9.7260,2.2467,0.0000,0.0821,0.0000,0.0000,0.0000,0.0000,-0.1815,-0.0295,-0.0006,996,1502,1500,1500,2008,1000,1505,1505,1505,1006,2008,1000,1014,-3.9564,-0.0566,0.0809,-0.0345,0.0745,0.9897,-0.1526,0.2116,0.1514,-0.2103,0.3036,0.4132,0.0700,0.3036,0.4132,0.0700,0.3000,0.0600,0.0002,0,-0.3000,-100.0000,-0.0010,-0.3000,-100.0000,-0.0010,14.6200,38.7401,0.0200,0.0000
26.5850,9.7122,2.2400,0.0000,0.0821,0.0000,0.0000,0.0000,0.0000,-0.1812,-0.0295,-0.0006,996,1502,1500,1500,2008,1000,1505,1505,1505,1006,2008,1000,1014,-4.0525,-0.0167,0.0600,-0.0328,0.0733,0.9913,-0.1523,0.2112,0.1511,-0.2101,0.3036,0.4132,0.0700,0.3036,0.4132,0.0700,0.3000,0.0600,0.0002,0,-0.3000,-100.0000,-0.0010,-0.3000,-100.0000,-0.0010,14.6555,38.7807,0.0200,0.0000
26.5001,9.6986,2.2336,0.0829,-0.0000,0.0000,0.0000,0.0000,0.0000,-0.1808,-0.0295,-0.0006,996,1502,1500,1500,2008,1000,1505,1505,1505,1006,2008,1000,1014,-4.2148,0.0098,0.0551,-0.0354,0.0766,0.9887,-0.1519,0.2109,0.1508,-0.2097,0.3036,0.4132,0.0700,0.3036,0.4132,0.0700,0.3000,0.0600,0.0002,0,-0.3000,-100.0000,-0.0010,-0.3000,-100.0000,-0.0010,14.6910,38.8214,0.0200,0.0000
26.4143,9.6855,2.2279,0.0000,0.1642,0.0000,0.0000,0.0000,0.0000,-0.1805,-0.0295,-0.0008,996,1502,1500,1500,2008,1000,1505,1505,1505,1006,2008,1000,1014,-4.2168,0.0759,0.1320,-0.0356,0.0736,0.9902,-0.1519,0.2108,0.1503,-0.2092,0.3036,0.4132,0.0700,0.3036,0.4132,0.0700,0.3000,0.0600,0.0002,0,-0.3000,-100.0000,-0.0010,-0.3000,-100.0000,-0.0010,14.7265,38.8620,0.0200,0.0000
26.3280,9.6731,2.2225,0.0000,-0.0000,0.0000,0.0000,0.0000,0.0000,-0.1802,-0.0294,-0.0008,996,1502,1500,1500,2008,1000,1505,1505,1505,1006,2008,1000,1014,-4.3198,0.0587,0.1159,-0.0372,0.0728,0.9943,-0.1516,0.2104,0.1500,-0.2089,0.3036,0.4132,0.0700,0.3036,0.4132,0.0700,0.3000,0.0600,0.0002,0,-0.3000,-100.0000,-0.0010,-0.3000,-100.0000,-0.0010,14.7621,38.9027,0.0200,0.0000
26.2402,9.6601,2.2167,-0.0829,-0.0000,0.0000,0.0600,0.3200,0.0000,-0.1798,-0.0291,0.0012,997,1503,1500,1500,2008,1000,1505,1505,1505,1006,2008,1000,1014,-4.4655,-0.0143,0.0942,-0.0341,0.0720,0.9980,-0.1495,0.2077,0.1519,-0.2102,0.3036,0.4132,0.0700,0.3036,0.4132,0.0700,0.3000,0.0600,0.0002,0,-0.3000,-100.0000,-0.0010,-0.3000,-100.0000,-0.0010,14.7976,38.9434,0.0400,0.0100
26.1511,9.6464,2.2104,0.0000,0.0821,0.0000,0.0000,0.0000,0.0000,-0.1795,-0.0293,-0.0006,996,1502,1500,1500,2008,1000,1505,1505,1505,1006,2008,1000,1014,-4.6234,-0.0520,0.0542,-0.0342,0.0698,0.9935,-0.1508,0.2093,0.1496,-0.2081,0.3036,0.4132,0.0700,0.3036,0.4132,0.0700,0.3000,0.0600,0.0002,0,-0.3000,-100.0000,-0.0010,-0.3000,-100.0000,-0.0010,14.8332,38.9840,0.0200,0.0000
26.0603,9.6324,2.2042,0.0000,0.0821,0.0000,0.0000,0.0000,0.0000,-0.1791,-0.0292,-0.0008,996,1502,1500,1500,2008,1000,1505,1505,1505,1006,2008,1000,1014,-4.7410,0.0031,0.1339,-0.0309,0.0721,0.9895,-0.1507,0.2092,0.1490,-0.2075,0.3036,0.4132,0.0700,0.3036,0.4132,0.0700,0.3000,0.0600,0.0002,0,-0.3000,-100.0000,-0.0010,-0.3000,-100.0000,-0.0010,14.8687,39.0246,0.0200,0.0000
25.9682,9.6182,2.1977,0.0000,-0.0000,0.0000,0.0000,0.0000,0.0000,-0.1787,-0.0291,-0.0006,996,1502,1500,1500,2008,1000,1505,1505,1505,1006,2008,1000,1014,-4.8967,-0.1076,0.0843,-0.0339,0.0705,0.9945,-0.1502,0.2085,0.1489,-0.2072,0.3036,0.4132,0.0700,0.3036,0.4132,0.0700,0.3000,0.0600,0.0002,0,-0.3000,-100.0000,-0.0010,-0.3000,-100.0000,-0.0010,14.9043,39.0652,0.0200,0.0000
25.8745,9.6039,2.1912,0.0000,-0.0000,0.0000,0.0000,0.0000,0.0000,-0.1783,-0.0292,-0.0007,996,1502,1500,1500,2008,1000,1505,1505,1505,1006,2008,1000,1014,-5.0592,0.0050,0.0928,-0.0327,0.0709,0.9912,-0.1499,0.2082,0.1484,-0.2068,0.3036,0.4132,0.0700,0.3036,0.4132,0.0700,0.3000,0.0600,0.0002,0,-0.3000,-100.0000,-0.0010,-0.3000,-100.0000,-0.0010,14.9398,39.1058,0.0200,0.0000
25.7787,9.5895,2.1849,-0.0829,0.0821,0.0000,0.0000,0.0000,0.0000,-0.1779,-0.0291,-0.0005,996,1502,1500,1500,2008,1000,1505,1505,1505,1006,2008,1000,1014,-5.2303,-0.0702,0.0347,-0.0342,0.0679,0.9898,-0.1493,0.2075,0.1483,-0.2065,0.3036,0.4132,0.0700,0.3036,0.4132,0.0700,0.3000,0.0600,0.0002,0,-0.3000,-100.0000,-0.0010,-0.3000,-100.0000,-0.0010,14.9754,39.1464,0.0200,0.0000
25.6809,9.5754,2.1780,0.0000,0.1642,0.0000,0.0600,0.3200,0.0000,-0.1775,-0.0288,0.0014,997,1503,1500,1500,2008,1000,1505,1505,1505,1006,2008,1000,1014,-5.4092,-0.0963,0.0266,-0.0342,0.0674,0.9937,-0.1473,0.2049,0.1500,-0.2077,0.3036,0.4132,0.0700,0.3036,0.4132,0.0700,0.3000,0.0600,0.0002,0,-0.3000,-100.0000,-0.0010,-0.3000,-100.0000,-0.0010,15.0109,39.1870,0.0400,0.0100
25.5813,9.5607,2.1710,0.0829,0.0821,0.0000,0.0000,0.0000,0.0000,-0.1770,-0.0289,-0.0006,996,1502,1500,1500,2008,1000,1505,1505,1505,1006,2008,1000,1014,-5.6348,-0.1571,0.0755,-0.0362,0.0669,0.9930,-0.1487,0.2066,0.1475,-0.2053,0.3036,0.4132,0.0700,0.3036,0.4132,0.0700,0.3000,0.0600,0.0002,0,-0.3000,-100.0000,-0.0010,-0.3000,-100.0000,-0.0010,15.0465,39.2275,0.0200,0.0000
25.4795,9.5469,2.1638,0.0829,-0.0000,0.0000,0.0000,0.0000,0.0000,-0.1766,-0.0290,-0.0006,996,1502,1500,1500,2008,1000,1505,1505,1505,1006,2008,1000,1014,-5.7394,0.0170,0.0572,-0.0319,0.0662,0.9950,-0.1482,0.2062,0.1471,-0.2050,0.3036,0.4132,0.0700,0.3036,0.4132,0.0700,0.3000,0.0600,0.0002,0,-0.3000,-100.0000,-0.0010,-0.3000,-100.0000,-0.0010,15.0821,39.2681,0.0200,0.0000
25.3764,9.5335,2.1581,0.0000,0.0821,0.0000,0.0000,0.0000,0.0000,-0.1762,-0.0290,-0.0008,996,1502,1500,1500,2008,1000,1505,1505,1505,1006,2008,1000,1014,-5.9188,0.0169,0.1452,-0.0388,0.0647,0.9907,-0.1481,0.2060,0.1464,-0.2043,0.3036,0.4132,0.0700,0.3036,0.4132,0.0700,0.3000,0.0600,0.0002,0,-0.3000,-100.0000,-0.0010,-0.3000,-100.0000,-0.0010,15.1176,39.3086,0.0200,0.0000
25.2708,9.5192,2.1523,-0.0829,0.0821,0.0000,0.0000,0.0000,0.0000,-0.1757,-0.0289,-0.0008,996,1502,1500,1500,2008,1000,1505,1505,1505,1006,2008,1000,1014,-6.1754,-0.0045,0.1401,-0.0331,0.0645,0.9911,-0.1476,0.2054,0.1460,-0.2038,0.3036,0.4132,0.0700,0.3036,0.4132,0.0700,0.3000,0.0600,0.0002,0,-0.3000,-100.0000,-0.0010,-0.3000,-100.0000,-0.0010,15.1532,39.3491,0.0200,0.0000
25.1629,9.5047,2.1467,0.0829,-0.0000,0.0000,0.0000,0.0000,0.0000,-0.1752,-0.0289,-0.0007,996,1502,1500,1500,2008,1000,1505,1505,1505,1006,2008,1000,1014,-6.4419,0.0130,0.1223,-0.0349,0.0614,0.9906,-0.1471,0.2048,0.1456,-0.2033,0.3036,0.4132,0.0700,0.3036,0.4132,0.0700,0.3000,0.0600,0.0002,0,-0.3000,-100.0000,-0.0010,-0.3000,-100.0000,-0.0010,15.1888,39.3896,0.0200,0.0000
25.0522,9.4905,2.1408,-0.0829,0.1642,0.0000,0.0600,0.3200,0.0000,-0.1747,-0.0286,0.0011,997,1503,1500,1500,2008,1000,1505,1505,1505,1006,2008,1000,1014,-6.6633,-0.0109,0.1586,-0.0346,0.0641,0.9944,-0.1450,0.2022,0.1472,-0.2044,0.3036,0.4132,0.0700,0.3036,0.4132,0.0700,0.3000,0.0600,0.0002,0,-0.3000,-100.0000,-0.0010,-0.3000,-100.0000,-0.0010,15.2244,39.4301,0.0400,0.0100
24.9390,9.4766,2.1344,0.0829,0.0821,0.0000,0.0000,0.0000,0.0000,-0.1741,-0.0288,-0.0005,996,1502,1500,1500,2008,1000,1505,1505,1505,1006,2008,1000,1014,-6.9534,-0.0094,0.0445,-0.0342,0.0625,0.9935,-0.1459,0.2035,0.1448,-0.2024,0.3036,0.4132,0.0700,0.3036,0.4132,0.0700,0.3000,0.0600,0.0002,0,-0.3000,-100.0000,-0.0010,-0.3000,-100.0000,-0.0010,15.2600,39.4706,0.0200,0.0000
24.8230,9.4619,2.1279,0.0829,-0.0000,0.0000,0.0000,0.0000,0.0000,-0.1738,-0.0287,-0.0008,996,1502,1500,1500,2008,1000,1505,1505,1505,1006,2008,1000,1014,-6.9757,-0.0577,0.1140,-0.0354,0.0502,0.9893,-0.1459,0.2032,0.1443,-0.2017,0.3036,0.4132,0.0700,0.3036,0.4132,0.0700,0.3000,0.0600,0.0002,0,-0.3000,-100.0000,-0.0010,-0.3000,-100.0000,-0.0010,15.2956,39.5112,0.0200,0.0000
24.7117,9.4478,2.1209,0.0000,-0.0000,0.0000,0.0000,0.0000,0.0000,-0.1739,-0.0285,-0.0004,996,1502,1500,1500,2008,1000,1505,1505,1505,1006,2008,1000,1014,-6.2603,-0.2487,-0.0100,-0.0326,0.0348,1.0057,-0.1458,0.2028,0.1451,-0.2021,0.3036,0.4132,0.0700,0.3036,0.4132,0.0700,0.3000,0.0600,0.0002,0,-0.3000,-100.0000,-0.0010,-0.3000,-100.0000,-0.0010,15.3312,39.5516,0.0200,0.0000
24.6049,9.4336,2.1126,0.0000,0.0821,0.0000,0.0000,0.0000,0.0000,-0.1740,-0.0284,-0.0001,996,1502,1500,1500,2008,1000,1505,1505,1505,1006,2008,1000,1014,-5.7453,-0.3141,-0.0941,-0.0429,0.0326,0.9923,-0.1457,0.2025,0.1454,-0.2023,0.3036,0.4132,0.0700,0.3036,0.4132,0.0700,0.3000,0.0600,0.0002,0,-0.3000,-100.0000,-0.0010,-0.3000,-100.0000,-0.0010,15.3668,39.5921,0.0200,0.0000
24.5114,9.4179,2.1013,0.0000,0.0821,0.0000,0.0000,0.0000,0.0000,-0.1750,-0.0283,0.0006,996,1502,1500,1500,2008,1000,1505,1505,1505,1006,2008,1000,1013,-3.8896,-0.4873,-0.3201,-0.0348,0.0387,1.0010,-0.1462,0.2027,0.1473,-0.2038,0.3036,0.4132,0.0700,0.3036,0.4132,0.0700,0.3000,0.0600,0.0002,0,-0.3000,-100.0000,-0.0010,-0.3000,-100.0000,-0.0010,15.4024,39.6325,0.0200,0.0000
24.4347,9.4028,2.0884,0.0000,0.0821,0.0000,0.0600,0.3200,0.0000,-0.1756,-0.0282,0.0031,997,1503,1500,1500,2008,1000,1505,1505,1505,1006,2008,1000,1013,-2.6418,-0.1877,-0.4997,-0.0309,0.0499,0.9828,-0.1443,0.2008,0.1505,-0.2069,0.3036,0.4132,0.0700,0.3036,0.4132,0.0700,0.3000,0.0600,0.0002,0,-0.3000,-100.0000,-0.0010,-0.3000,-100.0000,-0.0010,15.4381,39.6730,0.0400,0.0100
24.3717,9.3920,2.0770,0.0000,0.0821,0.0000,0.0000,0.0000,0.0000,-0.1765,-0.0287,0.0010,996,1502,1500,1500,2008,1000,1505,1505,1505,1006,2008,1000,1013,-1.1423,0.2149,-0.4773,-0.0316,0.0487,0.9953,-0.1468,0.2041,0.1488,-0.2062,0.3036,0.4132,0.0700,0.3036,0.4132,0.0700,0.3000,0.0600,0.0002,0,-0.3000,-100.0000,-0.0010,-0.3000,-100.0000,-0.0010,15.4737,39.7134,0.0200,0.0000
24.3263,9.3835,2.0671,0.0829,-0.0000,0.0000,0.0000,0.0000,0.0000,-0.1774,-0.0288,0.0010,996,1502,1500,1500,2008,1000,1505,1505,1505,1006,2008,1000,1014,0.3943,0.4965,-0.4514,-0.0279,0.0455,0.9874,-0.1476,0.2053,0.1496,-0.2072,0.3036,0.4132,0.0700,0.3036,0.4132,0.0700,0.3000,0.0600,0.0002,0,-0.3000,-100.0000,-0.0010,-0.3000,-100.0000,-0.0010,15.5094,39.7538,0.0200,0.0000
24.2939,9.3815,2.0609,0.0000,-0.0000,0.0000,0.0000,0.0000,0.0000,-0.1781,-0.0294,0.0005,996,1502,1500,1500,2008,1000,1505,1505,1505,1006,2008,1000,1014,1.4278,1.2990,-0.3162,-0.0325,0.0252,0.9973,-0.1481,0.2069,0.1492,-0.2080,0.3036,0.4132,0.0700,0.3036,0.4132,0.0700,0.3000,0.0600,0.0002,0,-0.3000,-100.0000,-0.0010,-0.3000,-100.0000,-0.0010,15.5450,39.7942,0.0200,0.0000
24.2755,9.3823,2.0571,-0.0829,0.0821,0.0000,0.0000,0.0000,0.0000,-0.1792,-0.0294,0.0001,996,1502,1500,1500,2008,1000,1505,1505,1505,1006,2008,1000,1014,3.1361,1.3202,-0.1729,-0.0298,0.0043,0.9981,-0.1497,0.2085,0.1499,-0.2087,0.3036,0.4132,0.0700,0.3036,0.4132,0.0700,0.3000,0.0600,0.0002,0,-0.3000,-100.0000,-0.0010,-0.3000,-100.0000,-0.0010,15.5807,39.8347,0.0200,0.0000
24.2766,9.3854,2.0554,0.0000,0.0821,0.0000,0.0000,0.0000,0.0000,-0.1805,-0.0295,0.0002,996,1502,1500,1500,2008,1000,1505,1505,1505,1006,2008,1000,1014,4.9598,1.4909,-0.1937,-0.0394,0.0113,0.9953,-0.1507,0.2098,0.1512,-0.2102,0.3036,0.4132,0.0700,0.3036,0.4132,0.0700,0.3000,0.0600,0.0002,0,-0.3000,-100.0000,-0.0010,-0.3000,-100.0000,-0.0010,15.6164,39.8751,0.0200,0.0000
24.2994,9.3866,2.0498,-0.0829,-0.0000,0.0000,0.0600,0.3200,0.0000,-0.1823,-0.0290,0.0034,997,1503,1500,1500,2008,1000,1505,1505,1505,1006,2008,1000,1013,7.4706,1.0041,-0.6151,-0.0379,0.0242,0.9967,-0.1499,0.2079,0.1567,-0.2147,0.3036,0.4132,0.0700,0.3036,0.4132,0.0700,0.3000,0.0600,0.0002,0,-0.3000,-100.0000,-0.0010,-0.3000,-100.0000,-0.0010,15.6521,39.9155,0.0400,0.0100
24.3506,9.3858,2.0379,0.0829,0.0821,0.0000,0.0000,0.0000,0.0000,-0.1845,-0.0287,0.0033,996,1502,1500,1500,2008,1000,1505,1505,1505,1006,2008,1000,1013,10.4069,0.3486,-1.1961,-0.0442,0.0436,0.9906,-0.1525,0.2100,0.1591,-0.2166,0.3036,0.4132,0.0700,0.3036,0.4132,0.0700,0.3000,0.0600,0.0002,0,-0.3000,-100.0000,-0.0010,-0.3000,-100.0000,-0.0010,15.6877,39.9558,0.0200,0.0000
24.4307,9.3795,2.0159,0.0829,-0.0000,0.0000,0.0000,0.0000,0.0000,-0.1868,-0.0282,0.0050,996,1502,1500,1500,2008,1000,1505,1505,1505,1006,2008,1000,1013,13.3099,-0.3493,-1.7824,-0.0397,0.0503,0.9860,-0.1535,0.2100,0.1636,-0.2200,0.3036,0.4132,0.0700,0.3036,0.4132,0.0700,0.3000,0.0600,0.0002,0,-0.3000,-100.0000,-0.0010,-0.3000,-100.0000,-0.0010,15.7234,39.9962,0.0200,0.0000
24.5404,9.3694,1.9855,0.0829,0.0821,0.0000,0.0000,0.0000,0.0000,-0.1891,-0.0277,0.0068,996,1502,1500,1500,2008,1000,1505,1505,1505,1006,2008,1000,1013,16.1995,-1.0585,-2.3932,-0.0455,0.0520,0.9955,-0.1546,0.2100,0.1683,-0.2237,0.3036,0.4132,0.0700,0.3036,0.4132,0.0700,0.3000,0.0600,0.0002,0,-0.3000,-100.0000,-0.0010,-0.3000,-100.0000,-0.0010,15.7591,40.0365,0.0200,0.0000
24.6749,9.3548,1.9498,0.0000,0.0821,0.0000,0.0000,0.0000,0.0000,-0.1910,-0.0274,0.0066,996,1502,1500,1500,2008,1000,1505,1505,1505,1006,2008,1000,1013,18.2168,-1.4411,-2.3344,-0.0384,0.0402,0.9895,-0.1569,0.2117,0.1702,-0.2250,0.3036,0.4132,0.0700,0.3036,0.4132,0.0700,0.3000,0.0600,0.0002,0,-0.3000,-100.0000,-0.0010,-0.3000,-100.0000,-0.0010,15.7948,40.0769,0.0200,0.0000
24.8288,9.3371,1.9151,0.0829,-0.0000,0.0000,0.0000,0.0000,0.0000,-0.1926,-0.0272,0.0057,996,1502,1500,1500,2008,1000,1505,1505,1505,1006,2008,1000,1013,19.8386,-1.6072,-2.0090,-0.0352,0.0362,0.9949,-0.1597,0.2141,0.1710,-0.2255,0.3036,0.4132,0.0700,0.3036,0.4132,0.0700,0.3000,0.0600,0.0002,0,-0.3000,-100.0000,-0.0010,-0.3000,-100.0000,-0.0010,15.8305,40.1172,0.0200,0.0000
24.9952,9.3176,1.8854,0.0829,-0.0000,0.0000,0.0600,0.3200,0.0000,-0.1935,-0.0272,0.0057,997,1503,1500,1500,2008,1000,1505,1505,1505,1006,2008,1000,1014,20.4200,-1.2879,-1.3962,-0.0315,0.0458,0.9981,-0.1606,0.2150,0.1720,-0.2264,0.3036,0.4132,0.0700,0.3036,0.4132,0.0700,0.3000,0.0600,0.0002,0,-0.3000,-100.0000,-0.0010,-0.3000,-100.0000,-0.0010,15.8662,40.1576,0.0400,0.0100
25.1661,9.2991,1.8635,0.0000,0.1642,0.0000,0.0000,0.0000,0.0000,-0.1942,-0.0277,0.0017,996,1502,1500,1500,2008,1000,1505,1505,1505,1006,2008,1000,1014,20.6537,-0.8221,-0.7147,-0.0303,0.0653,0.9911,-0.1648,0.2201,0.1682,-0.2235,0.3036,0.4132,0.0700,0.3036,0.4132,0.0700,0.3000,0.0600,0.0002,0,-0.3000,-100.0000,-0.0010,-0.3000,-100.0000,-0.0010,15.9020,40.1979,0.0200,0.0000
25.3397,9.2828,1.8512,0.0000,-0.0000,0.0000,0.0000,0.0000,0.0000,-0.1946,-0.0282,-0.0001,996,1502,1500,1500,2008,1000,1505,1505,1505,1006,2008,1000,1014,20.4759,0.0672,-0.0904,-0.0289,0.0943,0.9841,-0.1665,0.2229,0.1662,-0.2227,0.3036,0.4132,0.0700,0.3036,0.4132,0.0700,0.3000,0.0600,0.0002,0,-0.3000,-100.0000,-0.0010,-0.3000,-100.0000,-0.0010,15.9377,40.2382,0.0200,0.0000
25.5117,9.2707,1.8479,-0.0829,-0.0000,0.0000,0.0000,0.0000,0.0000,-0.1948,-0.0286,-0.0014,996,1502,1500,1500,2008,1000,1505,1505,1505,1006,2008,1000,1014,20.0603,0.7043,0.3467,-0.0298,0.1063,0.9858,-0.1675,0.2248,0.1648,-0.2220,0.3036,0.4132,0.0700,0.3036,0.4132,0.0700,0.3000,0.0600,0.0002,0,-0.3000,-100.0000,-0.0010,-0.3000,-100.0000,-0.0010,15.9734,40.2785,0.0200,0.0000
25.6798,9.2632,1.8509,0.0000,0.0821,0.0000,0.0000,0.0000,0.0000,-0.1949,-0.0290,-0.0025,996,1502,1500,1500,2008,1000,1505,1505,1505,1006,2008,1000,1014,19.5225,1.2949,0.7086,-0.0313,0.1078,0.9866,-0.1684,0.2265,0.1634,-0.2214,0.3036,0.4132,0.0700,0.3036,0.4132,0.0700,0.3000,0.0600,0.0002,0,-0.3000,-100.0000,-0.0010,-0.3000,-100.0000,-0.0010,16.0092,40.3188,0.0200,0.0000
25.8416,9.2593,1.8595,0.0000,0.0821,0.0000,0.0000,0.0000,0.0000,-0.1949,-0.0293,-0.0032,996,1502,1500,1500,2008,1000,1505,1505,1505,1006,2008,1000,1014,18.7327,1.6461,0.9475,-0.0315,0.0956,0.9862,-0.1688,0.2274,0.1624,-0.2209,0.3036,0.4132,0.0700,0.3036,0.4132,0.0700,0.3000,0.0600,0.0002,0,-0.3000,-100.0000,-0.0010,-0.3000,-100.0000,-0.0010,16.0449,40.3591,0.0200,0.0000
25.9954,9.2569,1.8716,0.0000,-0.0000,0.0000,0.0600,0.3200,0.0000,-0.1948,-0.0291,-0.0021,997,1503,1500,1500,2008,1000,1505,1505,1505,1006,2008,1000,1014,17.9873,1.6682,1.2233,-0.0378,0.0923,0.9891,-0.1678,0.2260,0.1637,-0.2218,0.3036,0.4132,0.0700,0.3036,0.4132,0.0700,0.3000,0.0600,0.0002,0,-0.3000,-100.0000,-0.0010,-0.3000,-100.0000,-0.0010,16.0806,40.3993,0.0400,0.0100
26.1405,9.2527,1.8833,0.0000,-0.0000,0.0000,0.0000,0.0000,0.0000,-0.1946,-0.0291,-0.0038,996,1502,1500,1500,2008,1000,1505,1505,1505,1006,2008,1000,1014,17.0900,1.3768,1.1392,-0.0383,0.0929,0.9913,-0.1693,0.2274,0.1618,-0.2199,0.3036,0.4132,0.0700,0.3036,0.4132,0.0700,0.3000,0.0600,0.0002,0,-0.3000,-100.0000,-0.0010,-0.3000,-100.0000,-0.0010,16.1164,40.4396,0.0200,0.0000
26.2754,9.2453,1.8926,0.0000,0.0821,0.0000,0.0000,0.0000,0.0000,-0.1944,-0.0287,-0.0036,996,1502,1500,1500,2008,1000,1505,1505,1505,1006,2008,1000,1014,16.1700,0.8740,1.0843,-0.0416,0.1033,0.9897,-0.1693,0.2267,0.1621,-0.2195,0.3036,0.4132,0.0700,0.3036,0.4132,0.0700,0.3000,0.0600,0.0002,0,-0.3000,-100.0000,-0.0010,-0.3000,-100.0000,-0.0010,16.1521,40.4799,0.0200,0.0000
26.4000,9.2329,1.8975,0.0000,0.1642,0.0000,0.0000,0.0000,0.0000,-0.1941,-0.0283,-0.0027,996,1502,1500,1500,2008,1000,1505,1505,1505,1006,2008,1000,1014,15.2298,0.3292,0.8062,-0.0414,0.1212,0.9868,-0.1686,0.2251,0.1631,-0.2197,0.3036,0.4132,0.0700,0.3036,0.4132,0.0700,0.3000,0.0600,0.0002,0,-0.3000,-100.0000,-0.0010,-0.3000,-100.0000,-0.0010,16.1879,40.5202,0.0200,0.0000
26.5133,9.2166,1.8964,0.0000,0.0821,0.0000,0.0000,0.0000,0.0000,-0.1937,-0.0278,-0.0012,996,1502,1500,1500,2008,1000,1505,1505,1505,1006,2008,1000,1014,14.1633,-0.2817,0.3156,-0.0381,0.1271,0.9862,-0.1671,0.2227,0.1647,-0.2203,0.3036,0.4132,0.0700,0.3036,0.4132,0.0700,0.3000,0.0600,0.0002,0,-0.3000,-100.0000,-0.0010,-0.3000,-100.0000,-0.0010,16.2237,40.5604,0.0200,0.0000
26.6145,9.1979,1.8878,0.0000,0.0821,0.0000,0.0000,0.0000,0.0000,-0.1933,-0.0275,0.0003,996,1502,1500,1500,2008,1000,1505,1505,1505,1006,2008,1000,1014,13.1338,-0.6631,-0.1914,-0.0356,0.1276,0.9886,-0.1655,0.2205,0.1661,-0.2210,0.3036,0.4132,0.0700,0.3036,0.4132,0.0700,0.3000,0.0600,0.0002,0,-0.3000,-100.0000,-0.0010,-0.3000,-100.0000,-0.0010,16.2595,40.6006,0.0200,0.0000
26.7035,9.1781,1.8735,0.0000,0.1642,0.0000,0.0600,0.3200,0.0000,-0.1928,-0.0270,0.0030,997,1503,1500,1500,2008,1000,1505,1505,1505,1006,2008,1000,1014,12.0249,-1.0318,-0.4921,-0.0381,0.1164,0.9889,-0.1628,0.2167,0.1689,-0.2228,0.3036,0.4132,0.0700,0.3036,0.4132,0.0700,0.3000,0.0600,0.0002,0,-0.3000,-100.0000,-0.0010,-0.3000,-100.0000,-0.0010,16.2952,40.6408,0.0400,0.0100
26.7799,9.1577,1.8558,0.0000,0.1642,0.0000,0.0000,0.0000,0.0000,-0.1922,-0.0271,0.0019,996,1502,1500,1500,2008,1000,1505,1505,1505,1006,2008,1000,1014,10.9066,-1.0695,-0.7376,-0.0338,0.1133,0.9904,-0.1633,0.2174,0.1671,-0.2212,0.3036,0.4132,0.0700,0.3036,0.4132,0.0700,0.3000,0.0600,0.0002,0,-0.3000,-100.0000,-0.0010,-0.3000,-100.0000,-0.0010,16.3310,40.6811,0.0200,0.0000
26.8441,9.1382,1.8371,-0.0829,-0.0000,0.0000,0.0000,0.0000,0.0000,-0.1916,-0.0271,0.0020,996,1502,1500,1500,2008,1000,1505,1505,1505,1006,2008,1000,1014,9.7036,-0.9391,-0.8063,-0.0341,0.1121,0.9919,-0.1625,0.2167,0.1665,-0.2207,0.3036,0.4132,0.0700,0.3036,0.4132,0.0700,0.3000,0.0600,0.0002,0,-0.3000,-100.0000,-0.0010,-0.3000,-100.0000,-0.0010,16.3668,40.7213,0.0200,0.0000
26.8986,9.1209,1.8189,0.0000,-0.0000,0.0000,0.0000,0.0000,0.0000,-0.1913,-0.0272,0.0021,996,1502,1500,1500,2008,1000,1505,1505,1505,1006,2008,1000,1014,8.9887,-0.6991,-0.8234,-0.0319,0.1184,0.9874,-0.1619,0.2163,0.1662,-0.2206,0.3036,0.4132,0.0700,0.3036,0.4132,0.0700,0.3000,0.0600,0.0002,0,-0.3000,-100.0000,-0.0010,-0.3000,-100.0000,-0.0010,16.4027,40.7615,0.0200,0.0000
26.9459,9.1066,1.8032,0.0000,-0.0000,0.0000,0.0000,0.0000,0.0000,-0.1909,-0.0274,0.0019,996,1502,1500,1500,2008,1000,1505,1505,1505,1006,2008,1000,1014,8.2539,-0.2935,-0.7543,-0.0335,0.1314,0.9865,-0.1615,0.2164,0.1654,-0.2203,0.3036,0.4132,0.0700,0.3036,0.4132,0.0700,0.3000,0.0600,0.0002,0,-0.3000,-100.0000,-0.0010,-0.3000,-100.0000,-0.0010,16.4385,40.8017,0.0200,0.0000
26.9868,9.0941,1.7894,0.0829,-0.0000,0.0000,0.0000,0.0000,0.0000,-0.1906,-0.0275,0.0015,996,1502,1500,1500,2008,1000,1505,1505,1505,1006,2008,1000,1014,7.6869,-0.1005,-0.6260,-0.0352,0.1347,0.9849,-0.1615,0.2166,0.1646,-0.2197,0.3036,0.4132,0.0700,0.3036,0.4132,0.0700,0.3000,0.0600,0.0002,0,-0.3000,-100.0000,-0.0010,-0.3000,-100.0000,-0.0010,16.4743,40.8419,0.0200,0.0000
27.0233,9.0826,1.7788,0.0000,0.0821,0.0000,0.0600,0.3200,0.0000,-0.1904,-0.0275,0.0025,997,1503,1500,1500,2008,1000,1505,1505,1505,1006,2008,1000,1013,7.2228,0.2073,-0.2939,-0.0352,0.1369,0.9866,-0.1604,0.2155,0.1653,-0.2204,0.3036,0.4132,0.0700,0.3036,0.4132,0.0700,0.3000,0.0600,0.0002,0,-0.3000,-100.0000,-0.0010,-0.3000,-100.0000,-0.0010,16.5101,40.8821,0.0400,0.0100
27.0542,9.0713,1.7715,0.0829,0.0821,0.0000,0.0000,0.0000,0.0000,-0.1900,-0.0277,-0.0003,996,1502,1500,1500,2008,1000,1505,1505,1505,1006,2008,1000,1013,6.5683,0.2128,-0.0228,-0.0336,0.1334,0.9813,-0.1627,0.2180,0.1620,-0.2174,0.3036,0.4132,0.0700,0.3036,0.4132,0.0700,0.3000,0.0600,0.0002,0,-0.3000,-100.0000,-0.0010,-0.3000,-100.0000,-0.0010,16.5459,40.9223,0.0200,0.0000
27.0780,9.0581,1.7673,0.0000,0.0821,0.0000,0.0000,0.0000,0.0000,-0.1896,-0.0276,-0.0013,996,1502,1500,1500,2008,1000,1505,1505,1505,1006,2008,1000,1013,5.7856,0.1222,0.2865,-0.0351,0.1289,0.9904,-0.1632,0.2184,0.1607,-0.2159,0.3036,0.4132,0.0700,0.3036,0.4132,0.0700,0.3000,0.0600,0.0002,0,-0.3000,-100.0000,-0.0010,-0.3000,-100.0000,-0.0010,16.5818,40.9624,0.0200,0.0000
27.0917,9.0428,1.7655,0.0000,0.0821,0.0000,0.0000,0.0000,0.0000,-0.1888,-0.0274,-0.0022,996,1502,1500,1500,2008,1000,1505,1505,1505,1006,2008,1000,1014,4.6218,-0.0072,0.5968,-0.0344,0.1265,0.9859,-0.1635,0.2184,0.1592,-0.2141,0.3036,0.4132,0.0700,0.3036,0.4132,0.0700,0.3000,0.0600,0.0002,0,-0.3000,-100.0000,-0.0010,-0.3000,-100.0000,-0.0010,16.6176,41.0025,0.0200,0.0000
27.0937,9.0257,1.7649,0.0000,0.0821,0.0000,0.0000,0.0000,0.0000,-0.1880,-0.0273,-0.0024,996,1502,1500,1500,2008,1000,1505,1505,1505,1006,2008,1000,1014,3.4768,-0.1377,0.7062,-0.0333,0.1270,0.9921,-0.1631,0.2177,0.1582,-0.2128,0.3036,0.4132,0.0700,0.3036,0.4132,0.0700,0.3000,0.0600,0.0002,0,-0.3000,-100.0000,-0.0010,-0.3000,-100.0000,-0.0010,16.6534,41.0426,0.0200,0.0000
27.0835,9.0069,1.7640,-0.0829,0.0821,0.0000,0.0000,0.0000,0.0000,-0.1871,-0.0271,-0.0022,996,1502,1500,1500,2008,1000,1505,1505,1505,1006,2008,1000,1014,2.2897,-0.3192,0.6313,-0.0365,0.1303,0.9895,-0.1622,0.2165,0.1578,-0.2120,0.3036,0.4132,0.0700,0.3036,0.4132,0.0700,0.3000,0.0600,0.0002,0,-0.3000,-100.0000,-0.0010,-0.3000,-100.0000,-0.0010,16.6893,41.0827,0.0200,0.0000
27.0613,8.9876,1.7612,0.0000,-0.0000,0.0000,0.0600,0.3200,0.0000,-0.1864,-0.0268,-0.0001,997,1503,1500,1500,2008,1000,1505,1505,1505,1006,2008,1000,1013,1.3296,-0.3893,0.5561,-0.0348,0.1300,0.9864,-0.1597,0.2134,0.1594,-0.2131,0.3036,0.4132,0.0700,0.3036,0.4132,0.0700,0.3000,0.0600,0.0002,0,-0.3000,-100.0000,-0.0010,-0.3000,-100.0000,-0.0010,16.7251,41.1227,0.0400,0.0100
27.0305,8.9679,1.7565,0.0000,0.1642,0.0000,0.0000,0.0000,0.0000,-0.1859,-0.0269,-0.0011,996,1502,1500,1500,2008,1000,1505,1505,1505,1006,2008,1000,1013,0.6951,-0.4986,0.2487,-0.0386,0.1362,0.9831,-0.1601,0.2138,0.1579,-0.2116,0.3036,0.4132,0.0700,0.3036,0.4132,0.0700,0.3000,0.0600,0.0002,0,-0.3000,-100.0000,-0.0010,-0.3000,-100.0000,-0.0010,16.7610,41.1628,0.0200,0.0000
26.9931,8.9478,1.7490,0.0000,-0.0000,0.0000,0.0000,0.0000,0.0000,-0.1854,-0.0267,-0.0006,996,1502,1500,1500,2008,1000,1505,1505,1505,1006,2008,1000,1014,0.1693,-0.6464,0.1006,-0.0324,0.1386,0.9871,-0.1592,0.2127,0.1581,-0.2115,0.3036,0.4132,0.0700,0.3036,0.4132,0.0700,0.3000,0.0600,0.0002,0,-0.3000,-100.0000,-0.0010,-0.3000,-100.0000,-0.0010,16.7969,41.2029,0.0200,0.0000
26.9511,8.9290,1.7400,-0.0829,-0.0000,0.0000,0.0000,0.0000,0.0000,-0.1850,-0.0270,0.0002,996,1502,1500,1500,2008,1000,1505,1505,1505,1006,2008,1000,1014,-0.2122,-0.1685,-0.1509,-0.0281,0.1300,0.9891,-0.1578,0.2118,0.1582,-0.2121,0.3036,0.4132,0.0700,0.3036,0.4132,0.0700,0.3000,0.0600,0.0002,0,-0.3000,-100.0000,-0.0010,-0.3000,-100.0000,-0.0010,16.8328,41.2430,0.0200,0.0000
26.9045,8.9134,1.7309,0.0000,0.0821,0.0000,0.0000,0.0000,0.0000,-0.1845,-0.0268,-0.0002,996,1502,1500,1500,2008,1000,1505,1505,1505,1006,2008,1000,1014,-0.7005,-0.3584,-0.0445,-0.0315,0.1267,0.9843,-0.1579,0.2115,0.1575,-0.2111,0.3036,0.4132,0.0700,0.3036,0.4132,0.0700,0.3000,0.0600,0.0002,0,-0.3000,-100.0000,-0.0010,-0.3000,-100.0000,-0.0010,16.8687,41.2831,0.0200,0.0000
26.8535,8.8985,1.7245,0.0829,0.0821,0.0000,0.0000,0.0000,0.0000,-0.1841,-0.0271,-0.0007,996,1502,1500,1500,2008,1000,1505,1505,1505,1006,2008,1000,1014,-1.0545,0.0880,0.1302,-0.0297,0.1186,0.9848,-0.1577,0.2119,0.1563,-0.2104,0.3036,0.4132,0.0700,0.3036,0.4132,0.0700,0.3000,0.0600,0.0002,0,-0.3000,-100.0000,-0.0010,-0.3000,-100.0000,-0.0010,16.9046,41.3232,0.0200,0.0000
26.8008,8.8872,1.7210,0.0000,0.0821,0.0000,0.0600,0.3200,0.0000,-0.1838,-0.0270,0.0011,997,1503,1500,1500,2008,1000,1505,1505,1505,1006,2008,1000,1014,-1.1908,0.3123,0.1524,-0.0369,0.1226,0.9872,-0.1557,0.2097,0.1579,-0.2120,0.3036,0.4132,0.0700,0.3036,0.4132,0.0700,0.3000,0.0600,0.0002,0,-0.3000,-100.0000,-0.0010,-0.3000,-100.0000,-0.0010,16.9405,41.3633,0.0400,0.0100
26.7450,8.8767,1.7193,0.0000,-0.0000,0.0000,0.0000,0.0000,0.0000,-0.1834,-0.0273,-0.0014,996,1502,1500,1500,2008,1000,1505,1505,1505,1006,2008,1000,1014,-1.5425,0.5518,0.3560,-0.0361,0.1242,0.9889,-0.1575,0.2122,0.1547,-0.2093,0.3036,0.4132,0.0700,0.3036,0.4132,0.0700,0.3000,0.0600,0.0002,0,-0.3000,-100.0000,-0.0010,-0.3000,-100.0000,-0.0010,16.9764,41.4033,0.0200,0.0000
26.6886,8.8654,1.7178,0.0829,0.1642,0.0000,0.0000,0.0000,0.0000,-0.1833,-0.0272,-0.0012,996,1502,1500,1500,2008,1000,1505,1505,1505,1006,2008,1000,1014,-1.4565,0.3541,0.2888,-0.0319,0.1293,0.9802,-0.1574,0.2117,0.1549,-0.2092,0.3036,0.4132,0.0700,0.3036,0.4132,0.0700,0.3000,0.0600,0.0002,0,-0.3000,-100.0000,-0.0010,-0.3000,-100.0000,-0.0010,17.0124,41.4434,0.0200,0.0000
26.6312,8.8534,1.7153,0.0000,-0.0000,0.0000,0.0000,0.0000,0.0000,-0.1831,-0.0270,-0.0010,996,1502,1500,1500,2008,1000,1505,1505,1505,1006,2008,1000,1014,-1.5669,0.1803,0.2206,-0.0403,0.1272,0.9878,-0.1571,0.2111,0.1550,-0.2091,0.3036,0.4132,0.0700,0.3036,0.4132,0.0700,0.3000,0.0600,0.0002,0,-0.3000,-100.0000,-0.0010,-0.3000,-100.0000,-0.0010,17.0483,41.4834,0.0200,0.0000
26.5741,8.8395,1.7120,0.0000,0.0821,0.0000,0.0000,0.0000,0.0000,-0.1829,-0.0268,-0.0011,996,1502,1500,1500,2008,1000,1505,1505,1505,1006,2008,1000,1014,-1.5025,-0.0047,0.2614,-0.0324,0.1249,0.9878,-0.1572,0.2109,0.1550,-0.2087,0.3036,0.4132,0.0700,0.3036,0.4132,0.0700,0.3000,0.0600,0.0002,0,-0.3000,-100.0000,-0.0010,-0.3000,-100.0000,-0.0010,17.0842,41.5234,0.0200,0.0000
26.5169,8.8243,1.7085,-0.0829,0.0821,0.0000,0.0000,0.0000,0.0000,-0.1827,-0.0267,-0.0015,996,1502,1500,1500,2008,1000,1505,1505,1505,1006,2008,1000,1014,-1.6036,-0.1300,0.3692,-0.0397,0.1193,0.9805,-0.1575,0.2109,0.1545,-0.2079,0.3036,0.4132,0.0700,0.3036,0.4132,0.0700,0.3000,0.0600,0.0002,0,-0.3000,-100.0000,-0.0010,-0.3000,-100.0000,-0.0010,17.1202,41.5634,0.0200,0.0000
26.4592,8.8070,1.7042,0.0829,0.0821,0.0000,0.0600,0.3200,0.0000,-0.1826,-0.0264,0.0007,997,1503,1500,1500,2008,1000,1505,1505,1505,1006,2008,1000,1014,-1.4766,-0.2332,0.3124,-0.0340,0.1160,0.9873,-0.1555,0.2083,0.1569,-0.2097,0.3036,0.4132,0.0700,0.3036,0.4132,0.0700,0.3000,0.0600,0.0002,0,-0.3000,-100.0000,-0.0010,-0.3000,-100.0000,-0.0010,17.1561,41.6035,0.0400,0.0100
26.4024,8.7898,1.6994,-0.0829,0.0821,0.0000,0.0000,0.0000,0.0000,-0.1825,-0.0265,-0.0011,996,1502,1500,1500,2008,1000,1505,1505,1505,1006,2008,1000,1014,-1.4210,-0.3048,0.2665,-0.0343,0.1216,0.9897,-0.1571,0.2101,0.1549,-0.2078,0.3036,0.4132,0.0700,0.3036,0.4132,0.0700,0.3000,0.0600,0.0002,0,-0.3000,-100.0000,-0.0010,-0.3000,-100.0000,-0.0010,17.1921,41.6435,0.0200,0.0000
26.3460,8.7718,1.6940,0.0000,-0.0000,0.0000,0.0000,0.0000,0.0000,-0.1823,-0.0265,-0.0013,996,1502,1500,1500,2008,1000,1505,1505,1505,1006,2008,1000,1013,-1.4144,-0.2025,0.3112,-0.0315,0.1184,0.9893,-0.1571,0.2101,0.1545,-0.2075,0.3036,0.4132,0.0700,0.3036,0.4132,0.0700,0.3000,0.0600,0.0002,0,-0.3000,-100.0000,-0.0010,-0.3000,-100.0000,-0.0010,17.2280,41.6834,0.0200,0.0000
26.2898,8.7557,1.6889,0.0829,-0.0000,0.0000,0.0000,0.0000,0.0000,-0.1821,-0.0265,-0.0007,996,1502,1500,1500,2008,1000,1505,1505,1505,1006,2008,1000,1013,-1.3992,-0.1499,0.1270,-0.0355,0.1233,0.9852,-0.1564,0.2093,0.1549,-0.2079,0.3036,0.4132,0.0700,0.3036,0.4132,0.0700,0.3000,0.0600,0.0002,0,-0.3000,-100.0000,-0.0010,-0.3000,-100.0000,-0.0010,17.2640,41.7234,0.0200,0.0000
26.2351,8.7413,1.6835,0.0000,-0.0000,0.0000,0.0000,0.0000,0.0000,-0.1821,-0.0266,-0.0006,996,1502,1500,1500,2008,1000,1505,1505,1505,1006,2008,1000,1014,-1.1444,0.1294,0.0742,-0.0328,0.1247,0.9853,-0.1561,0.2094,0.1549,-0.2082,0.3036,0.4132,0.0700,0.3036,0.4132,0.0700,0.3000,0.0600,0.0002,0,-0.3000,-100.0000,-0.0010,-0.3000,-100.0000,-0.0010,17.2999,41.7633,0.0200,0.0000
26.1822,8.7285,1.6782,0.0000,0.0821,0.0000,0.0000,0.0000,0.0000,-0.1821,-0.0266,-0.0005,996,1502,1500,1500,2008,1000,1505,1505,1505,1006,2008,1000,1014,-1.0273,0.1851,0.0520,-0.0324,0.1205,0.9891,-0.1559,0.2092,0.1549,-0.2082,0.3036,0.4132,0.0700,0.3036,0.4132,0.0700,0.3000,0.0600,0.0002,0,-0.3000,-100.0000,-0.0010,-0.3000,-100.0000,-0.0010,17.3359,41.8032,0.0200,0.0000
26.1313,8.7170,1.6731,-0.0829,0.0821,0.0000,0.0600,0.3200,0.0000,-0.1821,-0.0265,0.0014,997,1503,1500,1500,2008,1000,1505,1505,1505,1006,2008,1000,1014,-0.7418,0.2865,0.0351,-0.0364,0.1167,0.9857,-0.1542,0.2072,0.1570,-0.2100,0.3036,0.4132,0.0700,0.3036,0.4132,0.0700,0.3000,0.0600,0.0002,0,-0.3000,-100.0000,-0.0010,-0.3000,-100.0000,-0.0010,17.3719,41.8431,0.0400,0.0100
26.0823,8.7060,1.6689,0.0000,0.1642,0.0000,0.0000,0.0000,0.0000,-0.1820,-0.0266,-0.0007,996,1502,1500,1500,2008,1000,1505,1505,1505,1006,2008,1000,1014,-0.6376,0.2701,0.1005,-0.0366,0.1164,0.9908,-0.1561,0.2093,0.1548,-0.2080,0.3036,0.4132,0.0700,0.3036,0.4132,0.0700,0.3000,0.0600,0.0002,0,-0.3000,-100.0000,-0.0010,-0.3000,-100.0000,-0.0010,17.4079,41.8831,0.0200,0.0000
26.0342,8.6940,1.6649,0.0000,-0.0821,0.0000,0.0000,0.0000,0.0000,-0.1819,-0.0265,-0.0007,996,1502,1500,1500,2008,1000,1505,1505,1505,1006,2008,1000,1014,-0.5696,0.0983,0.1170,-0.0385,0.1176,0.9836,-0.1562,0.2091,0.1548,-0.2077,0.3036,0.4132,0.0700,0.3036,0.4132,0.0700,0.3000,0.0600,0.0002,0,-0.3000,-100.0000,-0.0010,-0.3000,-100.0000,-0.0010,17.4438,41.9231,0.0200,0.0000
25.9878,8.6803,1.6606,0.0000,0.0821,0.0000,0.0000,0.0000,0.0000,-0.1819,-0.0263,-0.0009,996,1502,1500,1500,2008,1000,1505,1505,1505,1006,2008,1000,1013,-0.4254,-0.0542,0.1786,-0.0360,0.1173,0.9869,-0.1564,0.2091,0.1547,-0.2074,0.3036,0.4132,0.0700,0.3036,0.4132,0.0700,0.3000,0.0600,0.0002,0,-0.3000,-100.0000,-0.0010,-0.3000,-100.0000,-0.0010,17.4798,41.9630,0.0200,0.0000
25.9427,8.6652,1.6554,0.0000,-0.0000,0.0000,0.0000,0.0000,0.0000,-0.1819,-0.0262,-0.0008,996,1502,1500,1500,2008,1000,1505,1505,1505,1006,2008,1000,1013,-0.2267,-0.1990,0.1431,-0.0371,0.1208,0.9858,-0.1565,0.2089,0.1550,-0.2073,0.3036,0.4132,0.0700,0.3036,0.4132,0.0700,0.3000,0.0600,0.0002,0,-0.3000,-100.0000,-0.0010,-0.3000,-100.0000,-0.0010,17.5159,42.0030,0.0200,0.0000
25.8992,8.6495,1.6489,0.0829,0.0821,0.0000,0.0000,0.0000,0.0000,-0.1819,-0.0261,-0.0005,996,1502,1500,1500,2008,1000,1505,1505,1505,1006,2008,1000,1014,-0.0729,-0.2106,0.0371,-0.0361,0.1218,0.9838,-0.1562,0.2084,0.1553,-0.2075,0.3036,0.4132,0.0700,0.3036,0.4132,0.0700,0.3000,0.0600,0.0002,0,-0.3000,-100.0000,-0.0010,-0.3000,-100.0000,-0.0010,17.5519,42.0429,0.0200,0.0000
25.8579,8.6340,1.6418,0.0000,-0.0000,0.0000,0.0600,0.3200,0.0000,-0.1819,-0.0259,0.0016,997,1503,1500,1500,2008,1000,1505,1505,1505,1006,2008,1000,1014,0.0778,-0.1765,-0.0128,-0.0333,0.1192,0.9866,-0.1543,0.2062,0.1576,-0.2094,0.3036,0.4132,0.0700,0.3036,0.4132,0.0700,0.3000,0.0600,0.0002,0,-0.3000,-100.0000,-0.0010,-0.3000,-100.0000,-0.0010,17.5879,42.0828,0.0400,0.0100
25.8179,8.6193,1.6347,0.0000,0.0821,0.0000,0.0000,0.0000,0.0000,-0.1819,-0.0261,-0.0005,996,1502,1500,1500,2008,1000,1505,1505,1505,1006,2008,1000,1014,0.2592,-0.1176,0.0426,-0.0332,0.1193,0.9842,-0.1563,0.2085,0.1552,-0.2074,0.3036,0.4132,0.0700,0.3036,0.4132,0.0700,0.3000,0.0600,0.0002,0,-0.3000,-100.0000,-0.0010,-0.3000,-100.0000,-0.0010,17.6239,42.1227,0.0200,0.0000
25.7801,8.6049,1.6287,0.0000,0.0821,0.0000,0.0000,0.0000,0.0000,-0.1819,-0.0261,-0.0004,996,1502,1500,1500,2008,1000,1505,1505,1505,1006,2008,1000,1014,0.4574,-0.0043,0.0345,-0.0349,0.1163,0.9890,-0.1562,0.2084,0.1554,-0.2076,0.3036,0.4132,0.0700,0.3036,0.4132,0.0700,0.3000,0.0600,0.0002,0,-0.3000,-100.0000,-0.0010,-0.3000,-100.0000,-0.0010,17.6600,42.1626,0.0200,0.0000
25.7432,8.5911,1.6226,0.0000,0.0821,0.0000,0.0000,0.0000,0.0000,-0.1818,-0.0261,-0.0002,996,1502,1500,1500,2008,1000,1505,1505,1505,1006,2008,1000,1014,0.5352,0.0651,-0.0631,-0.0322,0.1181,0.9852,-0.1559,0.2081,0.1555,-0.2078,0.3036,0.4132,0.0700,0.3036,0.4132,0.0700,0.3000,0.0600,0.0002,0,-0.3000,-100.0000,-0.0010,-0.3000,-100.0000,-0.0010,17.6960,42.2024,0.0200,0.0000
25.7077,8.5786,1.6160,0.0000,0.0821,0.0000,0.0000,0.0000,0.0000,-0.1818,-0.0261,-0.0003,996,1502,1500,1500,2008,1000,1505,1505,1505,1006,2008,1000,1013,0.6571,0.0493,-0.0263,-0.0356,0.1221,0.9880,-0.1560,0.2082,0.1554,-0.2076,0.3036,0.4132,0.0700,0.3036,0.4132,0.0700,0.3000,0.0600,0.0002,0,-0.3000,-100.0000,-0.0010,-0.3000,-100.0000,-0.0010,17.7320,42.2423,0.0200,0.0000
25.6738,8.5667,1.6105,-0.0829,0.0821,0.0000,0.0000,0.0000,0.0000,-0.1818,-0.0261,-0.0000,996,1502,1500,1500,2008,1000,1505,1505,1505,1006,2008,1000,1013,0.8420,0.1881,-0.1007,-0.0353,0.1216,0.9890,-0.1557,0.2080,0.1556,-0.2079,0.3036,0.4132,0.0700,0.3036,0.4132,0.0700,0.3000,0.0600,0.0002,0,-0.3000,-100.0000,-0.0010,-0.3000,-100.0000,-0.0010,17.7681,42.2821,0.0200,0.0000
25.6416,8.5539,1.6034,0.0000,0.0821,0.0000,0.0600,0.3200,0.0000,-0.1818,-0.0258,0.0019,997,1503,1500,1500,2008,1000,1505,1505,1505,1006,2008,1000,1014,0.9737,-0.0259,-0.1225,-0.0333,0.1225,0.9884,-0.1542,0.2057,0.1579,-0.2095,0.3036,0.4132,0.0700,0.3036,0.4132,0.0700,0.3000,0.0600,0.0002,0,-0.3000,-100.0000,-0.0010,-0.3000,-100.0000,-0.0010,17.8042,42.3219,0.0400,0.0100
25.6102,8.5407,1.5961,0.0829,0.0821,0.0000,0.0000,0.0000,0.0000,-0.1818,-0.0259,-0.0000,996,1502,1500,1500,2008,1000,1505,1505,1505,1006,2008,1000,1014,1.0364,-0.0103,-0.1134,-0.0340,0.1197,0.9850,-0.1559,0.2077,0.1558,-0.2077,0.3036,0.4132,0.0700,0.3036,0.4132,0.0700,0.3000,0.0600,0.0002,0,-0.3000,-100.0000,-0.0010,-0.3000,-100.0000,-0.0010,17.8402,42.3618,0.0200,0.0000
25.5794,8.5264,1.5886,0.0000,0.1642,0.0000,0.0000,0.0000,0.0000,-0.1817,-0.0258,-0.0001,996,1502,1500,1500,2008,1000,1505,1505,1505,1006,2008,1000,1014,1.0826,-0.1073,-0.0860,-0.0356,0.1199,0.9887,-0.1560,0.2076,0.1558,-0.2074,0.3036,0.4132,0.0700,0.3036,0.4132,0.0700,0.3000,0.0600,0.0002,0,-0.3000,-100.0000,-0.0010,-0.3000,-100.0000,-0.0010,17.8763,42.4015,0.0200,0.0000
25.5490,8.5119,1.5816,0.0000,0.0821,0.0000,0.0000,0.0000,0.0000,-0.1816,-0.0258,-0.0003,996,1502,1500,1500,2008,1000,1505,1505,1505,1006,2008,1000,1014,1.1033,-0.0843,-0.0303,-0.0376,0.1183,0.9911,-0.1561,0.2077,0.1556,-0.2072,0.3036,0.4132,0.0700,0.3036,0.4132,0.0700,0.3000,0.0600,0.0002,0,-0.3000,-100.0000,-0.0010,-0.3000,-100.0000,-0.0010,17.9124,42.4413,0.0200,0.0000
25.5187,8.4970,1.5744,0.0829,0.0821,0.0000,0.0000,0.0000,0.0000,-0.1815,-0.0257,-0.0002,996,1502,1500,1500,2008,1000,1505,1505,1505,1006,2008,1000,1014,1.0748,-0.1711,-0.0312,-0.0341,0.1221,0.9858,-0.1561,0.2074,0.1556,-0.2070,0.3036,0.4132,0.0700,0.3036,0.4132,0.0700,0.3000,0.0600,0.0002,0,-0.3000,-100.0000,-0.0010,-0.3000,-100.0000,-0.0010,17.9484,42.4811,0.0200,0.0000
25.4881,8.4819,1.5667,0.0000,0.0821,0.0000,0.0000,0.0000,0.0000,-0.1815,-0.0256,-0.0001,996,1502,1500,1500,2008,1000,1505,1505,1505,1006,2008,1000,1014,1.1235,-0.1617,-0.0960,-0.0343,0.1201,0.9873,-0.1559,0.2072,0.1557,-0.2070,0.3036,0.4132,0.0700,0.3036,0.4132,0.0700,0.3000,0.0600,0.0002,0,-0.3000,-100.0000,-0.0010,-0.3000,-100.0000,-0.0010,17.9845,42.5209,0.0200,0.0000
25.4571,8.4680,1.5585,0.0000,0.0821,0.0000,0.0600,0.3200,0.0000,-0.1813,-0.0255,0.0022,997,1503,1500,1500,2008,1000,1505,1505,1505,1006,2008,1000,1013,0.9966,-0.0651,-0.1947,-0.0334,0.1254,0.9865,-0.1536,0.2046,0.1580,-0.2090,0.3036,0.4132,0.0700,0.3036,0.4132,0.0700,0.3000,0.0600,0.0002,0,-0.3000,-100.0000,-0.0010,-0.3000,-100.0000,-0.0010,18.0206,42.5607,0.0400,0.0100
25.4258,8.4538,1.5505,0.0000,0.0821,0.0000,0.0000,0.0000,0.0000,-0.1812,-0.0256,-0.0001,996,1502,1500,1500,2008,1000,1505,1505,1505,1006,2008,1000,1013,1.0424,-0.0737,-0.0812,-0.0317,0.1243,0.9891,-0.1557,0.2069,0.1556,-0.2068,0.3036,0.4132,0.0700,0.3036,0.4132,0.0700,0.3000,0.0600,0.0002,0,-0.3000,-100.0000,-0.0010,-0.3000,-100.0000,-0.0010,18.0568,42.6005,0.0200,0.0000
25.3943,8.4405,1.5429,0.0000,0.0821,0.0000,0.0000,0.0000,0.0000,-0.1810,-0.0257,0.0002,996,1502,1500,1500,2008,1000,1505,1505,1505,1006,2008,1000,1014,0.9198,0.0912,-0.1813,-0.0322,0.1226,0.9890,-0.1551,0.2065,0.1556,-0.2069,0.3036,0.4132,0.0700,0.3036,0.4132,0.0700,0.3000,0.0600,0.0002,0,-0.3000,-100.0000,-0.0010,-0.3000,-100.0000,-0.0010,18.0929,42.6403,0.0200,0.0000
25.3618,8.4279,1.5353,0.0000,-0.0000,0.0000,0.0000,0.0000,0.0000,-0.1809,-0.0256,0.0001,996,1502,1500,1500,2008,1000,1505,1505,1505,1006,2008,1000,1014,0.8677,-0.0216,-0.1556,-0.0338,0.1248,0.9900,-0.1552,0.2064,0.1554,-0.2066,0.3036,0.4132,0.0700,0.3036,0.4132,0.0700,0.3000,0.0600,0.0002,0,-0.3000,-100.0000,-0.0010,-0.3000,-100.0000,-0.0010,18.1291,42.6801,0.0200,0.0000
25.3281,8.4144,1.5282,-0.0829,0.0821,0.0000,0.0000,0.0000,0.0000,-0.1807,-0.0256,-0.0001,996,1502,1500,1500,2008,1000,1505,1505,1505,1006,2008,1000,1013,0.7293,0.0920,-0.0671,-0.0335,0.1220,0.9887,-0.1552,0.2064,0.1550,-0.2062,0.3036,0.4132,0.0700,0.3036,0.4132,0.0700,0.3000,0.0600,0.0002,0,-0.3000,-100.0000,-0.0010,-0.3000,-100.0000,-0.0010,18.1652,42.7199,0.0200,0.0000
25.2932,8.4011,1.5219,0.0000,0.0821,0.0000,0.0000,0.0000,0.0000,-0.1805,-0.0255,-0.0003,996,1502,1500,1500,2008,1000,1505,1505,1505,1006,2008,1000,1013,0.5692,0.0310,-0.0189,-0.0333,0.1229,0.9842,-0.1553,0.2063,0.1547,-0.2057,0.3036,0.4132,0.0700,0.3036,0.4132,0.0700,0.3000,0.0600,0.0002,0,-0.3000,-100.0000,-0.0010,-0.3000,-100.0000,-0.0010,18.2013,42.7596,0.0200,0.0000
25.2571,8.3868,1.5159,-0.0829,0.0821,0.0000,0.0600,0.3200,0.0000,-0.1803,-0.0253,0.0014,997,1503,1500,1500,2008,1000,1505,1505,1505,1006,2008,1000,1014,0.5137,-0.0130,0.0274,-0.0334,0.1244,0.9845,-0.1536,0.2042,0.1565,-0.2070,0.3036,0.4132,0.0700,0.3036,0.4132,0.0700,0.3000,0.0600,0.0002,0,-0.3000,-100.0000,-0.0010,-0.3000,-100.0000,-0.0010,18.2375,42.7994,0.0400,0.0100
25.2200,8.3721,1.5096,0.0000,-0.0000,0.0000,0.0000,0.0000,0.0000,-0.1801,-0.0254,-0.0001,996,1502,1500,1500,2008,1000,1505,1505,1505,1006,2008,1000,1014,0.3614,-0.0643,-0.0747,-0.0342,0.1233,0.9837,-0.1548,0.2056,0.1547,-0.2054,0.3036,0.4132,0.0700,0.3036,0.4132,0.0700,0.3000,0.0600,0.0002,0,-0.3000,-100.0000,-0.0010,-0.3000,-100.0000,-0.0010,18.2736,42.8391,0.0200,0.0000
