roll_imu,pitch_imu,yaw_imu,alpha,beta,roll_des,pitch_des,yaw_des,throttle_des,roll_pid,pitch_pid,yaw_pid,radio_ch1,radio_ch2,radio_ch3,radio_ch4,radio_ch5,radio_ch6,radio_ch7,radio_ch8,radio_ch9,radio_ch10,radio_ch11,radio_ch12,radio_ch13,GyroX,GyroY,GyroZ,AccX,AccY,AccZ,s1_command,s2_command,s3_command,s4_command,kp_roll,ki_roll,kd_roll,kp_pitch,ki_pitch,kd_pitch,kp_yaw,ki_yaw,kd_yaw,failsafeTriggered,kp_alphaRoll,ki_alphaRoll,kd_alphaRoll,kp_betaPitch,ki_betaPitch,kd_betaPitch,ripIMU_roll,ripIMU_pitch,ripRoll_des,ripPitch_des
0.0000,0.0000,0.0000,1.0773,5.5404,0.0000,0.0000,0.0000,0.0000,0.0000,0.0000,0.0000,1000,1500,1500,1500,2000,1000,1000,1000,1500,1500,1500,1500,1500,0.0000,0.0000,0.0000,0.0000,0.0000,0.0000,0.0000,0.0000,0.0000,0.0000,0.2204,0.0300,0.0438,0.2204,0.0300,0.0438,0.3000,0.0600,0.0002,0,-0.3000,-100.0000,-0.0010,-0.3000,-100.0000,-0.0010,0.0000,0.0000,0.0000,0.0000
-7.0112,49.7195,-2.9896,0.3315,0.4104,-8.1000,-8.1000,-43.2000,0.0000,0.0406,-0.2549,-0.1302,973,1463,1460,1460,2008,1000,1505,1000,1000,1505,1502,1500,1505,-0.4379,0.0886,0.0966,-0.0172,-0.0038,0.4544,0.1653,0.3446,-0.4257,-0.0841,0.4408,0.1800,0.0876,0.4408,0.1800,0.0876,0.3000,0.0600,0.0002,0,-0.3000,-100.0000,-0.0010,-0.3000,-100.0000,-0.0010,14.2767,48.4394,-1.3500,-1.3500
-6.9856,49.2929,-2.8800,0.3315,0.4925,-0.4800,-0.7800,-4.1600,0.0000,0.0761,-0.2218,-0.0152,991,1492,1487,1487,2008,1000,1505,1000,1000,1505,1502,1500,1505,-2.4871,-0.0355,0.5177,-0.0318,-0.0129,0.9830,0.2827,0.1609,-0.3132,-0.1304,0.4430,0.1806,0.0876,0.4430,0.1806,0.0876,0.3000,0.0600,0.0002,0,-0.3000,-100.0000,-0.0010,-0.3000,-100.0000,-0.0010,14.5984,48.9216,-0.0800,-0.1300
-6.9982,49.2578,-2.8660,0.4144,0.4925,0.0000,-0.1800,-0.9600,0.0000,0.0783,-0.2190,-0.0052,996,1500,1497,1497,2008,1000,1505,1000,1000,1505,1502,1500,1505,-2.4623,-0.0600,0.3873,-0.0330,-0.0170,0.9992,0.2920,0.1459,-0.3025,-0.1354,0.4430,0.1806,0.0876,0.4430,0.1806,0.0876,0.3000,0.0600,0.0002,0,-0.3000,-100.0000,-0.0010,-0.3000,-100.0000,-0.0010,14.6387,48.9597,0.0000,-0.0300
-7.0109,49.2228,-2.8544,0.2486,0.4104,0.1200,0.0000,0.0000,0.0000,0.0787,-0.2180,-0.0021,996,1502,1500,1500,2008,1000,1505,1000,1000,1505,1502,1500,1505,-2.2369,-0.0120,0.3141,-0.0312,-0.0146,0.9995,0.2946,0.1415,-0.2989,-0.1372,0.4430,0.1806,0.0876,0.4430,0.1806,0.0876,0.3000,0.0600,0.0002,0,-0.3000,-100.0000,-0.0010,-0.3000,-100.0000,-0.0010,14.6796,48.9978,0.0200,0.0000
-7.0218,49.1883,-2.8437,0.3315,0.5746,0.1200,0.0000,0.0000,0.0000,0.0786,-0.2180,-0.0019,996,1502,1500,1500,2008,1000,1505,1000,1000,1505,1502,1500,1505,-2.0237,0.0823,0.2382,-0.0329,-0.0166,1.0090,0.2947,0.1413,-0.2984,-0.1375,0.4430,0.1806,0.0876,0.4430,0.1806,0.0876,0.3000,0.0600,0.0002,0,-0.3000,-100.0000,-0.0010,-0.3000,-100.0000,-0.0010,14.7207,49.0359,0.0200,0.0000
-7.0310,49.1540,-2.8337,0.1657,0.4104,0.1200,0.0000,0.0000,0.0000,0.0785,-0.2178,-0.0019,996,1502,1500,1500,2008,1000,1505,1000,1000,1505,1502,1500,1505,-1.9069,0.0222,0.2137,-0.0335,-0.0142,1.0095,0.2944,0.1411,-0.2981,-0.1374,0.4430,0.1806,0.0876,0.4430,0.1806,0.0876,0.3000,0.0600,0.0002,0,-0.3000,-100.0000,-0.0010,-0.3000,-100.0000,-0.0010,14.7617,49.0739,0.0200,0.0000
-7.0405,49.1188,-2.8242,0.3315,0.4925,0.1200,0.0000,0.0000,0.0000,0.0786,-0.2175,-0.0018,996,1502,1500,1500,2008,1000,1505,1000,1000,1505,1502,1500,1505,-1.9634,-0.1455,0.2206,-0.0356,-0.0139,1.0051,0.2942,0.1407,-0.2979,-0.1370,0.4430,0.1806,0.0876,0.4430,0.1806,0.0876,0.3000,0.0600,0.0002,0,-0.3000,-100.0000,-0.0010,-0.3000,-100.0000,-0.0010,14.8028,49.1120,0.0200,0.0000
-7.0496,49.0822,-2.8139,0.3315,0.5746,0.1800,0.0000,0.0000,0.0000,0.0789,-0.2172,-0.0030,996,1502,1500,1500,2008,1000,1505,1000,1000,1505,1502,1500,1505,-1.9374,-0.2596,0.2633,-0.0348,-0.0110,1.0061,0.2931,0.1413,-0.2991,-0.1353,0.4430,0.1806,0.0876,0.4430,0.1806,0.0876,0.3000,0.0600,0.0002,0,-0.3000,-100.0000,-0.0010,-0.3000,-100.0000,-0.0010,14.8439,49.1501,0.0300,0.0000
-7.0579,49.0438,-2.8023,0.4144,0.5746,0.1200,0.0000,0.0000,0.0000,0.0787,-0.2168,-0.0022,996,1502,1500,1500,2008,1000,1505,1000,1000,1505,1502,1500,1505,-1.9636,-0.4930,0.3222,-0.0361,-0.0133,1.0050,0.2933,0.1404,-0.2977,-0.1360,0.4430,0.1806,0.0876,0.4430,0.1806,0.0876,0.3000,0.0600,0.0002,0,-0.3000,-100.0000,-0.0010,-0.3000,-100.0000,-0.0010,14.8850,49.1881,0.0200,0.0000
-7.0665,49.0022,-2.7899,0.3315,0.4104,0.1200,0.0000,0.0000,0.0000,0.0788,-0.2164,-0.0022,996,1502,1500,1500,2008,1000,1505,1000,1000,1505,1502,1500,1505,-2.0752,-0.7663,0.3194,-0.0312,-0.0140,1.0035,0.2931,0.1398,-0.2974,-0.1354,0.4430,0.1806,0.0876,0.4430,0.1806,0.0876,0.3000,0.0600,0.0002,0,-0.3000,-100.0000,-0.0010,-0.3000,-100.0000,-0.0010,14.9261,49.2261,0.0200,0.0000
-7.0742,48.9595,-2.7763,0.3315,0.4925,0.1200,0.0000,0.0000,0.0000,0.0788,-0.2162,-0.0026,996,1502,1500,1500,2008,1000,1505,1000,1000,1505,1502,1500,1505,-2.0120,-0.7516,0.4362,-0.0342,-0.0147,1.0022,0.2925,0.1400,-0.2976,-0.1349,0.4430,0.1806,0.0876,0.4430,0.1806,0.0876,0.3000,0.0600,0.0002,0,-0.3000,-100.0000,-0.0010,-0.3000,-100.0000,-0.0010,14.9673,49.2641,0.0200,0.0000
-7.0806,48.9172,-2.7622,0.4144,0.4925,0.1200,0.0000,0.0000,0.0000,0.0787,-0.2161,-0.0023,996,1502,1500,1500,2008,1000,1505,1000,1000,1505,1502,1500,1505,-1.8705,-0.6399,0.3900,-0.0291,-0.0152,0.9996,0.2925,0.1398,-0.2972,-0.1351,0.4430,0.1806,0.0876,0.4430,0.1806,0.0876,0.3000,0.0600,0.0002,0,-0.3000,-100.0000,-0.0010,-0.3000,-100.0000,-0.0010,15.0084,49.3022,0.0200,0.0000
-7.0865,48.8758,-2.7493,0.3315,0.4925,0.1200,0.0000,0.0000,0.0000,0.0786,-0.2160,-0.0023,996,1502,1500,1500,2008,1000,1505,1000,1000,1505,1502,1500,1505,-1.7833,-0.6396,0.3627,-0.0281,-0.0201,1.0057,0.2923,0.1396,-0.2969,-0.1350,0.4430,0.1806,0.0876,0.4430,0.1806,0.0876,0.3000,0.0600,0.0002,0,-0.3000,-100.0000,-0.0010,-0.3000,-100.0000,-0.0010,15.0496,49.3402,0.0200,0.0000
-7.0910,48.8357,-2.7364,0.3315,0.5746,0.1800,0.0000,0.0000,0.0000,0.0788,-0.2160,-0.0031,996,1502,1500,1500,2008,1000,1505,1000,1000,1505,1502,1500,1505,-1.6545,-0.3796,0.3199,-0.0286,-0.0173,1.0071,0.2918,0.1403,-0.2979,-0.1341,0.4430,0.1806,0.0876,0.4430,0.1806,0.0876,0.3000,0.0600,0.0002,0,-0.3000,-100.0000,-0.0010,-0.3000,-100.0000,-0.0010,15.0908,49.3782,0.0300,0.0000
-7.0958,48.7984,-2.7261,0.3315,0.4925,0.1200,0.0000,0.0000,0.0000,0.0784,-0.2161,-0.0018,996,1502,1500,1500,2008,1000,1505,1000,1000,1505,1502,1500,1505,-1.4407,-0.1231,0.1893,-0.0308,-0.0181,1.0055,0.2927,0.1394,-0.2962,-0.1359,0.4430,0.1806,0.0876,0.4430,0.1806,0.0876,0.3000,0.0600,0.0002,0,-0.3000,-100.0000,-0.0010,-0.3000,-100.0000,-0.0010,15.1319,49.4162,0.0200,0.0000
-7.0993,48.7618,-2.7166,0.3315,0.4104,0.1200,0.0000,0.0000,0.0000,0.0782,-0.2159,-0.0020,996,1502,1500,1500,2008,1000,1505,1000,1000,1505,1502,1500,1505,-1.2335,-0.1745,0.2572,-0.0309,-0.0185,1.0051,0.2921,0.1396,-0.2961,-0.1357,0.4430,0.1806,0.0876,0.4430,0.1806,0.0876,0.3000,0.0600,0.0002,0,-0.3000,-100.0000,-0.0010,-0.3000,-100.0000,-0.0010,15.1731,49.4542,0.0200,0.0000
-7.1006,48.7249,-2.7072,0.2486,0.4104,0.1200,0.0000,0.0000,0.0000,0.0781,-0.2157,-0.0016,996,1502,1500,1500,2008,1000,1505,1000,1000,1505,1502,1500,1505,-1.0424,-0.1632,0.1323,-0.0332,-0.0152,0.9970,0.2922,0.1392,-0.2953,-0.1361,0.4430,0.1806,0.0876,0.4430,0.1806,0.0876,0.3000,0.0600,0.0002,0,-0.3000,-100.0000,-0.0010,-0.3000,-100.0000,-0.0010,15.2144,49.4922,0.0200,0.0000
-7.1015,48.6870,-2.6992,0.2486,0.4925,0.1200,0.0000,0.0000,0.0000,0.0780,-0.2154,-0.0015,996,1502,1500,1500,2008,1000,1505,1000,1000,1505,1502,1500,1505,-0.9768,-0.3349,0.1069,-0.0351,-0.0190,1.0012,0.2919,0.1389,-0.2949,-0.1359,0.4430,0.1806,0.0876,0.4430,0.1806,0.0876,0.3000,0.0600,0.0002,0,-0.3000,-100.0000,-0.0010,-0.3000,-100.0000,-0.0010,15.2556,49.5301,0.0200,0.0000
-7.1019,48.6466,-2.6912,0.2486,0.4104,0.1200,0.0000,0.0000,0.0000,0.0780,-0.2150,-0.0013,996,1502,1500,1500,2008,1000,1505,1000,1000,1505,1502,1500,1505,-0.9274,-0.5818,0.0430,-0.0328,-0.0163,1.0008,0.2916,0.1384,-0.2943,-0.1357,0.4430,0.1806,0.0876,0.4430,0.1806,0.0876,0.3000,0.0600,0.0002,0,-0.3000,-100.0000,-0.0010,-0.3000,-100.0000,-0.0010,15.2968,49.5680,0.0200,0.0000
-7.1026,48.6052,-2.6834,0.1657,0.4104,0.1800,0.0000,0.0000,0.0000,0.0782,-0.2148,-0.0023,996,1502,1500,1500,2008,1000,1505,1000,1000,1505,1502,1500,1505,-0.9271,-0.5418,0.0493,-0.0298,-0.0149,1.0012,0.2908,0.1389,-0.2954,-0.1343,0.4430,0.1806,0.0876,0.4430,0.1806,0.0876,0.3000,0.0600,0.0002,0,-0.3000,-100.0000,-0.0010,-0.3000,-100.0000,-0.0010,15.3380,49.6059,0.0300,0.0000
-7.1035,48.5653,-2.6758,0.2486,0.4104,0.1200,0.0000,0.0000,0.0000,0.0781,-0.2148,-0.0013,996,1502,1500,1500,2008,1000,1505,1000,1000,1505,1502,1500,1505,-1.0382,-0.4305,0.0461,-0.0323,-0.0180,1.0023,0.2915,0.1381,-0.2942,-0.1354,0.4430,0.1806,0.0876,0.4430,0.1806,0.0876,0.3000,0.0600,0.0002,0,-0.3000,-100.0000,-0.0010,-0.3000,-100.0000,-0.0010,15.3793,49.6438,0.0200,0.0000
-7.1058,48.5271,-2.6681,0.2486,0.4104,0.1200,0.0000,0.0000,0.0000,0.0782,-0.2148,-0.0013,996,1502,1500,1500,2008,1000,1505,1000,1000,1505,1502,1500,1505,-1.1811,-0.1795,0.0616,-0.0330,-0.0148,1.0080,0.2917,0.1380,-0.2944,-0.1353,0.4430,0.1806,0.0876,0.4430,0.1806,0.0876,0.3000,0.0600,0.0002,0,-0.3000,-100.0000,-0.0010,-0.3000,-100.0000,-0.0010,15.4206,49.6817,0.0200,0.0000
-7.1103,48.4908,-2.6610,0.0829,0.3283,0.1200,0.0000,0.0000,0.0000,0.0784,-0.2148,-0.0015,996,1502,1500,1500,2008,1000,1505,1000,1000,1505,1502,1500,1505,-1.3609,-0.0508,0.0804,-0.0312,-0.0158,1.0079,0.2917,0.1379,-0.2946,-0.1349,0.4430,0.1806,0.0876,0.4430,0.1806,0.0876,0.3000,0.0600,0.0002,0,-0.3000,-100.0000,-0.0010,-0.3000,-100.0000,-0.0010,15.4619,49.7197,0.0200,0.0000
-7.1157,48.4555,-2.6521,0.2486,0.4104,0.1200,0.0000,0.0000,0.0000,0.0785,-0.2147,-0.0020,996,1502,1500,1500,2008,1000,1505,1000,1000,1505,1502,1500,1505,-1.5359,0.0414,0.2607,-0.0315,-0.0154,1.0070,0.2913,0.1381,-0.2952,-0.1342,0.4430,0.1806,0.0876,0.4430,0.1806,0.0876,0.3000,0.0600,0.0002,0,-0.3000,-100.0000,-0.0010,-0.3000,-100.0000,-0.0010,15.5032,49.7576,0.0200,0.0000
-7.1216,48.4210,-2.6433,0.0829,0.2462,0.1200,0.0000,0.0000,0.0000,0.0785,-0.2146,-0.0017,996,1502,1500,1500,2008,1000,1505,1000,1000,1505,1502,1500,1505,-1.5021,0.0506,0.1657,-0.0312,-0.0186,1.0053,0.2914,0.1377,-0.2948,-0.1343,0.4430,0.1806,0.0876,0.4430,0.1806,0.0876,0.3000,0.0600,0.0002,0,-0.3000,-100.0000,-0.0010,-0.3000,-100.0000,-0.0010,15.5445,49.7955,0.0200,0.0000
-7.1279,48.3856,-2.6356,0.2486,0.3283,0.1800,0.0000,0.0000,0.0000,0.0788,-0.2143,-0.0025,996,1502,1500,1500,2008,1000,1505,1000,1000,1505,1502,1500,1505,-1.4045,-0.1067,0.0791,-0.0339,-0.0183,1.0091,0.2905,0.1380,-0.2955,-0.1330,0.4430,0.1806,0.0876,0.4430,0.1806,0.0876,0.3000,0.0600,0.0002,0,-0.3000,-100.0000,-0.0010,-0.3000,-100.0000,-0.0010,15.5858,49.8334,0.0300,0.0000
-7.1315,48.3494,-2.6275,0.1657,0.3283,0.1200,0.0000,0.0000,0.0000,0.0783,-0.2141,-0.0016,996,1502,1500,1500,2008,1000,1505,1000,1000,1505,1502,1500,1505,-1.1143,-0.0476,0.1109,-0.0305,-0.0234,1.0007,0.2908,0.1375,-0.2940,-0.1343,0.4430,0.1806,0.0876,0.4430,0.1806,0.0876,0.3000,0.0600,0.0002,0,-0.3000,-100.0000,-0.0010,-0.3000,-100.0000,-0.0010,15.6272,49.8712,0.0200,0.0000
-7.1316,48.3133,-2.6193,0.2486,0.4104,0.1200,0.0000,0.0000,0.0000,0.0779,-0.2140,-0.0018,996,1502,1500,1500,2008,1000,1505,1000,1000,1505,1502,1500,1505,-0.7042,-0.0838,0.1967,-0.0284,-0.0255,1.0065,0.2900,0.1379,-0.2937,-0.1342,0.4430,0.1806,0.0876,0.4430,0.1806,0.0876,0.3000,0.0600,0.0002,0,-0.3000,-100.0000,-0.0010,-0.3000,-100.0000,-0.0010,15.6686,49.9091,0.0200,0.0000
-7.1273,48.2775,-2.6126,0.3315,0.4104,0.1200,0.0000,0.0000,0.0000,0.0772,-0.2139,-0.0012,996,1502,1500,1500,2008,1000,1505,1000,1000,1505,1502,1500,1505,0.0187,0.0509,0.0158,-0.0300,-0.0273,1.0079,0.2899,0.1379,-0.2924,-0.1354,0.4430,0.1806,0.0876,0.4430,0.1806,0.0876,0.3000,0.0600,0.0002,0,-0.3000,-100.0000,-0.0010,-0.3000,-100.0000,-0.0010,15.7099,49.9469,0.0200,0.0000
-7.1167,48.2429,-2.6070,0.2486,0.3283,0.1200,0.0000,0.0000,0.0000,0.0767,-0.2138,-0.0010,996,1502,1500,1500,2008,1000,1505,1000,1000,1505,1502,1500,1505,0.5799,0.1443,-0.0568,-0.0316,-0.0280,1.0027,0.2895,0.1382,-0.2916,-0.1361,0.4430,0.1806,0.0876,0.4430,0.1806,0.0876,0.3000,0.0600,0.0002,0,-0.3000,-100.0000,-0.0010,-0.3000,-100.0000,-0.0010,15.7513,49.9848,0.0200,0.0000
-7.1005,48.2086,-2.6023,0.2486,0.3283,0.1200,0.0000,0.0000,0.0000,0.0761,-0.2137,-0.0011,996,1502,1500,1500,2008,1000,1505,1000,1000,1505,1502,1500,1505,1.1501,0.1508,-0.0148,-0.0312,-0.0236,1.0039,0.2887,0.1386,-0.2909,-0.1365,0.4430,0.1806,0.0876,0.4430,0.1806,0.0876,0.3000,0.0600,0.0002,0,-0.3000,-100.0000,-0.0010,-0.3000,-100.0000,-0.0010,15.7927,50.0226,0.0200,0.0000
-7.0793,48.1746,-2.5986,0.3315,0.3283,0.1800,0.0000,0.0000,0.0000,0.0759,-0.2135,-0.0018,996,1502,1500,1500,2008,1000,1505,1000,1000,1505,1502,1500,1505,1.6353,0.1409,-0.1361,-0.0356,-0.0200,1.0024,0.2876,0.1394,-0.2912,-0.1359,0.4430,0.1806,0.0876,0.4430,0.1806,0.0876,0.3000,0.0600,0.0002,0,-0.3000,-100.0000,-0.0010,-0.3000,-100.0000,-0.0010,15.8342,50.0604,0.0300,0.0000
-7.0561,48.1394,-2.5963,0.2486,0.4104,0.1200,0.0000,0.0000,0.0000,0.0754,-0.2132,-0.0005,996,1502,1500,1500,2008,1000,1505,1000,1000,1505,1502,1500,1505,1.8009,-0.0537,-0.2126,-0.0340,-0.0195,1.0054,0.2880,0.1384,-0.2891,-0.1373,0.4430,0.1806,0.0876,0.4430,0.1806,0.0876,0.3000,0.0600,0.0002,0,-0.3000,-100.0000,-0.0010,-0.3000,-100.0000,-0.0010,15.8756,50.0982,0.0200,0.0000
-7.0314,48.1032,-2.5938,0.2486,0.4104,0.1200,0.0000,0.0000,0.0000,0.0752,-0.2130,-0.0006,996,1502,1500,1500,2008,1000,1505,1000,1000,1505,1502,1500,1505,1.8437,-0.0766,-0.2073,-0.0316,-0.0183,1.0016,0.2876,0.1384,-0.2888,-0.1372,0.4430,0.1806,0.0876,0.4430,0.1806,0.0876,0.3000,0.0600,0.0002,0,-0.3000,-100.0000,-0.0010,-0.3000,-100.0000,-0.0010,15.9170,50.1361,0.0200,0.0000
-7.0074,48.0667,-2.5919,0.2486,0.4104,0.1200,0.0000,0.0000,0.0000,0.0752,-0.2130,-0.0003,996,1502,1500,1500,2008,1000,1505,1000,1000,1505,1502,1500,1505,1.6985,0.0325,-0.2886,-0.0299,-0.0145,1.0072,0.2879,0.1380,-0.2885,-0.1374,0.4430,0.1806,0.0876,0.4430,0.1806,0.0876,0.3000,0.0600,0.0002,0,-0.3000,-100.0000,-0.0010,-0.3000,-100.0000,-0.0010,15.9585,50.1739,0.0200,0.0000
-6.9861,48.0309,-2.5899,0.2486,0.3283,0.1200,0.0000,0.0000,0.0000,0.0754,-0.2127,-0.0005,996,1502,1500,1500,2008,1000,1505,1000,1000,1505,1502,1500,1505,1.4017,-0.0357,-0.2424,-0.0331,-0.0135,1.0070,0.2877,0.1378,-0.2886,-0.1369,0.4430,0.1806,0.0876,0.4430,0.1806,0.0876,0.3000,0.0600,0.0002,0,-0.3000,-100.0000,-0.0010,-0.3000,-100.0000,-0.0010,16.0000,50.2117,0.0200,0.0000
-6.9671,47.9954,-2.5871,0.3315,0.4104,0.1200,0.0000,0.0000,0.0000,0.0756,-0.2126,-0.0008,996,1502,1500,1500,2008,1000,1505,1000,1000,1505,1502,1500,1505,1.1181,0.0074,-0.1503,-0.0291,-0.0161,1.0048,0.2874,0.1378,-0.2889,-0.1363,0.4430,0.1806,0.0876,0.4430,0.1806,0.0876,0.3000,0.0600,0.0002,0,-0.3000,-100.0000,-0.0010,-0.3000,-100.0000,-0.0010,16.0415,50.2495,0.0200,0.0000
-6.9493,47.9593,-2.5822,0.2486,0.4104,0.1800,0.0000,0.0000,0.0000,0.0759,-0.2124,-0.0020,996,1502,1500,1500,2008,1000,1505,1000,1000,1505,1502,1500,1505,0.9095,-0.0779,-0.0336,-0.0346,-0.0118,1.0065,0.2863,0.1385,-0.2904,-0.1344,0.4430,0.1806,0.0876,0.4430,0.1806,0.0876,0.3000,0.0600,0.0002,0,-0.3000,-100.0000,-0.0010,-0.3000,-100.0000,-0.0010,16.0830,50.2873,0.0300,0.0000
-6.9329,47.9223,-2.5759,0.3315,0.4104,0.1200,0.0000,0.0000,0.0000,0.0757,-0.2121,-0.0011,996,1502,1500,1500,2008,1000,1505,1000,1000,1505,1502,1500,1505,0.7551,-0.1919,-0.0213,-0.0352,-0.0144,1.0034,0.2868,0.1375,-0.2889,-0.1353,0.4430,0.1806,0.0876,0.4430,0.1806,0.0876,0.3000,0.0600,0.0002,0,-0.3000,-100.0000,-0.0010,-0.3000,-100.0000,-0.0010,16.1246,50.3251,0.0200,0.0000
-6.9174,47.8840,-2.5691,0.3315,0.4104,0.1200,0.0000,0.0000,0.0000,0.0758,-0.2119,-0.0014,996,1502,1500,1500,2008,1000,1505,1000,1000,1505,1502,1500,1505,0.6117,-0.2943,0.0483,-0.0357,-0.0152,1.0064,0.2863,0.1374,-0.2890,-0.1347,0.4430,0.1806,0.0876,0.4430,0.1806,0.0876,0.3000,0.0600,0.0002,0,-0.3000,-100.0000,-0.0010,-0.3000,-100.0000,-0.0010,16.1661,50.3629,0.0200,0.0000
-6.9011,47.8447,-2.5613,0.3315,0.4104,0.1200,0.0000,0.0000,0.0000,0.0757,-0.2116,-0.0014,996,1502,1500,1500,2008,1000,1505,1000,1000,1505,1502,1500,1505,0.6836,-0.4241,0.0651,-0.0287,-0.0157,1.0062,0.2859,0.1373,-0.2886,-0.1345,0.4430,0.1806,0.0876,0.4430,0.1806,0.0876,0.3000,0.0600,0.0002,0,-0.3000,-100.0000,-0.0010,-0.3000,-100.0000,-0.0010,16.2077,50.4007,0.0200,0.0000
-6.8844,47.8045,-2.5530,0.2486,0.3283,0.1200,0.0000,0.0000,0.0000,0.0755,-0.2114,-0.0014,996,1502,1500,1500,2008,1000,1505,1000,1000,1505,1502,1500,1505,0.7208,-0.4323,0.0792,-0.0313,-0.0189,0.9998,0.2855,0.1373,-0.2884,-0.1344,0.4430,0.1806,0.0876,0.4430,0.1806,0.0876,0.3000,0.0600,0.0002,0,-0.3000,-100.0000,-0.0010,-0.3000,-100.0000,-0.0010,16.2493,50.4384,0.0200,0.0000
-6.8680,47.7636,-2.5454,0.2486,0.4104,0.1200,0.0000,0.0000,0.0000,0.0754,-0.2111,-0.0016,996,1502,1500,1500,2008,1000,1505,1000,1000,1505,1502,1500,1505,0.7540,-0.5431,0.1070,-0.0324,-0.0188,1.0026,0.2850,0.1373,-0.2881,-0.1341,0.4430,0.1806,0.0876,0.4430,0.1806,0.0876,0.3000,0.0600,0.0002,0,-0.3000,-100.0000,-0.0010,-0.3000,-100.0000,-0.0010,16.2909,50.4762,0.0200,0.0000
-6.8512,47.7228,-2.5382,0.1657,0.2462,0.1800,0.0000,0.0000,0.0000,0.0756,-0.2110,-0.0020,996,1502,1500,1500,2008,1000,1505,1000,1000,1505,1502,1500,1505,0.8142,-0.4153,-0.0344,-0.0293,-0.0154,1.0040,0.2846,0.1375,-0.2887,-0.1334,0.4430,0.1806,0.0876,0.4430,0.1806,0.0876,0.3000,0.0600,0.0002,0,-0.3000,-100.0000,-0.0010,-0.3000,-100.0000,-0.0010,16.3325,50.5140,0.0300,0.0000
-6.8362,47.6827,-2.5332,0.2486,0.4925,0.1200,0.0000,0.0000,0.0000,0.0753,-0.2109,-0.0010,996,1502,1500,1500,2008,1000,1505,1000,1000,1505,1502,1500,1505,0.7188,-0.3998,-0.0595,-0.0313,-0.0150,1.0068,0.2852,0.1366,-0.2873,-0.1345,0.4430,0.1806,0.0876,0.4430,0.1806,0.0876,0.3000,0.0600,0.0002,0,-0.3000,-100.0000,-0.0010,-0.3000,-100.0000,-0.0010,16.3741,50.5517,0.0200,0.0000
-6.8223,47.6428,-2.5284,0.1657,0.2462,0.1200,0.0000,0.0000,0.0000,0.0754,-0.2107,-0.0007,996,1502,1500,1500,2008,1000,1505,1000,1000,1505,1502,1500,1505,0.5782,-0.4063,-0.1567,-0.0311,-0.0151,1.0073,0.2854,0.1360,-0.2868,-0.1346,0.4430,0.1806,0.0876,0.4430,0.1806,0.0876,0.3000,0.0600,0.0002,0,-0.3000,-100.0000,-0.0010,-0.3000,-100.0000,-0.0010,16.4157,50.5893,0.0200,0.0000
-6.8103,47.6032,-2.5244,0.2486,0.4104,0.1200,0.0000,0.0000,0.0000,0.0755,-0.2105,-0.0008,996,1502,1500,1500,2008,1000,1505,1000,1000,1505,1502,1500,1505,0.4077,-0.4330,-0.1361,-0.0335,-0.0124,1.0013,0.2852,0.1358,-0.2868,-0.1342,0.4430,0.1806,0.0876,0.4430,0.1806,0.0876,0.3000,0.0600,0.0002,0,-0.3000,-100.0000,-0.0010,-0.3000,-100.0000,-0.0010,16.4573,50.6269,0.0200,0.0000
-6.7990,47.5630,-2.5195,0.1657,0.3283,0.1200,0.0000,0.0000,0.0000,0.0756,-0.2104,-0.0010,996,1502,1500,1500,2008,1000,1505,1000,1000,1505,1502,1500,1505,0.2840,-0.3856,-0.0802,-0.0312,-0.0102,1.0045,0.2849,0.1358,-0.2869,-0.1338,0.4430,0.1806,0.0876,0.4430,0.1806,0.0876,0.3000,0.0600,0.0002,0,-0.3000,-100.0000,-0.0010,-0.3000,-100.0000,-0.0010,16.4989,50.6645,0.0200,0.0000
-6.7884,47.5236,-2.5132,0.2486,0.3283,0.1200,0.0000,0.0000,0.0000,0.0756,-0.2102,-0.0015,996,1502,1500,1500,2008,1000,1505,1000,1000,1505,1502,1500,1505,0.1735,-0.3935,0.0854,-0.0301,-0.0130,1.0041,0.2843,0.1361,-0.2873,-0.1331,0.4430,0.1806,0.0876,0.4430,0.1806,0.0876,0.3000,0.0600,0.0002,0,-0.3000,-100.0000,-0.0010,-0.3000,-100.0000,-0.0010,16.5406,50.7021,0.0200,0.0000
-6.7771,47.4833,-2.5052,0.1657,0.3283,0.1800,0.0000,0.0000,0.0000,0.0758,-0.2100,-0.0026,996,1502,1500,1500,2008,1000,1505,1000,1000,1505,1502,1500,1505,0.2047,-0.3638,0.1410,-0.0284,-0.0145,1.0030,0.2832,0.1369,-0.2885,-0.1316,0.4430,0.1806,0.0876,0.4430,0.1806,0.0876,0.3000,0.0600,0.0002,0,-0.3000,-100.0000,-0.0010,-0.3000,-100.0000,-0.0010,16.5822,50.7397,0.0300,0.0000
-6.7646,47.4436,-2.4961,0.2486,0.3283,0.1200,0.0000,0.0000,0.0000,0.0754,-0.2098,-0.0018,996,1502,1500,1500,2008,1000,1505,1000,1000,1505,1502,1500,1505,0.2300,-0.4021,0.1871,-0.0328,-0.0167,1.0034,0.2835,0.1362,-0.2871,-0.1326,0.4430,0.1806,0.0876,0.4430,0.1806,0.0876,0.3000,0.0600,0.0002,0,-0.3000,-100.0000,-0.0010,-0.3000,-100.0000,-0.0010,16.6239,50.7772,0.0200,0.0000
-6.7517,47.4040,-2.4867,0.2486,0.3283,0.1200,0.0000,0.0000,0.0000,0.0753,-0.2097,-0.0016,996,1502,1500,1500,2008,1000,1505,1000,1000,1505,1502,1500,1505,0.3236,-0.3484,0.1524,-0.0297,-0.0174,1.0056,0.2834,0.1360,-0.2866,-0.1328,0.4430,0.1806,0.0876,0.4430,0.1806,0.0876,0.3000,0.0600,0.0002,0,-0.3000,-100.0000,-0.0010,-0.3000,-100.0000,-0.0010,16.6656,50.8148,0.0200,0.0000
-6.7374,47.3647,-2.4784,0.2486,0.3283,0.1200,0.0000,0.0000,0.0000,0.0751,-0.2095,-0.0017,996,1502,1500,1500,2008,1000,1505,1000,1000,1505,1502,1500,1505,0.4973,-0.3539,0.1445,-0.0301,-0.0175,1.0081,0.2829,0.1361,-0.2863,-0.1327,0.4430,0.1806,0.0876,0.4430,0.1806,0.0876,0.3000,0.0600,0.0002,0,-0.3000,-100.0000,-0.0010,-0.3000,-100.0000,-0.0010,16.7073,50.8524,0.0200,0.0000
-6.7232,47.3256,-2.4709,0.1657,0.3283,0.1200,0.0000,0.0000,0.0000,0.0750,-0.2094,-0.0012,996,1502,1500,1500,2008,1000,1505,1000,1000,1505,1502,1500,1505,0.5207,-0.2806,0.0196,-0.0310,-0.0159,1.0050,0.2832,0.1356,-0.2856,-0.1332,0.4430,0.1806,0.0876,0.4430,0.1806,0.0876,0.3000,0.0600,0.0002,0,-0.3000,-100.0000,-0.0010,-0.3000,-100.0000,-0.0010,16.7490,50.8900,0.0200,0.0000
-6.7096,47.2866,-2.4654,0.2486,0.3283,0.1200,0.0000,0.0000,0.0000,0.0749,-0.2092,-0.0010,996,1502,1500,1500,2008,1000,1505,1000,1000,1505,1502,1500,1505,0.5870,-0.3103,-0.0832,-0.0311,-0.0145,1.0026,0.2831,0.1353,-0.2851,-0.1333,0.4430,0.1806,0.0876,0.4430,0.1806,0.0876,0.3000,0.0600,0.0002,0,-0.3000,-100.0000,-0.0010,-0.3000,-100.0000,-0.0010,16.7908,50.9276,0.0200,0.0000
-6.6970,47.2481,-2.4613,0.2486,0.4104,0.1800,0.0000,0.0000,0.0000,0.0752,-0.2091,-0.0017,996,1502,1500,1500,2008,1000,1505,1000,1000,1505,1502,1500,1505,0.4722,-0.2970,-0.1596,-0.0301,-0.0132,1.0032,0.2826,0.1355,-0.2859,-0.1322,0.4430,0.1806,0.0876,0.4430,0.1806,0.0876,0.3000,0.0600,0.0002,0,-0.3000,-100.0000,-0.0010,-0.3000,-100.0000,-0.0010,16.8326,50.9652,0.0300,0.0000
-6.6866,47.2096,-2.4574,0.2486,0.3283,0.1200,0.0000,0.0000,0.0000,0.0750,-0.2089,-0.0006,996,1502,1500,1500,2008,1000,1505,1000,1000,1505,1502,1500,1505,0.2928,-0.2274,-0.1810,-0.0316,-0.0135,1.0015,0.2834,0.1345,-0.2846,-0.1333,0.4430,0.1806,0.0876,0.4430,0.1806,0.0876,0.3000,0.0600,0.0002,0,-0.3000,-100.0000,-0.0010,-0.3000,-100.0000,-0.0010,16.8743,51.0027,0.0200,0.0000
-6.6790,47.1717,-2.4542,0.3315,0.3283,0.1200,0.0000,0.0000,0.0000,0.0753,-0.2088,-0.0009,996,1502,1500,1500,2008,1000,1505,1000,1000,1505,1502,1500,1505,-0.0035,-0.1606,-0.1096,-0.0302,-0.0093,1.0093,0.2832,0.1345,-0.2850,-0.1326,0.4430,0.1806,0.0876,0.4430,0.1806,0.0876,0.3000,0.0600,0.0002,0,-0.3000,-100.0000,-0.0010,-0.3000,-100.0000,-0.0010,16.9162,51.0403,0.0200,0.0000
-6.6736,47.1339,-2.4495,0.1657,0.2462,0.1200,0.0000,0.0000,0.0000,0.0755,-0.2087,-0.0012,996,1502,1500,1500,2008,1000,1505,1000,1000,1505,1502,1500,1505,-0.3069,-0.1741,-0.0035,-0.0341,-0.0076,1.0056,0.2830,0.1344,-0.2854,-0.1319,0.4430,0.1806,0.0876,0.4430,0.1806,0.0876,0.3000,0.0600,0.0002,0,-0.3000,-100.0000,-0.0010,-0.3000,-100.0000,-0.0010,16.9580,51.0779,0.0200,0.0000
-6.6697,47.0967,-2.4426,0.2486,0.3283,0.1200,0.0000,0.0000,0.0000,0.0758,-0.2085,-0.0017,996,1502,1500,1500,2008,1000,1505,1000,1000,1505,1502,1500,1505,-0.6113,-0.1193,0.1684,-0.0314,-0.0097,1.0034,0.2826,0.1345,-0.2860,-0.1310,0.4430,0.1806,0.0876,0.4430,0.1806,0.0876,0.3000,0.0600,0.0002,0,-0.3000,-100.0000,-0.0010,-0.3000,-100.0000,-0.0010,16.9998,51.1154,0.0200,0.0000
-6.6673,47.0600,-2.4333,0.2486,0.3283,0.1200,0.0000,0.0000,0.0000,0.0760,-0.2083,-0.0019,996,1502,1500,1500,2008,1000,1505,1000,1000,1505,1502,1500,1505,-0.9401,-0.1666,0.2504,-0.0307,-0.0069,1.0042,0.2824,0.1342,-0.2863,-0.1303,0.4430,0.1806,0.0876,0.4430,0.1806,0.0876,0.3000,0.0600,0.0002,0,-0.3000,-100.0000,-0.0010,-0.3000,-100.0000,-0.0010,17.0417,51.1530,0.0200,0.0000
-6.6671,47.0224,-2.4222,0.2486,0.2462,0.1800,0.0000,0.0000,0.0000,0.0766,-0.2081,-0.0034,996,1502,1500,1500,2008,1000,1505,1000,1000,1505,1502,1500,1505,-1.2476,-0.1955,0.4093,-0.0311,-0.0087,1.0038,0.2813,0.1350,-0.2882,-0.1281,0.4430,0.1806,0.0876,0.4430,0.1806,0.0876,0.3000,0.0600,0.0002,0,-0.3000,-100.0000,-0.0010,-0.3000,-100.0000,-0.0010,17.0835,51.1905,0.0300,0.0000
-6.6683,46.9853,-2.4099,0.1657,0.2462,0.1200,0.0000,0.0000,0.0000,0.0764,-0.2080,-0.0023,996,1502,1500,1500,2008,1000,1505,1000,1000,1505,1502,1500,1505,-1.3060,-0.1697,0.3418,-0.0342,-0.0140,1.0043,0.2821,0.1339,-0.2866,-0.1294,0.4430,0.1806,0.0876,0.4430,0.1806,0.0876,0.3000,0.0600,0.0002,0,-0.3000,-100.0000,-0.0010,-0.3000,-100.0000,-0.0010,17.1254,51.2280,0.0200,0.0000
-6.6706,46.9479,-2.3994,0.1657,0.3283,0.1200,0.0000,0.0000,0.0000,0.0763,-0.2079,-0.0021,996,1502,1500,1500,2008,1000,1505,1000,1000,1505,1502,1500,1505,-1.2332,-0.1085,0.2877,-0.0298,-0.0167,1.0058,0.2821,0.1337,-0.2863,-0.1295,0.4430,0.1806,0.0876,0.4430,0.1806,0.0876,0.3000,0.0600,0.0002,0,-0.3000,-100.0000,-0.0010,-0.3000,-100.0000,-0.0010,17.1673,51.2656,0.0200,0.0000
-6.6711,46.9116,-2.3899,0.0829,0.2462,0.1200,0.0000,0.0000,0.0000,0.0760,-0.2078,-0.0021,996,1502,1500,1500,2008,1000,1505,1000,1000,1505,1502,1500,1505,-0.8383,-0.0305,0.2786,-0.0286,-0.0231,1.0024,0.2817,0.1339,-0.2858,-0.1298,0.4430,0.1806,0.0876,0.4430,0.1806,0.0876,0.3000,0.0600,0.0002,0,-0.3000,-100.0000,-0.0010,-0.3000,-100.0000,-0.0010,17.2092,51.3030,0.0200,0.0000
-6.6665,46.8760,-2.3811,0.2486,0.2462,0.1200,0.0000,0.0000,0.0000,0.0753,-0.2077,-0.0018,996,1502,1500,1500,2008,1000,1505,1000,1000,1505,1502,1500,1505,-0.1431,-0.0024,0.2112,-0.0334,-0.0218,1.0054,0.2812,0.1341,-0.2848,-0.1305,0.4430,0.1806,0.0876,0.4430,0.1806,0.0876,0.3000,0.0600,0.0002,0,-0.3000,-100.0000,-0.0010,-0.3000,-100.0000,-0.0010,17.2511,51.3405,0.0200,0.0000
-6.6546,46.8402,-2.3741,0.1657,0.2462,0.1200,0.0000,0.0000,0.0000,0.0745,-0.2076,-0.0015,996,1502,1500,1500,2008,1000,1505,1000,1000,1505,1502,1500,1505,0.8102,0.0755,0.0999,-0.0331,-0.0253,1.0039,0.2805,0.1347,-0.2836,-0.1316,0.4430,0.1806,0.0876,0.4430,0.1806,0.0876,0.3000,0.0600,0.0002,0,-0.3000,-100.0000,-0.0010,-0.3000,-100.0000,-0.0010,17.2930,51.3780,0.0200,0.0000
-6.6344,46.8050,-2.3699,0.2486,0.3283,0.1800,0.0000,0.0000,0.0000,0.0738,-0.2074,-0.0016,996,1502,1500,1500,2008,1000,1505,1000,1000,1505,1502,1500,1505,1.8096,0.0923,-0.1847,-0.0320,-0.0261,1.0040,0.2796,0.1353,-0.2828,-0.1321,0.4430,0.1806,0.0876,0.4430,0.1806,0.0876,0.3000,0.0600,0.0002,0,-0.3000,-100.0000,-0.0010,-0.3000,-100.0000,-0.0010,17.3349,51.4155,0.0300,0.0000
-6.6065,46.7701,-2.3686,0.2486,0.2462,0.1200,0.0000,0.0000,0.0000,0.0726,-0.2073,-0.0004,996,1502,1500,1500,2008,1000,1505,1000,1000,1505,1502,1500,1505,2.6936,0.1002,-0.2475,-0.0292,-0.0271,1.0009,0.2794,0.1351,-0.2803,-0.1343,0.4430,0.1806,0.0876,0.4430,0.1806,0.0876,0.3000,0.0600,0.0002,0,-0.3000,-100.0000,-0.0010,-0.3000,-100.0000,-0.0010,17.3769,51.4529,0.0200,0.0000
-6.5717,46.7355,-2.3700,0.2486,0.3283,0.1200,0.0000,0.0000,0.0000,0.0718,-0.2072,0.0001,996,1502,1500,1500,2008,1000,1505,1000,1000,1505,1502,1500,1505,3.4424,0.2134,-0.4319,-0.0294,-0.0244,1.0037,0.2791,0.1354,-0.2789,-0.1355,0.4430,0.1806,0.0876,0.4430,0.1806,0.0876,0.3000,0.0600,0.0002,0,-0.3000,-100.0000,-0.0010,-0.3000,-100.0000,-0.0010,17.4189,51.4904,0.0200,0.0000
-6.5323,46.7021,-2.3736,0.2486,0.3283,0.1200,0.0000,0.0000,0.0000,0.0712,-0.2072,0.0005,996,1502,1500,1500,2008,1000,1505,1000,1000,1505,1502,1500,1505,3.8805,0.3727,-0.5392,-0.0300,-0.0169,1.0037,0.2789,0.1355,-0.2780,-0.1364,0.4430,0.1806,0.0876,0.4430,0.1806,0.0876,0.3000,0.0600,0.0002,0,-0.3000,-100.0000,-0.0010,-0.3000,-100.0000,-0.0010,17.4609,51.5278,0.0200,0.0000
-6.4914,46.6696,-2.3781,0.2486,0.4104,0.1200,0.0000,0.0000,0.0000,0.0711,-0.2071,0.0007,996,1502,1500,1500,2008,1000,1505,1000,1000,1505,1502,1500,1505,3.7753,0.4362,-0.6369,-0.0317,-0.0109,1.0056,0.2790,0.1353,-0.2776,-0.1367,0.4430,0.1806,0.0876,0.4430,0.1806,0.0876,0.3000,0.0600,0.0002,0,-0.3000,-100.0000,-0.0010,-0.3000,-100.0000,-0.0010,17.5029,51.5653,0.0200,0.0000
-6.4535,46.6373,-2.3838,0.2486,0.3283,0.1200,0.0000,0.0000,0.0000,0.0712,-0.2071,0.0010,996,1502,1500,1500,2008,1000,1505,1000,1000,1505,1502,1500,1505,3.4494,0.5151,-0.7302,-0.0295,-0.0062,1.0084,0.2793,0.1348,-0.2773,-0.1368,0.4430,0.1806,0.0876,0.4430,0.1806,0.0876,0.3000,0.0600,0.0002,0,-0.3000,-100.0000,-0.0010,-0.3000,-100.0000,-0.0010,17.5449,51.6028,0.0200,0.0000
-6.4203,46.6052,-2.3889,0.2486,0.2462,0.1800,0.0000,0.0000,0.0000,0.0719,-0.2068,-0.0004,996,1502,1500,1500,2008,1000,1505,1000,1000,1505,1502,1500,1505,2.8423,0.4062,-0.5889,-0.0326,-0.0001,1.0040,0.2783,0.1353,-0.2791,-0.1345,0.4430,0.1806,0.0876,0.4430,0.1806,0.0876,0.3000,0.0600,0.0002,0,-0.3000,-100.0000,-0.0010,-0.3000,-100.0000,-0.0010,17.5869,51.6402,0.0300,0.0000
-6.3928,46.5732,-2.3906,0.1657,0.2462,0.1200,0.0000,0.0000,0.0000,0.0722,-0.2067,-0.0000,996,1502,1500,1500,2008,1000,1505,1000,1000,1505,1502,1500,1505,2.0079,0.4682,-0.3636,-0.0302,-0.0017,1.0080,0.2789,0.1345,-0.2790,-0.1345,0.4430,0.1806,0.0876,0.4430,0.1806,0.0876,0.3000,0.0600,0.0002,0,-0.3000,-100.0000,-0.0010,-0.3000,-100.0000,-0.0010,17.6290,51.6776,0.0200,0.0000
-6.3711,46.5405,-2.3902,0.1657,0.3283,0.1200,0.0000,0.0000,0.0000,0.0727,-0.2065,-0.0004,996,1502,1500,1500,2008,1000,1505,1000,1000,1505,1502,1500,1505,1.3489,0.3487,-0.2477,-0.0332,-0.0013,1.0023,0.2788,0.1342,-0.2796,-0.1333,0.4430,0.1806,0.0876,0.4430,0.1806,0.0876,0.3000,0.0600,0.0002,0,-0.3000,-100.0000,-0.0010,-0.3000,-100.0000,-0.0010,17.6710,51.7150,0.0200,0.0000
-6.3528,46.5067,-2.3852,0.2486,0.4104,0.1200,0.0000,0.0000,0.0000,0.0732,-0.2062,-0.0017,996,1502,1500,1500,2008,1000,1505,1000,1000,1505,1502,1500,1505,0.7321,0.2064,0.1454,-0.0299,-0.0040,1.0002,0.2777,0.1347,-0.2810,-0.1314,0.4430,0.1806,0.0876,0.4430,0.1806,0.0876,0.3000,0.0600,0.0002,0,-0.3000,-100.0000,-0.0010,-0.3000,-100.0000,-0.0010,17.7131,51.7523,0.0200,0.0000
-6.3369,46.4729,-2.3762,0.1657,0.3283,0.1200,0.0000,0.0000,0.0000,0.0734,-0.2060,-0.0021,996,1502,1500,1500,2008,1000,1505,1000,1000,1505,1502,1500,1505,0.3904,0.1476,0.2927,-0.0331,-0.0067,1.0069,0.2773,0.1347,-0.2816,-0.1305,0.4430,0.1806,0.0876,0.4430,0.1806,0.0876,0.3000,0.0600,0.0002,0,-0.3000,-100.0000,-0.0010,-0.3000,-100.0000,-0.0010,17.7552,51.7897,0.0200,0.0000
-6.3226,46.4384,-2.3656,0.2486,0.3283,0.1200,0.0000,0.0000,0.0000,0.0735,-0.2058,-0.0024,996,1502,1500,1500,2008,1000,1505,1000,1000,1505,1502,1500,1505,0.2232,0.0653,0.4005,-0.0301,-0.0107,1.0052,0.2769,0.1347,-0.2816,-0.1299,0.4430,0.1806,0.0876,0.4430,0.1806,0.0876,0.3000,0.0600,0.0002,0,-0.3000,-100.0000,-0.0010,-0.3000,-100.0000,-0.0010,17.7973,51.8271,0.0200,0.0000
-6.3090,46.4037,-2.3554,0.2486,0.3283,0.1800,0.0000,0.0000,0.0000,0.0736,-0.2057,-0.0030,996,1502,1500,1500,2008,1000,1505,1000,1000,1505,1502,1500,1505,0.3101,0.1135,0.2972,-0.0298,-0.0174,1.0046,0.2763,0.1351,-0.2823,-0.1290,0.4430,0.1806,0.0876,0.4430,0.1806,0.0876,0.3000,0.0600,0.0002,0,-0.3000,-100.0000,-0.0010,-0.3000,-100.0000,-0.0010,17.8394,51.8645,0.0300,0.0000
-6.2945,46.3689,-2.3467,0.2486,0.4104,0.1200,0.0000,0.0000,0.0000,0.0730,-0.2055,-0.0018,996,1502,1500,1500,2008,1000,1505,1000,1000,1505,1502,1500,1505,0.6647,0.1080,0.1944,-0.0342,-0.0169,1.0078,0.2767,0.1343,-0.2803,-0.1308,0.4430,0.1806,0.0876,0.4430,0.1806,0.0876,0.3000,0.0600,0.0002,0,-0.3000,-100.0000,-0.0010,-0.3000,-100.0000,-0.0010,17.8815,51.9018,0.0200,0.0000
-6.2771,46.3335,-2.3404,0.2486,0.4104,0.1200,0.0000,0.0000,0.0000,0.0724,-0.2053,-0.0011,996,1502,1500,1500,2008,1000,1505,1000,1000,1505,1502,1500,1505,1.2185,0.0256,-0.0354,-0.0304,-0.0202,1.0071,0.2766,0.1339,-0.2788,-0.1318,0.4430,0.1806,0.0876,0.4430,0.1806,0.0876,0.3000,0.0600,0.0002,0,-0.3000,-100.0000,-0.0010,-0.3000,-100.0000,-0.0010,17.9237,51.9392,0.0200,0.0000
-6.2557,46.2968,-2.3371,0.2486,0.4104,0.1200,0.0000,0.0000,0.0000,0.0718,-0.2051,-0.0006,996,1502,1500,1500,2008,1000,1505,1000,1000,1505,1502,1500,1505,1.7753,-0.0185,-0.1877,-0.0320,-0.0180,1.0005,0.2763,0.1339,-0.2775,-0.1326,0.4430,0.1806,0.0876,0.4430,0.1806,0.0876,0.3000,0.0600,0.0002,0,-0.3000,-100.0000,-0.0010,-0.3000,-100.0000,-0.0010,17.9658,51.9766,0.0200,0.0000
-6.2294,46.2605,-2.3364,0.2486,0.3283,0.1200,0.0000,0.0000,0.0000,0.0711,-0.2050,-0.0003,996,1502,1500,1500,2008,1000,1505,1000,1000,1505,1502,1500,1505,2.5045,0.0569,-0.3016,-0.0338,-0.0170,1.0011,0.2758,0.1342,-0.2764,-0.1336,0.4430,0.1806,0.0876,0.4430,0.1806,0.0876,0.3000,0.0600,0.0002,0,-0.3000,-100.0000,-0.0010,-0.3000,-100.0000,-0.0010,18.0080,52.0139,0.0200,0.0000
-6.1964,46.2246,-2.3374,0.3315,0.4104,0.1200,0.0000,0.0000,0.0000,0.0703,-0.2049,0.0001,996,1502,1500,1500,2008,1000,1505,1000,1000,1505,1502,1500,1505,3.2590,0.1087,-0.4195,-0.0327,-0.0181,1.0023,0.2752,0.1345,-0.2751,-0.1347,0.4430,0.1806,0.0876,0.4430,0.1806,0.0876,0.3000,0.0600,0.0002,0,-0.3000,-100.0000,-0.0010,-0.3000,-100.0000,-0.0010,18.0502,52.0512,0.0200,0.0000
-6.1561,46.1891,-2.3391,0.1657,0.3283,0.1800,0.0000,0.0000,0.0000,0.0698,-0.2047,-0.0008,996,1502,1500,1500,2008,1000,1505,1000,1000,1505,1502,1500,1505,3.9374,0.0865,-0.4469,-0.0302,-0.0147,1.0063,0.2736,0.1357,-0.2753,-0.1341,0.4430,0.1806,0.0876,0.4430,0.1806,0.0876,0.3000,0.0600,0.0002,0,-0.3000,-100.0000,-0.0010,-0.3000,-100.0000,-0.0010,18.0925,52.0885,0.0300,0.0000
-6.1105,46.1542,-2.3413,0.3315,0.4104,0.1200,0.0000,0.0000,0.0000,0.0689,-0.2047,0.0006,996,1502,1500,1500,2008,1000,1505,1000,1000,1505,1502,1500,1505,4.4032,0.3093,-0.5797,-0.0311,-0.0094,1.0049,0.2743,0.1352,-0.2730,-0.1365,0.4430,0.1806,0.0876,0.4430,0.1806,0.0876,0.3000,0.0600,0.0002,0,-0.3000,-100.0000,-0.0010,-0.3000,-100.0000,-0.0010,18.1347,52.1258,0.0200,0.0000
-6.0634,46.1207,-2.3454,0.3315,0.4104,0.1200,0.0000,0.0000,0.0000,0.0687,-0.2046,0.0008,996,1502,1500,1500,2008,1000,1505,1000,1000,1505,1502,1500,1505,4.4380,0.3271,-0.6427,-0.0327,-0.0081,1.0044,0.2740,0.1352,-0.2725,-0.1367,0.4430,0.1806,0.0876,0.4430,0.1806,0.0876,0.3000,0.0600,0.0002,0,-0.3000,-100.0000,-0.0010,-0.3000,-100.0000,-0.0010,18.1770,52.1631,0.0200,0.0000
-6.0162,46.0874,-2.3490,0.3315,0.4104,0.1200,0.0000,0.0000,0.0000,0.0686,-0.2045,0.0002,996,1502,1500,1500,2008,1000,1505,1000,1000,1505,1502,1500,1505,4.3024,0.3426,-0.4629,-0.0338,-0.0041,1.0046,0.2733,0.1357,-0.2728,-0.1361,0.4430,0.1806,0.0876,0.4430,0.1806,0.0876,0.3000,0.0600,0.0002,0,-0.3000,-100.0000,-0.0010,-0.3000,-100.0000,-0.0010,18.2192,52.2004,0.0200,0.0000
-5.9714,46.0533,-2.3513,0.3315,0.4104,0.1200,0.0000,0.0000,0.0000,0.0688,-0.2041,0.0003,996,1502,1500,1500,2008,1000,1505,1000,1000,1505,1502,1500,1505,3.8172,0.1412,-0.4927,-0.0344,0.0015,1.0041,0.2732,0.1351,-0.2727,-0.1356,0.4430,0.1806,0.0876,0.4430,0.1806,0.0876,0.3000,0.0600,0.0002,0,-0.3000,-100.0000,-0.0010,-0.3000,-100.0000,-0.0010,18.2615,52.2377,0.0200,0.0000
-5.9326,46.0167,-2.3527,0.3315,0.4104,0.1200,0.0000,0.0000,0.0000,0.0693,-0.2038,0.0001,996,1502,1500,1500,2008,1000,1505,1000,1000,1505,1502,1500,1505,3.0584,-0.0664,-0.4210,-0.0325,0.0013,1.0030,0.2731,0.1345,-0.2730,-0.1346,0.4430,0.1806,0.0876,0.4430,0.1806,0.0876,0.3000,0.0600,0.0002,0,-0.3000,-100.0000,-0.0010,-0.3000,-100.0000,-0.0010,18.3038,52.2749,0.0200,0.0000
-5.9010,45.9783,-2.3519,0.2486,0.4104,0.1800,0.0000,0.0000,0.0000,0.0701,-0.2035,-0.0015,996,1502,1500,1500,2008,1000,1505,1000,1000,1505,1502,1500,1505,2.2788,-0.2405,-0.2310,-0.0339,0.0049,1.0040,0.2721,0.1349,-0.2751,-0.1319,0.4430,0.1806,0.0876,0.4430,0.1806,0.0876,0.3000,0.0600,0.0002,0,-0.3000,-100.0000,-0.0010,-0.3000,-100.0000,-0.0010,18.3461,52.3121,0.0300,0.0000
-5.8744,45.9381,-2.3470,0.1657,0.4104,0.1200,0.0000,0.0000,0.0000,0.0705,-0.2031,-0.0011,996,1502,1500,1500,2008,1000,1505,1000,1000,1505,1502,1500,1505,1.3961,-0.4665,-0.0249,-0.0314,0.0057,1.0007,0.2725,0.1337,-0.2747,-0.1315,0.4430,0.1806,0.0876,0.4430,0.1806,0.0876,0.3000,0.0600,0.0002,0,-0.3000,-100.0000,-0.0010,-0.3000,-100.0000,-0.0010,18.3884,52.3493,0.0200,0.0000
-5.8540,45.8970,-2.3388,0.2486,0.4104,0.1200,0.0000,0.0000,0.0000,0.0710,-0.2029,-0.0017,996,1502,1500,1500,2008,1000,1505,1000,1000,1505,1502,1500,1505,0.7140,-0.4451,0.1595,-0.0292,0.0066,1.0087,0.2723,0.1336,-0.2756,-0.1303,0.4430,0.1806,0.0876,0.4430,0.1806,0.0876,0.3000,0.0600,0.0002,0,-0.3000,-100.0000,-0.0010,-0.3000,-100.0000,-0.0010,18.4307,52.3865,0.0200,0.0000
-5.8380,45.8561,-2.3280,0.2486,0.4104,0.1200,0.0000,0.0000,0.0000,0.0714,-0.2028,-0.0022,996,1502,1500,1500,2008,1000,1505,1000,1000,1505,1502,1500,1505,0.1599,-0.4098,0.3465,-0.0314,0.0047,1.0056,0.2720,0.1336,-0.2764,-0.1292,0.4430,0.1806,0.0876,0.4430,0.1806,0.0876,0.3000,0.0600,0.0002,0,-0.3000,-100.0000,-0.0010,-0.3000,-100.0000,-0.0010,18.4730,52.4236,0.0200,0.0000
-5.8264,45.8159,-2.3163,0.3315,0.4104,0.1200,0.0000,0.0000,0.0000,0.0717,-0.2026,-0.0024,996,1502,1500,1500,2008,1000,1505,1000,1000,1505,1502,1500,1505,-0.1864,-0.4253,0.4020,-0.0257,-0.0009,1.0060,0.2718,0.1334,-0.2767,-0.1285,0.4430,0.1806,0.0876,0.4430,0.1806,0.0876,0.3000,0.0600,0.0002,0,-0.3000,-100.0000,-0.0010,-0.3000,-100.0000,-0.0010,18.5153,52.4608,0.0200,0.0000
-5.8167,45.7760,-2.3037,0.2486,0.4104,0.1200,0.0000,0.0000,0.0000,0.0717,-0.2025,-0.0024,996,1502,1500,1500,2008,1000,1505,1000,1000,1505,1502,1500,1505,-0.3164,-0.3689,0.4332,-0.0306,-0.0086,0.9994,0.2718,0.1332,-0.2766,-0.1283,0.4430,0.1806,0.0876,0.4430,0.1806,0.0876,0.3000,0.0600,0.0002,0,-0.3000,-100.0000,-0.0010,-0.3000,-100.0000,-0.0010,18.5577,52.4979,0.0200,0.0000
-5.8090,45.7366,-2.2932,0.2486,0.4104,0.1800,0.0000,0.0000,0.0000,0.0719,-0.2024,-0.0030,996,1502,1500,1500,2008,1000,1505,1000,1000,1505,1502,1500,1505,-0.2991,-0.3019,0.2836,-0.0326,-0.0093,1.0033,0.2713,0.1334,-0.2773,-0.1274,0.4430,0.1806,0.0876,0.4430,0.1806,0.0876,0.3000,0.0600,0.0002,0,-0.3000,-100.0000,-0.0010,-0.3000,-100.0000,-0.0010,18.6001,52.5351,0.0300,0.0000
-5.8015,45.6974,-2.2846,0.2486,0.4104,0.1200,0.0000,0.0000,0.0000,0.0715,-0.2022,-0.0013,996,1502,1500,1500,2008,1000,1505,1000,1000,1505,1502,1500,1505,-0.0818,-0.3252,0.0544,-0.0331,-0.0088,1.0042,0.2723,0.1320,-0.2750,-0.1294,0.4430,0.1806,0.0876,0.4430,0.1806,0.0876,0.3000,0.0600,0.0002,0,-0.3000,-100.0000,-0.0010,-0.3000,-100.0000,-0.0010,18.6425,52.5723,0.0200,0.0000
-5.7934,45.6577,-2.2792,0.2486,0.3283,0.1200,0.0000,0.0000,0.0000,0.0711,-0.2020,-0.0011,996,1502,1500,1500,2008,1000,1505,1000,1000,1505,1502,1500,1505,0.3012,-0.3114,-0.0256,-0.0329,-0.0103,1.0034,0.2720,0.1320,-0.2742,-0.1298,0.4430,0.1806,0.0876,0.4430,0.1806,0.0876,0.3000,0.0600,0.0002,0,-0.3000,-100.0000,-0.0010,-0.3000,-100.0000,-0.0010,18.6849,52.6095,0.0200,0.0000
-5.7821,45.6182,-2.2750,0.2486,0.4104,0.1200,0.0000,0.0000,0.0000,0.0707,-0.2018,-0.0010,996,1502,1500,1500,2008,1000,1505,1000,1000,1505,1502,1500,1505,0.6281,-0.2788,-0.0630,-0.0314,-0.0067,1.0034,0.2716,0.1321,-0.2736,-0.1301,0.4430,0.1806,0.0876,0.4430,0.1806,0.0876,0.3000,0.0600,0.0002,0,-0.3000,-100.0000,-0.0010,-0.3000,-100.0000,-0.0010,18.7273,52.6467,0.0200,0.0000
-5.7675,45.5789,-2.2717,0.2486,0.3283,0.1200,0.0000,0.0000,0.0000,0.0703,-0.2017,-0.0007,996,1502,1500,1500,2008,1000,1505,1000,1000,1505,1502,1500,1505,1.0142,-0.2092,-0.1539,-0.0332,-0.0070,1.0059,0.2713,0.1321,-0.2728,-0.1306,0.4430,0.1806,0.0876,0.4430,0.1806,0.0876,0.3000,0.0600,0.0002,0,-0.3000,-100.0000,-0.0010,-0.3000,-100.0000,-0.0010,18.7698,52.6838,0.0200,0.0000
-5.7485,45.5398,-2.2680,0.2486,0.3283,0.1200,0.0000,0.0000,0.0000,0.0700,-0.2015,-0.0007,996,1502,1500,1500,2008,1000,1505,1000,1000,1505,1502,1500,1505,1.3472,-0.2753,-0.1440,-0.0288,-0.0048,1.0065,0.2708,0.1322,-0.2722,-0.1308,0.4430,0.1806,0.0876,0.4430,0.1806,0.0876,0.3000,0.0600,0.0002,0,-0.3000,-100.0000,-0.0010,-0.3000,-100.0000,-0.0010,18.8123,52.7210,0.0200,0.0000
-5.7266,45.5009,-2.2643,0.3315,0.3283,0.1800,0.0000,0.0000,0.0000,0.0699,-0.2014,-0.0018,996,1502,1500,1500,2008,1000,1505,1000,1000,1505,1502,1500,1505,1.5842,-0.1983,-0.1065,-0.0298,-0.0033,1.0021,0.2695,0.1333,-0.2731,-0.1297,0.4430,0.1806,0.0876,0.4430,0.1806,0.0876,0.3000,0.0600,0.0002,0,-0.3000,-100.0000,-0.0010,-0.3000,-100.0000,-0.0010,18.8547,52.7581,0.0300,0.0000
-5.7024,45.4623,-2.2588,0.1657,0.3283,0.1200,0.0000,0.0000,0.0000,0.0696,-0.2013,-0.0014,996,1502,1500,1500,2008,1000,1505,1000,1000,1505,1502,1500,1505,1.5253,-0.0994,0.0898,-0.0318,-0.0046,1.0077,0.2695,0.1331,-0.2724,-0.1303,0.4430,0.1806,0.0876,0.4430,0.1806,0.0876,0.3000,0.0600,0.0002,0,-0.3000,-100.0000,-0.0010,-0.3000,-100.0000,-0.0010,18.8972,52.7952,0.0200,0.0000
-5.6778,45.4239,-2.2523,0.3315,0.3283,0.1200,0.0000,0.0000,0.0000,0.0695,-0.2010,-0.0015,996,1502,1500,1500,2008,1000,1505,1000,1000,1505,1502,1500,1505,1.5214,-0.2098,0.0920,-0.0289,-0.0000,1.0027,0.2691,0.1330,-0.2720,-0.1301,0.4430,0.1806,0.0876,0.4430,0.1806,0.0876,0.3000,0.0600,0.0002,0,-0.3000,-100.0000,-0.0010,-0.3000,-100.0000,-0.0010,18.9398,52.8324,0.0200,0.0000
-5.6540,45.3850,-2.2444,0.2486,0.4104,0.1200,0.0000,0.0000,0.0000,0.0696,-0.2008,-0.0016,996,1502,1500,1500,2008,1000,1505,1000,1000,1505,1502,1500,1505,1.3152,-0.2779,0.1496,-0.0287,-0.0003,1.0033,0.2688,0.1329,-0.2720,-0.1296,0.4430,0.1806,0.0876,0.4430,0.1806,0.0876,0.3000,0.0600,0.0002,0,-0.3000,-100.0000,-0.0010,-0.3000,-100.0000,-0.0010,18.9823,52.8695,0.0200,0.0000
-5.6333,45.3458,-2.2371,0.3315,0.4104,0.1200,0.0000,0.0000,0.0000,0.0698,-0.2006,-0.0013,996,1502,1500,1500,2008,1000,1505,1000,1000,1505,1502,1500,1505,0.9894,-0.2770,0.0397,-0.0327,0.0016,1.0044,0.2692,0.1321,-0.2717,-0.1296,0.4430,0.1806,0.0876,0.4430,0.1806,0.0876,0.3000,0.0600,0.0002,0,-0.3000,-100.0000,-0.0010,-0.3000,-100.0000,-0.0010,19.0248,52.9066,0.0200,0.0000
-5.6153,45.3065,-2.2298,0.2486,0.3283,0.1200,0.0000,0.0000,0.0000,0.0699,-0.2004,-0.0013,996,1502,1500,1500,2008,1000,1505,1000,1000,1505,1502,1500,1505,0.7736,-0.3376,0.0687,-0.0329,0.0063,1.0039,0.2690,0.1319,-0.2716,-0.1292,0.4430,0.1806,0.0876,0.4430,0.1806,0.0876,0.3000,0.0600,0.0002,0,-0.3000,-100.0000,-0.0010,-0.3000,-100.0000,-0.0010,19.0674,52.9438,0.0200,0.0000
-5.6006,45.2663,-2.2228,0.2486,0.3283,0.1800,0.0000,0.0000,0.0000,0.0704,-0.2002,-0.0024,996,1502,1500,1500,2008,1000,1505,1000,1000,1505,1502,1500,1505,0.3621,-0.3459,0.0928,-0.0296,0.0038,1.0006,0.2683,0.1322,-0.2731,-0.1274,0.4430,0.1806,0.0876,0.4430,0.1806,0.0876,0.3000,0.0600,0.0002,0,-0.3000,-100.0000,-0.0010,-0.3000,-100.0000,-0.0010,19.1100,52.9809,0.0300,0.0000
-5.5900,45.2257,-2.2158,0.2486,0.3283,0.1200,0.0000,0.0000,0.0000,0.0704,-0.2000,-0.0013,996,1502,1500,1500,2008,1000,1505,1000,1000,1505,1502,1500,1505,0.0648,-0.4032,0.0394,-0.0329,0.0055,1.0046,0.2691,0.1309,-0.2717,-0.1283,0.4430,0.1806,0.0876,0.4430,0.1806,0.0876,0.3000,0.0600,0.0002,0,-0.3000,-100.0000,-0.0010,-0.3000,-100.0000,-0.0010,19.1526,53.0179,0.0200,0.0000
-5.5822,45.1848,-2.2081,0.1657,0.4104,0.1200,0.0000,0.0000,0.0000,0.0707,-0.1998,-0.0017,996,1502,1500,1500,2008,1000,1505,1000,1000,1505,1502,1500,1505,-0.2792,-0.4775,0.1555,-0.0281,0.0027,1.0026,0.2687,0.1308,-0.2721,-0.1274,0.4430,0.1806,0.0876,0.4430,0.1806,0.0876,0.3000,0.0600,0.0002,0,-0.3000,-100.0000,-0.0010,-0.3000,-100.0000,-0.0010,19.1952,53.0550,0.0200,0.0000
-5.5769,45.1434,-2.1991,0.2486,0.3283,0.1200,0.0000,0.0000,0.0000,0.0709,-0.1996,-0.0018,996,1502,1500,1500,2008,1000,1505,1000,1000,1505,1502,1500,1505,-0.6172,-0.4101,0.1977,-0.0318,0.0027,1.0046,0.2688,0.1305,-0.2723,-0.1269,0.4430,0.1806,0.0876,0.4430,0.1806,0.0876,0.3000,0.0600,0.0002,0,-0.3000,-100.0000,-0.0010,-0.3000,-100.0000,-0.0010,19.2378,53.0921,0.0200,0.0000
-5.5736,45.1028,-2.1901,0.2486,0.3283,0.1200,0.0000,0.0000,0.0000,0.0709,-0.1994,-0.0019,996,1502,1500,1500,2008,1000,1505,1000,1000,1505,1502,1500,1505,-0.6216,-0.4239,0.2471,-0.0274,0.0004,1.0062,0.2684,0.1305,-0.2723,-0.1266,0.4430,0.1806,0.0876,0.4430,0.1806,0.0876,0.3000,0.0600,0.0002,0,-0.3000,-100.0000,-0.0010,-0.3000,-100.0000,-0.0010,19.2805,53.1292,0.0200,0.0000
-5.5702,45.0618,-2.1805,0.2486,0.3283,0.1200,0.0000,0.0000,0.0000,0.0710,-0.1993,-0.0020,996,1502,1500,1500,2008,1000,1505,1000,1000,1505,1502,1500,1505,-0.6985,-0.4276,0.2598,-0.0283,-0.0026,1.0063,0.2683,0.1302,-0.2722,-0.1263,0.4430,0.1806,0.0876,0.4430,0.1806,0.0876,0.3000,0.0600,0.0002,0,-0.3000,-100.0000,-0.0010,-0.3000,-100.0000,-0.0010,19.3232,53.1663,0.0200,0.0000
-5.5667,45.0208,-2.1706,0.2486,0.3283,0.1800,0.0000,0.0000,0.0000,0.0712,-0.1991,-0.0029,996,1502,1500,1500,2008,1000,1505,1000,1000,1505,1502,1500,1505,-0.6525,-0.4226,0.2672,-0.0292,-0.0037,1.0018,0.2674,0.1308,-0.2731,-0.1250,0.4430,0.1806,0.0876,0.4430,0.1806,0.0876,0.3000,0.0600,0.0002,0,-0.3000,-100.0000,-0.0010,-0.3000,-100.0000,-0.0010,19.3659,53.2034,0.0300,0.0000
-5.5629,44.9789,-2.1615,0.3315,0.3283,0.1200,0.0000,0.0000,0.0000,0.0708,-0.1988,-0.0018,996,1502,1500,1500,2008,1000,1505,1000,1000,1505,1502,1500,1505,-0.5866,-0.5272,0.1929,-0.0291,-0.0012,1.0043,0.2679,0.1297,-0.2714,-0.1262,0.4430,0.1806,0.0876,0.4430,0.1806,0.0876,0.3000,0.0600,0.0002,0,-0.3000,-100.0000,-0.0010,-0.3000,-100.0000,-0.0010,19.4086,53.2405,0.0200,0.0000
-5.5595,44.9368,-2.1532,0.2486,0.3283,0.1200,0.0000,0.0000,0.0000,0.0708,-0.1986,-0.0015,996,1502,1500,1500,2008,1000,1505,1000,1000,1505,1502,1500,1505,-0.6047,-0.5915,0.1161,-0.0296,-0.0029,1.0065,0.2679,0.1292,-0.2709,-0.1262,0.4430,0.1806,0.0876,0.4430,0.1806,0.0876,0.3000,0.0600,0.0002,0,-0.3000,-100.0000,-0.0010,-0.3000,-100.0000,-0.0010,19.4513,53.2775,0.0200,0.0000
-5.5561,44.8943,-2.1456,0.1657,0.3283,0.1200,0.0000,0.0000,0.0000,0.0707,-0.1984,-0.0016,996,1502,1500,1500,2008,1000,1505,1000,1000,1505,1502,1500,1505,-0.5120,-0.6056,0.1539,-0.0282,-0.0033,1.0040,0.2675,0.1292,-0.2707,-0.1260,0.4430,0.1806,0.0876,0.4430,0.1806,0.0876,0.3000,0.0600,0.0002,0,-0.3000,-100.0000,-0.0010,-0.3000,-100.0000,-0.0010,19.4940,53.3146,0.0200,0.0000
-5.5530,44.8517,-2.1384,0.2486,0.3283,0.1200,0.0000,0.0000,0.0000,0.0707,-0.1982,-0.0014,996,1502,1500,1500,2008,1000,1505,1000,1000,1505,1502,1500,1505,-0.5267,-0.5730,0.0792,-0.0298,-0.0026,1.0043,0.2675,0.1288,-0.2703,-0.1261,0.4430,0.1806,0.0876,0.4430,0.1806,0.0876,0.3000,0.0600,0.0002,0,-0.3000,-100.0000,-0.0010,-0.3000,-100.0000,-0.0010,19.5367,53.3515,0.0200,0.0000
-5.5501,44.8098,-2.1315,0.2486,0.2462,0.1200,0.0000,0.0000,0.0000,0.0707,-0.1981,-0.0014,996,1502,1500,1500,2008,1000,1505,1000,1000,1505,1502,1500,1505,-0.5119,-0.4621,0.0925,-0.0287,-0.0023,1.0049,0.2674,0.1288,-0.2703,-0.1259,0.4430,0.1806,0.0876,0.4430,0.1806,0.0876,0.3000,0.0600,0.0002,0,-0.3000,-100.0000,-0.0010,-0.3000,-100.0000,-0.0010,19.5794,53.3884,0.0200,0.0000
-5.5467,44.7687,-2.1240,0.2486,0.3283,0.1800,0.0000,0.0000,0.0000,0.0710,-0.1979,-0.0024,996,1502,1500,1500,2008,1000,1505,1000,1000,1505,1502,1500,1505,-0.5061,-0.4649,0.0981,-0.0318,-0.0016,1.0030,0.2665,0.1293,-0.2713,-0.1246,0.4430,0.1806,0.0876,0.4430,0.1806,0.0876,0.3000,0.0600,0.0002,0,-0.3000,-100.0000,-0.0010,-0.3000,-100.0000,-0.0010,19.6222,53.4253,0.0300,0.0000
-5.5445,44.7277,-2.1172,0.2486,0.3283,0.1200,0.0000,0.0000,0.0000,0.0708,-0.1978,-0.0016,996,1502,1500,1500,2008,1000,1505,1000,1000,1505,1502,1500,1505,-0.6498,-0.4086,0.1180,-0.0290,-0.0030,1.0080,0.2670,0.1286,-0.2702,-0.1254,0.4430,0.1806,0.0876,0.4430,0.1806,0.0876,0.3000,0.0600,0.0002,0,-0.3000,-100.0000,-0.0010,-0.3000,-100.0000,-0.0010,19.6649,53.4622,0.0200,0.0000
-5.5414,44.6867,-2.1093,0.1657,0.2462,0.1200,0.0000,0.0000,0.0000,0.0707,-0.1976,-0.0015,996,1502,1500,1500,2008,1000,1505,1000,1000,1505,1502,1500,1505,-0.5661,-0.4389,0.1037,-0.0298,-0.0013,1.0035,0.2668,0.1283,-0.2698,-0.1254,0.4430,0.1806,0.0876,0.4430,0.1806,0.0876,0.3000,0.0600,0.0002,0,-0.3000,-100.0000,-0.0010,-0.3000,-100.0000,-0.0010,19.7077,53.4992,0.0200,0.0000
-5.5385,44.6460,-2.1022,0.1657,0.2462,0.1200,0.0000,0.0000,0.0000,0.0707,-0.1975,-0.0015,996,1502,1500,1500,2008,1000,1505,1000,1000,1505,1502,1500,1505,-0.5905,-0.3330,0.1081,-0.0302,-0.0036,1.0049,0.2667,0.1283,-0.2697,-0.1252,0.4430,0.1806,0.0876,0.4430,0.1806,0.0876,0.3000,0.0600,0.0002,0,-0.3000,-100.0000,-0.0010,-0.3000,-100.0000,-0.0010,19.7505,53.5361,0.0200,0.0000
-5.5346,44.6061,-2.0941,0.0829,0.0821,0.1200,0.0000,0.0000,0.0000,0.0706,-0.1974,-0.0017,996,1502,1500,1500,2008,1000,1505,1000,1000,1505,1502,1500,1505,-0.4243,-0.2693,0.1631,-0.0295,-0.0050,1.0039,0.2662,0.1285,-0.2696,-0.1251,0.4430,0.1806,0.0876,0.4430,0.1806,0.0876,0.3000,0.0600,0.0002,0,-0.3000,-100.0000,-0.0010,-0.3000,-100.0000,-0.0010,19.7933,53.5730,0.0200,0.0000
-5.5299,44.5670,-2.0863,0.1657,0.2462,0.1200,0.0000,0.0000,0.0000,0.0705,-0.1973,-0.0017,996,1502,1500,1500,2008,1000,1505,1000,1000,1505,1502,1500,1505,-0.3983,-0.1912,0.1740,-0.0285,-0.0041,1.0042,0.2661,0.1284,-0.2695,-0.1250,0.4430,0.1806,0.0876,0.4430,0.1806,0.0876,0.3000,0.0600,0.0002,0,-0.3000,-100.0000,-0.0010,-0.3000,-100.0000,-0.0010,19.8361,53.6099,0.0200,0.0000
-5.5247,44.5286,-2.0785,0.0829,0.2462,0.1800,0.0000,0.0000,0.0000,0.0707,-0.1972,-0.0026,996,1502,1500,1500,2008,1000,1505,1000,1000,1505,1502,1500,1505,-0.3554,-0.1078,0.1630,-0.0289,-0.0037,1.0046,0.2653,0.1291,-0.2705,-0.1238,0.4430,0.1806,0.0876,0.4430,0.1806,0.0876,0.3000,0.0600,0.0002,0,-0.3000,-100.0000,-0.0010,-0.3000,-100.0000,-0.0010,19.8790,53.6469,0.0300,0.0000
-5.5189,44.4907,-2.0709,0.2486,0.3283,0.1200,0.0000,0.0000,0.0000,0.0703,-0.1970,-0.0017,996,1502,1500,1500,2008,1000,1505,1000,1000,1505,1502,1500,1505,-0.2297,-0.1060,0.1745,-0.0309,-0.0033,1.0038,0.2656,0.1284,-0.2690,-0.1250,0.4430,0.1806,0.0876,0.4430,0.1806,0.0876,0.3000,0.0600,0.0002,0,-0.3000,-100.0000,-0.0010,-0.3000,-100.0000,-0.0010,19.9219,53.6838,0.0200,0.0000
-5.5116,44.4534,-2.0636,0.1657,0.1642,0.1200,0.0000,0.0000,0.0000,0.0702,-0.1969,-0.0014,996,1502,1500,1500,2008,1000,1505,1000,1000,1505,1502,1500,1505,-0.1306,-0.0659,0.0854,-0.0308,-0.0028,1.0061,0.2657,0.1281,-0.2685,-0.1252,0.4430,0.1806,0.0876,0.4430,0.1806,0.0876,0.3000,0.0600,0.0002,0,-0.3000,-100.0000,-0.0010,-0.3000,-100.0000,-0.0010,19.9647,53.7207,0.0200,0.0000
-5.5049,44.4157,-2.0570,0.2486,0.2462,0.1200,0.0000,0.0000,0.0000,0.0702,-0.1966,-0.0016,996,1502,1500,1500,2008,1000,1505,1000,1000,1505,1502,1500,1505,-0.1361,-0.1477,0.1319,-0.0333,-0.0025,1.0026,0.2652,0.1280,-0.2684,-0.1248,0.4430,0.1806,0.0876,0.4430,0.1806,0.0876,0.3000,0.0600,0.0002,0,-0.3000,-100.0000,-0.0010,-0.3000,-100.0000,-0.0010,20.0077,53.7576,0.0200,0.0000
-5.4990,44.3781,-2.0500,0.1657,0.3283,0.1200,0.0000,0.0000,0.0000,0.0702,-0.1966,-0.0015,996,1502,1500,1500,2008,1000,1505,1000,1000,1505,1502,1500,1505,-0.2229,-0.0169,0.1104,-0.0272,-0.0001,1.0050,0.2653,0.1278,-0.2683,-0.1249,0.4430,0.1806,0.0876,0.4430,0.1806,0.0876,0.3000,0.0600,0.0002,0,-0.3000,-100.0000,-0.0010,-0.3000,-100.0000,-0.0010,20.0506,53.7945,0.0200,0.0000
-5.4943,44.3407,-2.0437,0.2486,0.2462,0.1200,0.0000,0.0000,0.0000,0.0704,-0.1963,-0.0015,996,1502,1500,1500,2008,1000,1505,1000,1000,1505,1502,1500,1505,-0.4213,-0.1458,0.1096,-0.0297,-0.0023,1.0055,0.2652,0.1274,-0.2682,-0.1244,0.4430,0.1806,0.0876,0.4430,0.1806,0.0876,0.3000,0.0600,0.0002,0,-0.3000,-100.0000,-0.0010,-0.3000,-100.0000,-0.0010,20.0935,53.8314,0.0200,0.0000
-5.4911,44.3021,-2.0366,0.1657,0.2462,0.1800,0.0000,0.0000,0.0000,0.0708,-0.1962,-0.0025,996,1502,1500,1500,2008,1000,1505,1000,1000,1505,1502,1500,1505,-0.5748,-0.1224,0.1090,-0.0279,-0.0030,1.0061,0.2645,0.1278,-0.2694,-0.1229,0.4430,0.1806,0.0876,0.4430,0.1806,0.0876,0.3000,0.0600,0.0002,0,-0.3000,-100.0000,-0.0010,-0.3000,-100.0000,-0.0010,20.1365,53.8683,0.0300,0.0000
-5.4896,44.2639,-2.0304,0.1657,0.2462,0.1200,0.0000,0.0000,0.0000,0.0706,-0.1960,-0.0017,996,1502,1500,1500,2008,1000,1505,1000,1000,1505,1502,1500,1505,-0.7066,-0.0874,0.1423,-0.0306,-0.0013,1.0062,0.2650,0.1271,-0.2683,-0.1237,0.4430,0.1806,0.0876,0.4430,0.1806,0.0876,0.3000,0.0600,0.0002,0,-0.3000,-100.0000,-0.0010,-0.3000,-100.0000,-0.0010,20.1795,53.9052,0.0200,0.0000
-5.4883,44.2257,-2.0217,0.2486,0.2462,0.1200,0.0000,0.0000,0.0000,0.0707,-0.1958,-0.0022,996,1502,1500,1500,2008,1000,1505,1000,1000,1505,1502,1500,1505,-0.7778,-0.1544,0.3093,-0.0291,-0.0043,1.0073,0.2643,0.1273,-0.2686,-0.1230,0.4430,0.1806,0.0876,0.4430,0.1806,0.0876,0.3000,0.0600,0.0002,0,-0.3000,-100.0000,-0.0010,-0.3000,-100.0000,-0.0010,20.2225,53.9421,0.0200,0.0000
-5.4869,44.1873,-2.0123,0.1657,0.1642,0.1200,0.0000,0.0000,0.0000,0.0707,-0.1956,-0.0021,996,1502,1500,1500,2008,1000,1505,1000,1000,1505,1502,1500,1505,-0.8330,-0.1171,0.2998,-0.0307,-0.0051,1.0047,0.2643,0.1270,-0.2685,-0.1228,0.4430,0.1806,0.0876,0.4430,0.1806,0.0876,0.3000,0.0600,0.0002,0,-0.3000,-100.0000,-0.0010,-0.3000,-100.0000,-0.0010,20.2655,53.9789,0.0200,0.0000
-5.4846,44.1495,-2.0025,0.1657,0.2462,0.1200,0.0000,0.0000,0.0000,0.0706,-0.1955,-0.0022,996,1502,1500,1500,2008,1000,1505,1000,1000,1505,1502,1500,1505,-0.7566,-0.1104,0.3283,-0.0317,-0.0064,1.0028,0.2639,0.1271,-0.2683,-0.1226,0.4430,0.1806,0.0876,0.4430,0.1806,0.0876,0.3000,0.0600,0.0002,0,-0.3000,-100.0000,-0.0010,-0.3000,-100.0000,-0.0010,20.3085,54.0158,0.0200,0.0000
-5.4811,44.1114,-1.9935,0.1657,0.1642,0.1200,0.0000,0.0000,0.0000,0.0704,-0.1953,-0.0019,996,1502,1500,1500,2008,1000,1505,1000,1000,1505,1502,1500,1505,-0.4493,-0.1388,0.2311,-0.0271,-0.0049,1.0064,0.2637,0.1269,-0.2676,-0.1230,0.4430,0.1806,0.0876,0.4430,0.1806,0.0876,0.3000,0.0600,0.0002,0,-0.3000,-100.0000,-0.0010,-0.3000,-100.0000,-0.0010,20.3515,54.0526,0.0200,0.0000
-5.4758,44.0733,-1.9858,0.1657,0.2462,0.1800,0.0000,0.0000,0.0000,0.0704,-0.1952,-0.0027,996,1502,1500,1500,2008,1000,1505,1000,1000,1505,1502,1500,1505,-0.2429,-0.1085,0.1544,-0.0299,-0.0063,1.0030,0.2629,0.1274,-0.2682,-0.1221,0.4430,0.1806,0.0876,0.4430,0.1806,0.0876,0.3000,0.0600,0.0002,0,-0.3000,-100.0000,-0.0010,-0.3000,-100.0000,-0.0010,20.3945,54.0894,0.0300,0.0000
-5.4689,44.0363,-1.9793,0.1657,0.2462,0.1200,0.0000,0.0000,0.0000,0.0698,-0.1951,-0.0014,996,1502,1500,1500,2008,1000,1505,1000,1000,1505,1502,1500,1505,0.0853,0.0556,0.0704,-0.0308,-0.0080,1.0017,0.2636,0.1267,-0.2664,-0.1239,0.4430,0.1806,0.0876,0.4430,0.1806,0.0876,0.3000,0.0600,0.0002,0,-0.3000,-100.0000,-0.0010,-0.3000,-100.0000,-0.0010,20.4376,54.1262,0.0200,0.0000
-5.4600,43.9996,-1.9740,0.1657,0.1642,0.1200,0.0000,0.0000,0.0000,0.0696,-0.1949,-0.0013,996,1502,1500,1500,2008,1000,1505,1000,1000,1505,1502,1500,1505,0.2820,-0.0030,0.0459,-0.0297,-0.0090,1.0048,0.2633,0.1266,-0.2658,-0.1240,0.4430,0.1806,0.0876,0.4430,0.1806,0.0876,0.3000,0.0600,0.0002,0,-0.3000,-100.0000,-0.0010,-0.3000,-100.0000,-0.0010,20.4807,54.1630,0.0200,0.0000
-5.4494,43.9629,-1.9696,0.1657,0.2462,0.1200,0.0000,0.0000,0.0000,0.0694,-0.1948,-0.0011,996,1502,1500,1500,2008,1000,1505,1000,1000,1505,1502,1500,1505,0.4571,0.0851,-0.0160,-0.0308,-0.0071,1.0045,0.2631,0.1265,-0.2654,-0.1243,0.4430,0.1806,0.0876,0.4430,0.1806,0.0876,0.3000,0.0600,0.0002,0,-0.3000,-100.0000,-0.0010,-0.3000,-100.0000,-0.0010,20.5238,54.1998,0.0200,0.0000
-5.4370,43.9268,-1.9652,0.1657,0.2462,0.1200,0.0000,0.0000,0.0000,0.0693,-0.1947,-0.0011,996,1502,1500,1500,2008,1000,1505,1000,1000,1505,1502,1500,1505,0.5476,0.0685,-0.0243,-0.0314,-0.0009,1.0098,0.2628,0.1265,-0.2651,-0.1242,0.4430,0.1806,0.0876,0.4430,0.1806,0.0876,0.3000,0.0600,0.0002,0,-0.3000,-100.0000,-0.0010,-0.3000,-100.0000,-0.0010,20.5669,54.2367,0.0200,0.0000
-5.4241,43.8900,-1.9605,0.0829,0.0821,0.1200,0.0000,0.0000,0.0000,0.0693,-0.1945,-0.0011,996,1502,1500,1500,2008,1000,1505,1000,1000,1505,1502,1500,1505,0.5130,0.0235,-0.0319,-0.0301,-0.0062,1.0075,0.2626,0.1263,-0.2648,-0.1241,0.4430,0.1806,0.0876,0.4430,0.1806,0.0876,0.3000,0.0600,0.0002,0,-0.3000,-100.0000,-0.0010,-0.3000,-100.0000,-0.0010,20.6100,54.2735,0.0200,0.0000
-5.4119,43.8531,-1.9560,0.1657,0.2462,0.1800,0.0000,0.0000,0.0000,0.0695,-0.1943,-0.0022,996,1502,1500,1500,2008,1000,1505,1000,1000,1505,1502,1500,1505,0.4485,-0.0139,0.0058,-0.0288,0.0000,1.0036,0.2616,0.1269,-0.2660,-0.1225,0.4430,0.1806,0.0876,0.4430,0.1806,0.0876,0.3000,0.0600,0.0002,0,-0.3000,-100.0000,-0.0010,-0.3000,-100.0000,-0.0010,20.6531,54.3103,0.0300,0.0000
-5.4003,43.8159,-1.9503,0.2486,0.1642,0.1200,0.0000,0.0000,0.0000,0.0694,-0.1941,-0.0013,996,1502,1500,1500,2008,1000,1505,1000,1000,1505,1502,1500,1505,0.2864,0.0082,0.0518,-0.0301,0.0007,1.0039,0.2622,0.1261,-0.2648,-0.1235,0.4430,0.1806,0.0876,0.4430,0.1806,0.0876,0.3000,0.0600,0.0002,0,-0.3000,-100.0000,-0.0010,-0.3000,-100.0000,-0.0010,20.6963,54.3471,0.0200,0.0000
-5.3907,43.7797,-1.9444,0.1657,0.2462,0.1200,0.0000,0.0000,0.0000,0.0695,-0.1940,-0.0015,996,1502,1500,1500,2008,1000,1505,1000,1000,1505,1502,1500,1505,0.1097,0.0946,0.1115,-0.0296,-0.0015,1.0068,0.2620,0.1261,-0.2650,-0.1230,0.4430,0.1806,0.0876,0.4430,0.1806,0.0876,0.3000,0.0600,0.0002,0,-0.3000,-100.0000,-0.0010,-0.3000,-100.0000,-0.0010,20.7395,54.3838,0.0200,0.0000
-5.3822,43.7439,-1.9386,0.1657,0.2462,0.1200,0.0000,0.0000,0.0000,0.0695,-0.1939,-0.0016,996,1502,1500,1500,2008,1000,1505,1000,1000,1505,1502,1500,1505,0.0797,0.1278,0.1154,-0.0288,-0.0019,1.0046,0.2617,0.1261,-0.2650,-0.1228,0.4430,0.1806,0.0876,0.4430,0.1806,0.0876,0.3000,0.0600,0.0002,0,-0.3000,-100.0000,-0.0010,-0.3000,-100.0000,-0.0010,20.7827,54.4206,0.0200,0.0000
-5.3730,43.7091,-1.9313,0.2486,0.2462,0.1200,0.0000,0.0000,0.0000,0.0695,-0.1939,-0.0019,996,1502,1500,1500,2008,1000,1505,1000,1000,1505,1502,1500,1505,-0.0176,0.3285,0.2164,-0.0307,-0.0025,1.0066,0.2615,0.1263,-0.2653,-0.1225,0.4430,0.1806,0.0876,0.4430,0.1806,0.0876,0.3000,0.0600,0.0002,0,-0.3000,-100.0000,-0.0010,-0.3000,-100.0000,-0.0010,20.8259,54.4573,0.0200,0.0000
-5.3629,43.6752,-1.9230,0.0829,0.1642,0.1200,0.0000,0.0000,0.0000,0.0693,-0.1938,-0.0020,996,1502,1500,1500,2008,1000,1505,1000,1000,1505,1502,1500,1505,0.1504,0.3168,0.2773,-0.0288,-0.0053,1.0065,0.2611,0.1265,-0.2651,-0.1224,0.4430,0.1806,0.0876,0.4430,0.1806,0.0876,0.3000,0.0600,0.0002,0,-0.3000,-100.0000,-0.0010,-0.3000,-100.0000,-0.0010,20.8691,54.4940,0.0200,0.0000
-5.3500,43.6419,-1.9160,0.1657,0.1642,0.1800,0.0000,0.0000,0.0000,0.0691,-0.1936,-0.0027,996,1502,1500,1500,2008,1000,1505,1000,1000,1505,1502,1500,1505,0.6580,0.3558,0.1661,-0.0289,-0.0085,1.0063,0.2601,0.1272,-0.2654,-0.1219,0.4430,0.1806,0.0876,0.4430,0.1806,0.0876,0.3000,0.0600,0.0002,0,-0.3000,-100.0000,-0.0010,-0.3000,-100.0000,-0.0010,20.9123,54.5307,0.0300,0.0000
-5.3326,43.6087,-1.9100,0.1657,0.2462,0.1200,0.0000,0.0000,0.0000,0.0682,-0.1936,-0.0013,996,1502,1500,1500,2008,1000,1505,1000,1000,1505,1502,1500,1505,1.3155,0.4287,0.0508,-0.0281,-0.0146,0.9988,0.2604,0.1267,-0.2630,-0.1241,0.4430,0.1806,0.0876,0.4430,0.1806,0.0876,0.3000,0.0600,0.0002,0,-0.3000,-100.0000,-0.0010,-0.3000,-100.0000,-0.0010,20.9555,54.5674,0.0200,0.0000
-5.3088,43.5768,-1.9059,0.2486,0.2462,0.1200,0.0000,0.0000,0.0000,0.0674,-0.1936,-0.0010,996,1502,1500,1500,2008,1000,1505,1000,1000,1505,1502,1500,1505,2.0689,0.6258,-0.0611,-0.0299,-0.0136,1.0061,0.2600,0.1272,-0.2620,-0.1252,0.4430,0.1806,0.0876,0.4430,0.1806,0.0876,0.3000,0.0600,0.0002,0,-0.3000,-100.0000,-0.0010,-0.3000,-100.0000,-0.0010,20.9988,54.6041,0.0200,0.0000
-5.2788,43.5461,-1.9049,0.2486,0.3283,0.1200,0.0000,0.0000,0.0000,0.0665,-0.1935,-0.0004,996,1502,1500,1500,2008,1000,1505,1000,1000,1505,1502,1500,1505,2.8905,0.6760,-0.2851,-0.0266,-0.0115,1.0040,0.2597,0.1273,-0.2604,-0.1266,0.4430,0.1806,0.0876,0.4430,0.1806,0.0876,0.3000,0.0600,0.0002,0,-0.3000,-100.0000,-0.0010,-0.3000,-100.0000,-0.0010,21.0420,54.6408,0.0200,0.0000
-5.2422,43.5169,-1.9057,0.1657,0.3283,0.1200,0.0000,0.0000,0.0000,0.0658,-0.1935,0.0000,996,1502,1500,1500,2008,1000,1505,1000,1000,1505,1502,1500,1505,3.5269,0.8667,-0.3969,-0.0282,-0.0087,1.0065,0.2594,0.1277,-0.2593,-0.1277,0.4430,0.1806,0.0876,0.4430,0.1806,0.0876,0.3000,0.0600,0.0002,0,-0.3000,-100.0000,-0.0010,-0.3000,-100.0000,-0.0010,21.0853,54.6775,0.0200,0.0000
-5.2022,43.4886,-1.9090,0.2486,0.2462,0.1200,0.0000,0.0000,0.0000,0.0653,-0.1935,0.0002,996,1502,1500,1500,2008,1000,1505,1000,1000,1505,1502,1500,1505,3.8608,0.9907,-0.4676,-0.0300,-0.0035,1.0021,0.2591,0.1280,-0.2587,-0.1284,0.4430,0.1806,0.0876,0.4430,0.1806,0.0876,0.3000,0.0600,0.0002,0,-0.3000,-100.0000,-0.0010,-0.3000,-100.0000,-0.0010,21.1287,54.7141,0.0200,0.0000
-5.1603,43.4608,-1.9124,0.2486,0.3283,0.1800,0.0000,0.0000,0.0000,0.0654,-0.1934,-0.0008,996,1502,1500,1500,2008,1000,1505,1000,1000,1505,1502,1500,1505,3.8547,1.0289,-0.4493,-0.0341,-0.0012,1.0058,0.2580,0.1288,-0.2597,-0.1272,0.4430,0.1806,0.0876,0.4430,0.1806,0.0876,0.3000,0.0600,0.0002,0,-0.3000,-100.0000,-0.0010,-0.3000,-100.0000,-0.0010,21.1720,54.7508,0.0300,0.0000
-5.1204,43.4335,-1.9150,0.2486,0.3283,0.1200,0.0000,0.0000,0.0000,0.0654,-0.1932,-0.0002,996,1502,1500,1500,2008,1000,1505,1000,1000,1505,1502,1500,1505,3.4018,0.9272,-0.3339,-0.0311,0.0071,1.0037,0.2584,0.1281,-0.2588,-0.1276,0.4430,0.1806,0.0876,0.4430,0.1806,0.0876,0.3000,0.0600,0.0002,0,-0.3000,-100.0000,-0.0010,-0.3000,-100.0000,-0.0010,21.2154,54.7875,0.0200,0.0000
-5.0828,43.4051,-1.9133,0.1657,0.2462,0.1200,0.0000,0.0000,0.0000,0.0658,-0.1930,-0.0011,996,1502,1500,1500,2008,1000,1505,1000,1000,1505,1502,1500,1505,2.7288,0.7716,-0.0463,-0.0309,0.0093,1.0044,0.2577,0.1282,-0.2598,-0.1261,0.4430,0.1806,0.0876,0.4430,0.1806,0.0876,0.3000,0.0600,0.0002,0,-0.3000,-100.0000,-0.0010,-0.3000,-100.0000,-0.0010,21.2588,54.8242,0.0200,0.0000
-5.0509,43.3748,-1.9079,0.1657,0.3283,0.1200,0.0000,0.0000,0.0000,0.0665,-0.1926,-0.0015,996,1502,1500,1500,2008,1000,1505,1000,1000,1505,1502,1500,1505,1.8000,0.5414,0.1029,-0.0368,0.0163,1.0043,0.2576,0.1277,-0.2606,-0.1246,0.4430,0.1806,0.0876,0.4430,0.1806,0.0876,0.3000,0.0600,0.0002,0,-0.3000,-100.0000,-0.0010,-0.3000,-100.0000,-0.0010,21.3021,54.8609,0.0200,0.0000
-5.0275,43.3421,-1.8994,0.1657,0.3283,0.1200,0.0000,0.0000,0.0000,0.0673,-0.1922,-0.0022,996,1502,1500,1500,2008,1000,1505,1000,1000,1505,1502,1500,1505,0.7643,0.2744,0.3193,-0.0362,0.0202,1.0086,0.2573,0.1272,-0.2617,-0.1228,0.4430,0.1806,0.0876,0.4430,0.1806,0.0876,0.3000,0.0600,0.0002,0,-0.3000,-100.0000,-0.0010,-0.3000,-100.0000,-0.0010,21.3455,54.8975,0.0200,0.0000
-5.0136,43.3074,-1.8885,0.2486,0.3283,0.1200,0.0000,0.0000,0.0000,0.0682,-0.1920,-0.0026,996,1502,1500,1500,2008,1000,1505,1000,1000,1505,1502,1500,1505,-0.3308,0.1223,0.4552,-0.0326,0.0176,1.0058,0.2576,0.1264,-0.2627,-0.1212,0.4430,0.1806,0.0876,0.4430,0.1806,0.0876,0.3000,0.0600,0.0002,0,-0.3000,-100.0000,-0.0010,-0.3000,-100.0000,-0.0010,21.3889,54.9342,0.0200,0.0000
-5.0111,43.2715,-1.8770,0.1657,0.1642,0.1800,0.0000,0.0000,0.0000,0.0694,-0.1918,-0.0034,996,1502,1500,1500,2008,1000,1505,1000,1000,1505,1502,1500,1505,-1.4158,0.1641,0.4182,-0.0298,0.0129,1.0087,0.2578,0.1259,-0.2646,-0.1190,0.4430,0.1806,0.0876,0.4430,0.1806,0.0876,0.3000,0.0600,0.0002,0,-0.3000,-100.0000,-0.0010,-0.3000,-100.0000,-0.0010,21.4324,54.9708,0.0300,0.0000
-5.0193,43.2365,-1.8652,0.2486,0.3283,0.1200,0.0000,0.0000,0.0000,0.0700,-0.1917,-0.0027,996,1502,1500,1500,2008,1000,1505,1000,1000,1505,1502,1500,1505,-2.3880,0.1832,0.4976,-0.0304,0.0067,1.0064,0.2590,0.1244,-0.2644,-0.1190,0.4430,0.1806,0.0876,0.4430,0.1806,0.0876,0.3000,0.0600,0.0002,0,-0.3000,-100.0000,-0.0010,-0.3000,-100.0000,-0.0010,21.4758,55.0073,0.0200,0.0000
-5.0370,43.2013,-1.8531,0.0829,0.1642,0.1200,0.0000,0.0000,0.0000,0.0708,-0.1915,-0.0028,996,1502,1500,1500,2008,1000,1505,1000,1000,1505,1502,1500,1505,-3.1882,0.1397,0.5345,-0.0313,0.0036,1.0051,0.2595,0.1235,-0.2651,-0.1179,0.4430,0.1806,0.0876,0.4430,0.1806,0.0876,0.3000,0.0600,0.0002,0,-0.3000,-100.0000,-0.0010,-0.3000,-100.0000,-0.0010,21.5192,55.0439,0.0200,0.0000
-5.0614,43.1656,-1.8398,0.1657,0.3283,0.1200,0.0000,0.0000,0.0000,0.0715,-0.1913,-0.0031,996,1502,1500,1500,2008,1000,1505,1000,1000,1505,1502,1500,1505,-3.8286,0.1349,0.6404,-0.0320,0.0049,1.0059,0.2597,0.1230,-0.2659,-0.1168,0.4430,0.1806,0.0876,0.4430,0.1806,0.0876,0.3000,0.0600,0.0002,0,-0.3000,-100.0000,-0.0010,-0.3000,-100.0000,-0.0010,21.5626,55.0804,0.0200,0.0000
-5.0903,43.1284,-1.8261,0.2486,0.3283,0.1200,0.0000,0.0000,0.0000,0.0718,-0.1910,-0.0030,996,1502,1500,1500,2008,1000,1505,1000,1000,1505,1502,1500,1505,-4.1266,-0.0915,0.5979,-0.0325,0.0032,1.0012,0.2598,0.1222,-0.2659,-0.1161,0.4430,0.1806,0.0876,0.4430,0.1806,0.0876,0.3000,0.0600,0.0002,0,-0.3000,-100.0000,-0.0010,-0.3000,-100.0000,-0.0010,21.6061,55.1170,0.0200,0.0000
-5.1209,43.0909,-1.8121,0.3315,0.3283,0.1200,0.0000,0.0000,0.0000,0.0720,-0.1908,-0.0033,996,1502,1500,1500,2008,1000,1505,1000,1000,1505,1502,1500,1505,-4.1732,-0.0540,0.6630,-0.0332,-0.0012,1.0003,0.2596,0.1221,-0.2661,-0.1156,0.4430,0.1806,0.0876,0.4430,0.1806,0.0876,0.3000,0.0600,0.0002,0,-0.3000,-100.0000,-0.0010,-0.3000,-100.0000,-0.0010,21.6496,55.1536,0.0200,0.0000
-5.1506,43.0521,-1.7974,0.2486,0.3283,0.1800,0.0000,0.0000,0.0000,0.0724,-0.1905,-0.0041,996,1502,1500,1500,2008,1000,1505,1000,1000,1505,1502,1500,1505,-4.1101,-0.2988,0.6486,-0.0319,-0.0009,1.0056,0.2587,0.1222,-0.2669,-0.1140,0.4430,0.1806,0.0876,0.4430,0.1806,0.0876,0.3000,0.0600,0.0002,0,-0.3000,-100.0000,-0.0010,-0.3000,-100.0000,-0.0010,21.6931,55.1902,0.0300,0.0000
-5.1792,43.0118,-1.7825,0.2486,0.3283,0.1200,0.0000,0.0000,0.0000,0.0721,-0.1902,-0.0034,996,1502,1500,1500,2008,1000,1505,1000,1000,1505,1502,1500,1505,-4.0196,-0.3830,0.7238,-0.0338,-0.0034,1.0039,0.2590,0.1214,-0.2657,-0.1147,0.4430,0.1806,0.0876,0.4430,0.1806,0.0876,0.3000,0.0600,0.0002,0,-0.3000,-100.0000,-0.0010,-0.3000,-100.0000,-0.0010,21.7367,55.2268,0.0200,0.0000
-5.2070,42.9709,-1.7673,0.2486,0.3283,0.1200,0.0000,0.0000,0.0000,0.0722,-0.1901,-0.0035,996,1502,1500,1500,2008,1000,1505,1000,1000,1505,1502,1500,1505,-3.9365,-0.3293,0.7623,-0.0290,-0.0065,1.0074,0.2588,0.1214,-0.2658,-0.1144,0.4430,0.1806,0.0876,0.4430,0.1806,0.0876,0.3000,0.0600,0.0002,0,-0.3000,-100.0000,-0.0010,-0.3000,-100.0000,-0.0010,21.7802,55.2634,0.0200,0.0000
-5.2345,42.9304,-1.7519,0.1657,0.3283,0.1200,0.0000,0.0000,0.0000,0.0723,-0.1898,-0.0035,996,1502,1500,1500,2008,1000,1505,1000,1000,1505,1502,1500,1505,-3.9474,-0.3859,0.7400,-0.0333,-0.0059,1.0056,0.2587,0.1210,-0.2656,-0.1140,0.4430,0.1806,0.0876,0.4430,0.1806,0.0876,0.3000,0.0600,0.0002,0,-0.3000,-100.0000,-0.0010,-0.3000,-100.0000,-0.0010,21.8238,55.3000,0.0200,0.0000
-5.2621,42.8895,-1.7367,0.2486,0.3283,0.1200,0.0000,0.0000,0.0000,0.0724,-0.1897,-0.0033,996,1502,1500,1500,2008,1000,1505,1000,1000,1505,1502,1500,1505,-3.9243,-0.3006,0.6888,-0.0313,-0.0089,1.0033,0.2589,0.1206,-0.2655,-0.1140,0.4430,0.1806,0.0876,0.4430,0.1806,0.0876,0.3000,0.0600,0.0002,0,-0.3000,-100.0000,-0.0010,-0.3000,-100.0000,-0.0010,21.8674,55.3366,0.0200,0.0000
-5.2892,42.8489,-1.7227,0.1657,0.2462,0.1200,0.0000,0.0000,0.0000,0.0724,-0.1895,-0.0032,996,1502,1500,1500,2008,1000,1505,1000,1000,1505,1502,1500,1505,-3.7977,-0.3991,0.6673,-0.0308,-0.0049,1.0106,0.2587,0.1203,-0.2652,-0.1138,0.4430,0.1806,0.0876,0.4430,0.1806,0.0876,0.3000,0.0600,0.0002,0,-0.3000,-100.0000,-0.0010,-0.3000,-100.0000,-0.0010,21.9110,55.3731,0.0200,0.0000
-5.3153,42.8079,-1.7104,0.2486,0.3283,0.1800,0.0000,0.0000,0.0000,0.0726,-0.1893,-0.0037,996,1502,1500,1500,2008,1000,1505,1000,1000,1505,1502,1500,1505,-3.5088,-0.3763,0.4789,-0.0275,-0.0081,1.0021,0.2582,0.1205,-0.2656,-0.1130,0.4430,0.1806,0.0876,0.4430,0.1806,0.0876,0.3000,0.0600,0.0002,0,-0.3000,-100.0000,-0.0010,-0.3000,-100.0000,-0.0010,21.9547,55.4096,0.0300,0.0000
-5.3381,42.7668,-1.6983,0.1657,0.3283,0.1200,0.0000,0.0000,0.0000,0.0721,-0.1891,-0.0028,996,1502,1500,1500,2008,1000,1505,1000,1000,1505,1502,1500,1505,-3.1105,-0.3589,0.4889,-0.0308,-0.0087,1.0056,0.2584,0.1198,-0.2639,-0.1143,0.4430,0.1806,0.0876,0.4430,0.1806,0.0876,0.3000,0.0600,0.0002,0,-0.3000,-100.0000,-0.0010,-0.3000,-100.0000,-0.0010,21.9983,55.4462,0.0200,0.0000
-5.3581,42.7262,-1.6871,0.1657,0.3283,0.1200,0.0000,0.0000,0.0000,0.0718,-0.1890,-0.0026,996,1502,1500,1500,2008,1000,1505,1000,1000,1505,1502,1500,1505,-2.7606,-0.2792,0.4474,-0.0312,-0.0109,1.0065,0.2583,0.1198,-0.2635,-0.1146,0.4430,0.1806,0.0876,0.4430,0.1806,0.0876,0.3000,0.0600,0.0002,0,-0.3000,-100.0000,-0.0010,-0.3000,-100.0000,-0.0010,22.0419,55.4827,0.0200,0.0000
-5.3735,42.6867,-1.6764,0.1657,0.3283,0.1200,0.0000,0.0000,0.0000,0.0715,-0.1890,-0.0025,996,1502,1500,1500,2008,1000,1505,1000,1000,1505,1502,1500,1505,-2.2532,-0.1521,0.4094,-0.0306,-0.0149,1.0122,0.2579,0.1200,-0.2629,-0.1150,0.4430,0.1806,0.0876,0.4430,0.1806,0.0876,0.3000,0.0600,0.0002,0,-0.3000,-100.0000,-0.0010,-0.3000,-100.0000,-0.0010,22.0856,55.5192,0.0200,0.0000
-5.3842,42.6486,-1.6660,0.3315,0.3283,0.1200,0.0000,0.0000,0.0000,0.0711,-0.1889,-0.0022,996,1502,1500,1500,2008,1000,1505,1000,1000,1505,1502,1500,1505,-1.8401,-0.0437,0.3293,-0.0314,-0.0139,1.0059,0.2578,0.1200,-0.2623,-0.1155,0.4430,0.1806,0.0876,0.4430,0.1806,0.0876,0.3000,0.0600,0.0002,0,-0.3000,-100.0000,-0.0010,-0.3000,-100.0000,-0.0010,22.1293,55.5557,0.0200,0.0000
-5.3919,42.6113,-1.6569,0.2486,0.3283,0.1200,0.0000,0.0000,0.0000,0.0709,-0.1888,-0.0021,996,1502,1500,1500,2008,1000,1505,1000,1000,1505,1502,1500,1505,-1.5421,0.0311,0.2876,-0.0321,-0.0133,1.0025,0.2576,0.1200,-0.2618,-0.1158,0.4430,0.1806,0.0876,0.4430,0.1806,0.0876,0.3000,0.0600,0.0002,0,-0.3000,-100.0000,-0.0010,-0.3000,-100.0000,-0.0010,22.1730,55.5922,0.0200,0.0000
-5.3983,42.5748,-1.6485,0.2486,0.3283,0.1800,0.0000,0.0000,0.0000,0.0710,-0.1887,-0.0030,996,1502,1500,1500,2008,1000,1505,1000,1000,1505,1502,1500,1505,-1.3473,0.0781,0.2658,-0.0339,-0.0112,1.0018,0.2567,0.1207,-0.2628,-0.1146,0.4430,0.1806,0.0876,0.4430,0.1806,0.0876,0.3000,0.0600,0.0002,0,-0.3000,-100.0000,-0.0010,-0.3000,-100.0000,-0.0010,22.2167,55.6286,0.0300,0.0000
-5.4035,42.5378,-1.6414,0.1657,0.2462,0.1200,0.0000,0.0000,0.0000,0.0707,-0.1885,-0.0015,996,1502,1500,1500,2008,1000,1505,1000,1000,1505,1502,1500,1505,-1.2628,0.0405,0.0974,-0.0278,-0.0078,1.0058,0.2577,0.1193,-0.2607,-0.1162,0.4430,0.1806,0.0876,0.4430,0.1806,0.0876,0.3000,0.0600,0.0002,0,-0.3000,-100.0000,-0.0010,-0.3000,-100.0000,-0.0010,22.2605,55.6651,0.0200,0.0000
-5.4105,42.5006,-1.6354,0.2486,0.3283,0.1200,0.0000,0.0000,0.0000,0.0710,-0.1883,-0.0015,996,1502,1500,1500,2008,1000,1505,1000,1000,1505,1502,1500,1505,-1.5434,0.0446,0.0966,-0.0297,-0.0073,1.0048,0.2578,0.1188,-0.2609,-0.1158,0.4430,0.1806,0.0876,0.4430,0.1806,0.0876,0.3000,0.0600,0.0002,0,-0.3000,-100.0000,-0.0010,-0.3000,-100.0000,-0.0010,22.3042,55.7016,0.0200,0.0000
-5.4200,42.4632,-1.6291,0.0829,0.0821,0.1200,0.0000,0.0000,0.0000,0.0713,-0.1882,-0.0015,996,1502,1500,1500,2008,1000,1505,1000,1000,1505,1502,1500,1505,-1.8074,0.0864,0.1000,-0.0309,-0.0035,1.0069,0.2579,0.1185,-0.2610,-0.1154,0.4430,0.1806,0.0876,0.4430,0.1806,0.0876,0.3000,0.0600,0.0002,0,-0.3000,-100.0000,-0.0010,-0.3000,-100.0000,-0.0010,22.3480,55.7381,0.0200,0.0000
-5.4332,42.4263,-1.6225,0.2486,0.2462,0.1200,0.0000,0.0000,0.0000,0.0717,-0.1880,-0.0018,996,1502,1500,1500,2008,1000,1505,1000,1000,1505,1502,1500,1505,-2.2818,0.0653,0.1582,-0.0306,-0.0033,1.0035,0.2580,0.1180,-0.2615,-0.1145,0.4430,0.1806,0.0876,0.4430,0.1806,0.0876,0.3000,0.0600,0.0002,0,-0.3000,-100.0000,-0.0010,-0.3000,-100.0000,-0.0010,22.3918,55.7745,0.0200,0.0000
-5.4510,42.3890,-1.6147,0.1657,0.3283,0.1200,0.0000,0.0000,0.0000,0.0723,-0.1878,-0.0022,996,1502,1500,1500,2008,1000,1505,1000,1000,1505,1502,1500,1505,-2.7754,-0.0030,0.2955,-0.0315,-0.0072,1.0037,0.2578,0.1177,-0.2623,-0.1133,0.4430,0.1806,0.0876,0.4430,0.1806,0.0876,0.3000,0.0600,0.0002,0,-0.3000,-100.0000,-0.0010,-0.3000,-100.0000,-0.0010,22.4356,55.8110,0.0200,0.0000
-5.4720,42.3507,-1.6042,0.2486,0.3283,0.1800,0.0000,0.0000,0.0000,0.0730,-0.1875,-0.0037,996,1502,1500,1500,2008,1000,1505,1000,1000,1505,1502,1500,1505,-3.2355,-0.1709,0.4776,-0.0324,-0.0041,1.0016,0.2568,0.1182,-0.2642,-0.1107,0.4430,0.1806,0.0876,0.4430,0.1806,0.0876,0.3000,0.0600,0.0002,0,-0.3000,-100.0000,-0.0010,-0.3000,-100.0000,-0.0010,22.4794,55.8475,0.0300,0.0000
-5.4956,42.3120,-1.5919,0.1657,0.3283,0.1200,0.0000,0.0000,0.0000,0.0731,-0.1873,-0.0032,996,1502,1500,1500,2008,1000,1505,1000,1000,1505,1502,1500,1505,-3.5637,-0.1871,0.6282,-0.0325,-0.0060,1.0012,0.2573,0.1173,-0.2636,-0.1110,0.4430,0.1806,0.0876,0.4430,0.1806,0.0876,0.3000,0.0600,0.0002,0,-0.3000,-100.0000,-0.0010,-0.3000,-100.0000,-0.0010,22.5233,55.8839,0.0200,0.0000
-5.5211,42.2718,-1.5777,0.2486,0.3283,0.1200,0.0000,0.0000,0.0000,0.0734,-0.1870,-0.0032,996,1502,1500,1500,2008,1000,1505,1000,1000,1505,1502,1500,1505,-3.7459,-0.3292,0.6570,-0.0326,-0.0118,1.0068,0.2572,0.1168,-0.2636,-0.1103,0.4430,0.1806,0.0876,0.4430,0.1806,0.0876,0.3000,0.0600,0.0002,0,-0.3000,-100.0000,-0.0010,-0.3000,-100.0000,-0.0010,22.5671,55.9203,0.0200,0.0000
-5.5472,42.2307,-1.5638,0.2486,0.3283,0.1200,0.0000,0.0000,0.0000,0.0735,-0.1867,-0.0027,996,1502,1500,1500,2008,1000,1505,1000,1000,1505,1502,1500,1505,-3.6781,-0.3967,0.5147,-0.0365,-0.0144,1.0040,0.2575,0.1160,-0.2629,-0.1105,0.4430,0.1806,0.0876,0.4430,0.1806,0.0876,0.3000,0.0600,0.0002,0,-0.3000,-100.0000,-0.0010,-0.3000,-100.0000,-0.0010,22.6109,55.9567,0.0200,0.0000
-5.5733,42.1890,-1.5515,0.2486,0.3283,0.1200,0.0000,0.0000,0.0000,0.0733,-0.1865,-0.0026,996,1502,1500,1500,2008,1000,1505,1000,1000,1505,1502,1500,1505,-3.3970,-0.4321,0.4318,-0.0321,-0.0153,1.0042,0.2573,0.1157,-0.2624,-0.1106,0.4430,0.1806,0.0876,0.4430,0.1806,0.0876,0.3000,0.0600,0.0002,0,-0.3000,-100.0000,-0.0010,-0.3000,-100.0000,-0.0010,22.6548,55.9931,0.0200,0.0000
-5.5978,42.1469,-1.5422,0.2486,0.3283,0.1200,0.0000,0.0000,0.0000,0.0732,-0.1863,-0.0019,996,1502,1500,1500,2008,1000,1505,1000,1000,1505,1502,1500,1505,-3.1571,-0.4789,0.2215,-0.0311,-0.0196,1.0048,0.2577,0.1149,-0.2614,-0.1112,0.4430,0.1806,0.0876,0.4430,0.1806,0.0876,0.3000,0.0600,0.0002,0,-0.3000,-100.0000,-0.0010,-0.3000,-100.0000,-0.0010,22.6987,56.0295,0.0200,0.0000
-5.6215,42.1050,-1.5368,0.1657,0.2462,0.1800,0.0000,0.0000,0.0000,0.0732,-0.1862,-0.0022,996,1502,1500,1500,2008,1000,1505,1000,1000,1505,1502,1500,1505,-2.6634,-0.3841,-0.0068,-0.0304,-0.0224,1.0019,0.2572,0.1152,-0.2616,-0.1108,0.4430,0.1806,0.0876,0.4430,0.1806,0.0876,0.3000,0.0600,0.0002,0,-0.3000,-100.0000,-0.0010,-0.3000,-100.0000,-0.0010,22.7426,56.0658,0.0300,0.0000
-5.6408,42.0635,-1.5333,0.2486,0.4104,0.1200,0.0000,0.0000,0.0000,0.0725,-0.1861,-0.0009,996,1502,1500,1500,2008,1000,1505,1000,1000,1505,1502,1500,1505,-2.0737,-0.3002,-0.1231,-0.0282,-0.0213,1.0041,0.2577,0.1145,-0.2595,-0.1127,0.4430,0.1806,0.0876,0.4430,0.1806,0.0876,0.3000,0.0600,0.0002,0,-0.3000,-100.0000,-0.0010,-0.3000,-100.0000,-0.0010,22.7865,56.1022,0.0200,0.0000
-5.6551,42.0222,-1.5312,0.2486,0.3283,0.1200,0.0000,0.0000,0.0000,0.0721,-0.1858,-0.0006,996,1502,1500,1500,2008,1000,1505,1000,1000,1505,1502,1500,1505,-1.5389,-0.3947,-0.2388,-0.0317,-0.0213,1.0047,0.2573,0.1143,-0.2585,-0.1131,0.4430,0.1806,0.0876,0.4430,0.1806,0.0876,0.3000,0.0600,0.0002,0,-0.3000,-100.0000,-0.0010,-0.3000,-100.0000,-0.0010,22.8304,56.1385,0.0200,0.0000
-5.6636,41.9800,-1.5293,0.2486,0.3283,0.1200,0.0000,0.0000,0.0000,0.0717,-0.1856,-0.0008,996,1502,1500,1500,2008,1000,1505,1000,1000,1505,1502,1500,1505,-1.0724,-0.3769,-0.1755,-0.0321,-0.0209,1.0045,0.2566,0.1147,-0.2581,-0.1132,0.4430,0.1806,0.0876,0.4430,0.1806,0.0876,0.3000,0.0600,0.0002,0,-0.3000,-100.0000,-0.0010,-0.3000,-100.0000,-0.0010,22.8744,56.1750,0.0200,0.0000
-5.6668,41.9382,-1.5269,0.2486,0.2462,0.1200,0.0000,0.0000,0.0000,0.0713,-0.1855,-0.0008,996,1502,1500,1500,2008,1000,1505,1000,1000,1505,1502,1500,1505,-0.5539,-0.3428,-0.1532,-0.0290,-0.0185,0.9995,0.2560,0.1150,-0.2576,-0.1134,0.4430,0.1806,0.0876,0.4430,0.1806,0.0876,0.3000,0.0600,0.0002,0,-0.3000,-100.0000,-0.0010,-0.3000,-100.0000,-0.0010,22.9184,56.2114,0.0200,0.0000
-5.6656,41.8979,-1.5230,0.1657,0.3283,0.1200,0.0000,0.0000,0.0000,0.0712,-0.1855,-0.0012,996,1502,1500,1500,2008,1000,1505,1000,1000,1505,1502,1500,1505,-0.4713,-0.1435,-0.0081,-0.0296,-0.0161,1.0063,0.2555,0.1155,-0.2579,-0.1131,0.4430,0.1806,0.0876,0.4430,0.1806,0.0876,0.3000,0.0600,0.0002,0,-0.3000,-100.0000,-0.0010,-0.3000,-100.0000,-0.0010,22.9624,56.2478,0.0200,0.0000
-5.6635,41.8599,-1.5180,0.2486,0.2462,0.1800,0.0000,0.0000,0.0000,0.0715,-0.1855,-0.0025,996,1502,1500,1500,2008,1000,1505,1000,1000,1505,1502,1500,1505,-0.5329,0.0747,0.0720,-0.0283,-0.0118,1.0049,0.2545,0.1165,-0.2595,-0.1115,0.4430,0.1806,0.0876,0.4430,0.1806,0.0876,0.3000,0.0600,0.0002,0,-0.3000,-100.0000,-0.0010,-0.3000,-100.0000,-0.0010,23.0065,56.2842,0.0300,0.0000
-5.6633,41.8237,-1.5113,0.1657,0.2462,0.1200,0.0000,0.0000,0.0000,0.0717,-0.1855,-0.0018,996,1502,1500,1500,2008,1000,1505,1000,1000,1505,1502,1500,1505,-1.0654,0.2091,0.1590,-0.0291,-0.0115,1.0078,0.2554,0.1155,-0.2589,-0.1120,0.4430,0.1806,0.0876,0.4430,0.1806,0.0876,0.3000,0.0600,0.0002,0,-0.3000,-100.0000,-0.0010,-0.3000,-100.0000,-0.0010,23.0505,56.3205,0.0200,0.0000
-5.6691,41.7884,-1.5038,0.1657,0.2462,0.1200,0.0000,0.0000,0.0000,0.0723,-0.1852,-0.0020,996,1502,1500,1500,2008,1000,1505,1000,1000,1505,1502,1500,1505,-1.7049,0.1356,0.2326,-0.0341,-0.0084,1.0037,0.2555,0.1149,-0.2595,-0.1110,0.4430,0.1806,0.0876,0.4430,0.1806,0.0876,0.3000,0.0600,0.0002,0,-0.3000,-100.0000,-0.0010,-0.3000,-100.0000,-0.0010,23.0946,56.3569,0.0200,0.0000
-5.6814,41.7516,-1.4957,0.1657,0.3283,0.1200,0.0000,0.0000,0.0000,0.0730,-0.1850,-0.0019,996,1502,1500,1500,2008,1000,1505,1000,1000,1505,1502,1500,1505,-2.4972,0.0284,0.1995,-0.0318,-0.0076,1.0043,0.2561,0.1138,-0.2599,-0.1101,0.4430,0.1806,0.0876,0.4430,0.1806,0.0876,0.3000,0.0600,0.0002,0,-0.3000,-100.0000,-0.0010,-0.3000,-100.0000,-0.0010,23.1386,56.3932,0.0200,0.0000
-5.7016,41.7128,-1.4869,0.0829,0.0821,0.1200,0.0000,0.0000,0.0000,0.0737,-0.1846,-0.0021,996,1502,1500,1500,2008,1000,1505,1000,1000,1505,1502,1500,1505,-3.1967,-0.2248,0.2854,-0.0330,-0.0074,1.0075,0.2562,0.1130,-0.2605,-0.1087,0.4430,0.1806,0.0876,0.4430,0.1806,0.0876,0.3000,0.0600,0.0002,0,-0.3000,-100.0000,-0.0010,-0.3000,-100.0000,-0.0010,23.1827,56.4296,0.0200,0.0000
-5.7287,41.6720,-1.4784,0.2486,0.3283,0.1200,0.0000,0.0000,0.0000,0.0743,-0.1842,-0.0019,996,1502,1500,1500,2008,1000,1505,1000,1000,1505,1502,1500,1505,-3.7104,-0.4238,0.1895,-0.0289,-0.0104,1.0051,0.2567,0.1118,-0.2604,-0.1081,0.4430,0.1806,0.0876,0.4430,0.1806,0.0876,0.3000,0.0600,0.0002,0,-0.3000,-100.0000,-0.0010,-0.3000,-100.0000,-0.0010,23.2268,56.4659,0.0200,0.0000
-5.7594,41.6300,-1.4705,0.0000,0.0821,0.1800,0.0000,0.0000,0.0000,0.0748,-0.1841,-0.0027,996,1502,1500,1500,2008,1000,1505,1000,1000,1505,1502,1500,1505,-3.8139,-0.4110,0.1530,-0.0304,-0.0152,1.0046,0.2561,0.1120,-0.2616,-0.1065,0.4430,0.1806,0.0876,0.4430,0.1806,0.0876,0.3000,0.0600,0.0002,0,-0.3000,-100.0000,-0.0010,-0.3000,-100.0000,-0.0010,23.2709,56.5022,0.0300,0.0000
-5.7906,41.5880,-1.4643,0.1657,0.2462,0.1200,0.0000,0.0000,0.0000,0.0744,-0.1840,-0.0016,996,1502,1500,1500,2008,1000,1505,1000,1000,1505,1502,1500,1505,-3.5272,-0.3137,0.0988,-0.0303,-0.0237,1.0072,0.2568,0.1112,-0.2600,-0.1079,0.4430,0.1806,0.0876,0.4430,0.1806,0.0876,0.3000,0.0600,0.0002,0,-0.3000,-100.0000,-0.0010,-0.3000,-100.0000,-0.0010,23.3150,56.5384,0.0200,0.0000
-5.8176,41.5467,-1.4590,0.1657,0.2462,0.1200,0.0000,0.0000,0.0000,0.0740,-0.1838,-0.0016,996,1502,1500,1500,2008,1000,1505,1000,1000,1505,1502,1500,1505,-2.9092,-0.2434,0.0888,-0.0300,-0.0315,1.0054,0.2563,0.1114,-0.2594,-0.1083,0.4430,0.1806,0.0876,0.4430,0.1806,0.0876,0.3000,0.0600,0.0002,0,-0.3000,-100.0000,-0.0010,-0.3000,-100.0000,-0.0010,23.3592,56.5747,0.0200,0.0000
-5.8370,41.5067,-1.4540,0.1657,0.1642,0.1200,0.0000,0.0000,0.0000,0.0733,-0.1837,-0.0015,996,1502,1500,1500,2008,1000,1505,1000,1000,1505,1502,1500,1505,-2.0215,-0.1756,0.0633,-0.0287,-0.0356,0.9998,0.2556,0.1119,-0.2585,-0.1089,0.4430,0.1806,0.0876,0.4430,0.1806,0.0876,0.3000,0.0600,0.0002,0,-0.3000,-100.0000,-0.0010,-0.3000,-100.0000,-0.0010,23.4033,56.6110,0.0200,0.0000
-5.8467,41.4682,-1.4488,0.0000,0.3283,0.1200,0.0000,0.0000,0.0000,0.0725,-0.1837,-0.0017,996,1502,1500,1500,2008,1000,1505,1000,1000,1505,1502,1500,1505,-1.0891,0.0245,0.1367,-0.0306,-0.0333,0.9991,0.2545,0.1129,-0.2580,-0.1095,0.4430,0.1806,0.0876,0.4430,0.1806,0.0876,0.3000,0.0600,0.0002,0,-0.3000,-100.0000,-0.0010,-0.3000,-100.0000,-0.0010,23.4475,56.6472,0.0200,0.0000
-5.8473,41.4303,-1.4444,0.1657,0.2462,0.1200,0.0000,0.0000,0.0000,0.0718,-0.1835,-0.0013,996,1502,1500,1500,2008,1000,1505,1000,1000,1505,1502,1500,1505,-0.2612,0.0000,0.0152,-0.0317,-0.0299,1.0029,0.2540,0.1130,-0.2567,-0.1104,0.4430,0.1806,0.0876,0.4430,0.1806,0.0876,0.3000,0.0600,0.0002,0,-0.3000,-100.0000,-0.0010,-0.3000,-100.0000,-0.0010,23.4916,56.6835,0.0200,0.0000
-5.8415,41.3916,-1.4419,0.1657,0.1642,0.1800,0.0000,0.0000,0.0000,0.0716,-0.1833,-0.0018,996,1502,1500,1500,2008,1000,1505,1000,1000,1505,1502,1500,1505,0.2968,-0.0704,-0.1474,-0.0308,-0.0259,1.0025,0.2530,0.1136,-0.2567,-0.1099,0.4430,0.1806,0.0876,0.4430,0.1806,0.0876,0.3000,0.0600,0.0002,0,-0.3000,-100.0000,-0.0010,-0.3000,-100.0000,-0.0010,23.5358,56.7197,0.0300,0.0000
-5.8312,41.3528,-1.4396,0.1657,0.3283,0.1200,0.0000,0.0000,0.0000,0.0710,-0.1831,-0.0006,996,1502,1500,1500,2008,1000,1505,1000,1000,1505,1502,1500,1505,0.5757,-0.0980,-0.1976,-0.0291,-0.0193,1.0085,0.2535,0.1127,-0.2547,-0.1115,0.4430,0.1806,0.0876,0.4430,0.1806,0.0876,0.3000,0.0600,0.0002,0,-0.3000,-100.0000,-0.0010,-0.3000,-100.0000,-0.0010,23.5801,56.7559,0.0200,0.0000
-5.8203,41.3132,-1.4382,0.1657,0.3283,0.1200,0.0000,0.0000,0.0000,0.0710,-0.1829,-0.0005,996,1502,1500,1500,2008,1000,1505,1000,1000,1505,1502,1500,1505,0.5070,-0.1572,-0.2686,-0.0303,-0.0171,1.0070,0.2534,0.1124,-0.2544,-0.1113,0.4430,0.1806,0.0876,0.4430,0.1806,0.0876,0.3000,0.0600,0.0002,0,-0.3000,-100.0000,-0.0010,-0.3000,-100.0000,-0.0010,23.6243,56.7922,0.0200,0.0000
-5.8121,41.2744,-1.4359,0.1657,0.1642,0.1200,0.0000,0.0000,0.0000,0.0714,-0.1828,-0.0009,996,1502,1500,1500,2008,1000,1505,1000,1000,1505,1502,1500,1505,0.0513,-0.0296,-0.1303,-0.0285,-0.0142,1.0041,0.2533,0.1123,-0.2551,-0.1106,0.4430,0.1806,0.0876,0.4430,0.1806,0.0876,0.3000,0.0600,0.0002,0,-0.3000,-100.0000,-0.0010,-0.3000,-100.0000,-0.0010,23.6685,56.8284,0.0200,0.0000
-5.8081,41.2354,-1.4324,0.0829,0.3283,0.1200,0.0000,0.0000,0.0000,0.0718,-0.1826,-0.0014,996,1502,1500,1500,2008,1000,1505,1000,1000,1505,1502,1500,1505,-0.4540,-0.0325,0.0146,-0.0293,-0.0123,1.0007,0.2531,0.1122,-0.2558,-0.1095,0.4430,0.1806,0.0876,0.4430,0.1806,0.0876,0.3000,0.0600,0.0002,0,-0.3000,-100.0000,-0.0010,-0.3000,-100.0000,-0.0010,23.7128,56.8647,0.0200,0.0000
-5.8071,41.1968,-1.4271,0.2486,0.1642,0.1200,0.0000,0.0000,0.0000,0.0722,-0.1824,-0.0015,996,1502,1500,1500,2008,1000,1505,1000,1000,1505,1502,1500,1505,-0.8486,-0.0630,0.0680,-0.0289,-0.0137,1.0054,0.2531,0.1118,-0.2561,-0.1088,0.4430,0.1806,0.0876,0.4430,0.1806,0.0876,0.3000,0.0600,0.0002,0,-0.3000,-100.0000,-0.0010,-0.3000,-100.0000,-0.0010,23.7571,56.9009,0.0200,0.0000
-5.8088,41.1582,-1.4199,0.1657,0.1642,0.1800,0.0000,0.0000,0.0000,0.0726,-0.1823,-0.0032,996,1502,1500,1500,2008,1000,1505,1000,1000,1505,1502,1500,1505,-1.0413,-0.0794,0.3249,-0.0287,-0.0196,1.0023,0.2516,0.1129,-0.2581,-0.1064,0.4430,0.1806,0.0876,0.4430,0.1806,0.0876,0.3000,0.0600,0.0002,0,-0.3000,-100.0000,-0.0010,-0.3000,-100.0000,-0.0010,23.8014,56.9371,0.0300,0.0000
-5.8099,41.1196,-1.4110,0.0829,0.3283,0.1200,0.0000,0.0000,0.0000,0.0723,-0.1822,-0.0024,996,1502,1500,1500,2008,1000,1505,1000,1000,1505,1502,1500,1505,-0.9947,0.0149,0.3645,-0.0312,-0.0218,1.0073,0.2521,0.1123,-0.2569,-0.1075,0.4430,0.1806,0.0876,0.4430,0.1806,0.0876,0.3000,0.0600,0.0002,0,-0.3000,-100.0000,-0.0010,-0.3000,-100.0000,-0.0010,23.8457,56.9732,0.0200,0.0000
-5.8093,41.0823,-1.4012,0.1657,0.0821,0.1200,0.0000,0.0000,0.0000,0.0722,-0.1821,-0.0026,996,1502,1500,1500,2008,1000,1505,1000,1000,1505,1502,1500,1505,-0.8412,0.0791,0.4316,-0.0283,-0.0235,1.0066,0.2516,0.1125,-0.2568,-0.1073,0.4430,0.1806,0.0876,0.4430,0.1806,0.0876,0.3000,0.0600,0.0002,0,-0.3000,-100.0000,-0.0010,-0.3000,-100.0000,-0.0010,23.8900,57.0094,0.0200,0.0000
-5.8072,41.0458,-1.3918,0.1657,0.2462,0.1200,0.0000,0.0000,0.0000,0.0719,-0.1820,-0.0024,996,1502,1500,1500,2008,1000,1505,1000,1000,1505,1502,1500,1505,-0.5961,0.1645,0.3664,-0.0315,-0.0247,1.0055,0.2515,0.1124,-0.2563,-0.1077,0.4430,0.1806,0.0876,0.4430,0.1806,0.0876,0.3000,0.0600,0.0002,0,-0.3000,-100.0000,-0.0010,-0.3000,-100.0000,-0.0010,23.9343,57.0456,0.0200,0.0000
-5.8040,41.0106,-1.3847,0.1657,0.2462,0.1200,0.0000,0.0000,0.0000,0.0718,-0.1819,-0.0018,996,1502,1500,1500,2008,1000,1505,1000,1000,1505,1502,1500,1505,-0.4598,0.3076,0.1730,-0.0277,-0.0264,1.0067,0.2519,0.1120,-0.2556,-0.1083,0.4430,0.1806,0.0876,0.4430,0.1806,0.0876,0.3000,0.0600,0.0002,0,-0.3000,-100.0000,-0.0010,-0.3000,-100.0000,-0.0010,23.9787,57.0818,0.0200,0.0000
-5.8028,40.9764,-1.3794,0.1657,0.1642,0.1200,0.0000,0.0000,0.0000,0.0720,-0.1819,-0.0013,996,1502,1500,1500,2008,1000,1505,1000,1000,1505,1502,1500,1505,-0.6663,0.4216,0.0162,-0.0307,-0.0224,1.0038,0.2525,0.1113,-0.2552,-0.1086,0.4430,0.1806,0.0876,0.4430,0.1806,0.0876,0.3000,0.0600,0.0002,0,-0.3000,-100.0000,-0.0010,-0.3000,-100.0000,-0.0010,24.0231,57.1180,0.0200,0.0000
-5.8061,40.9431,-1.3757,0.1657,0.2462,0.1800,0.0000,0.0000,0.0000,0.0727,-0.1819,-0.0021,996,1502,1500,1500,2008,1000,1505,1000,1000,1505,1502,1500,1505,-1.2255,0.5476,-0.0552,-0.0311,-0.0152,1.0000,0.2525,0.1112,-0.2567,-0.1070,0.4430,0.1806,0.0876,0.4430,0.1806,0.0876,0.3000,0.0600,0.0002,0,-0.3000,-100.0000,-0.0010,-0.3000,-100.0000,-0.0010,24.0676,57.1543,0.0300,0.0000
-5.8179,40.9108,-1.3732,0.0829,0.0821,0.1200,0.0000,0.0000,0.0000,0.0732,-0.1817,-0.0010,996,1502,1500,1500,2008,1000,1505,1000,1000,1505,1502,1500,1505,-2.0112,0.5353,-0.1160,-0.0324,-0.0125,1.0029,0.2540,0.1095,-0.2559,-0.1075,0.4430,0.1806,0.0876,0.4430,0.1806,0.0876,0.3000,0.0600,0.0002,0,-0.3000,-100.0000,-0.0010,-0.3000,-100.0000,-0.0010,24.1121,57.1905,0.0200,0.0000
-5.8378,40.8774,-1.3706,0.2486,0.2462,0.1200,0.0000,0.0000,0.0000,0.0741,-0.1814,-0.0012,996,1502,1500,1500,2008,1000,1505,1000,1000,1505,1502,1500,1505,-2.8993,0.4062,-0.0248,-0.0353,-0.0068,1.0081,0.2543,0.1086,-0.2568,-0.1061,0.4430,0.1806,0.0876,0.4430,0.1806,0.0876,0.3000,0.0600,0.0002,0,-0.3000,-100.0000,-0.0010,-0.3000,-100.0000,-0.0010,24.1566,57.2268,0.0200,0.0000
-5.8654,40.8425,-1.3664,0.2486,0.1642,0.1200,0.0000,0.0000,0.0000,0.0749,-0.1811,-0.0013,996,1502,1500,1500,2008,1000,1505,1000,1000,1505,1502,1500,1505,-3.6368,0.2319,-0.0013,-0.0271,-0.0070,1.0058,0.2546,0.1076,-0.2573,-0.1049,0.4430,0.1806,0.0876,0.4430,0.1806,0.0876,0.3000,0.0600,0.0002,0,-0.3000,-100.0000,-0.0010,-0.3000,-100.0000,-0.0010,24.2010,57.2629,0.0200,0.0000
-5.8989,40.8078,-1.3608,0.1657,0.2462,0.1200,0.0000,0.0000,0.0000,0.0755,-0.1810,-0.0017,996,1502,1500,1500,2008,1000,1505,1000,1000,1505,1502,1500,1505,-4.1736,0.2854,0.1265,-0.0298,-0.0120,1.0057,0.2548,0.1073,-0.2582,-0.1039,0.4430,0.1806,0.0876,0.4430,0.1806,0.0876,0.3000,0.0600,0.0002,0,-0.3000,-100.0000,-0.0010,-0.3000,-100.0000,-0.0010,24.2455,57.2991,0.0200,0.0000
-5.9352,40.7727,-1.3539,0.1657,0.2462,0.1200,0.0000,0.0000,0.0000,0.0757,-0.1809,-0.0022,996,1502,1500,1500,2008,1000,1505,1000,1000,1505,1502,1500,1505,-4.2510,0.2796,0.2866,-0.0288,-0.0222,1.0048,0.2543,0.1074,-0.2588,-0.1029,0.4430,0.1806,0.0876,0.4430,0.1806,0.0876,0.3000,0.0600,0.0002,0,-0.3000,-100.0000,-0.0010,-0.3000,-100.0000,-0.0010,24.2900,57.3352,0.0200,0.0000
-5.9707,40.7370,-1.3453,0.1657,0.2462,0.1800,0.0000,0.0000,0.0000,0.0761,-0.1805,-0.0036,996,1502,1500,1500,2008,1000,1505,1000,1000,1505,1502,1500,1505,-4.1881,0.0928,0.4426,-0.0285,-0.0309,1.0012,0.2530,0.1081,-0.2602,-0.1009,0.4430,0.1806,0.0876,0.4430,0.1806,0.0876,0.3000,0.0600,0.0002,0,-0.3000,-100.0000,-0.0010,-0.3000,-100.0000,-0.0010,24.3344,57.3713,0.0300,0.0000
-6.0026,40.6995,-1.3356,0.1657,0.2462,0.1200,0.0000,0.0000,0.0000,0.0755,-0.1803,-0.0029,996,1502,1500,1500,2008,1000,1505,1000,1000,1505,1502,1500,1505,-3.6999,0.0086,0.5178,-0.0291,-0.0380,1.0016,0.2529,0.1077,-0.2587,-0.1019,0.4430,0.1806,0.0876,0.4430,0.1806,0.0876,0.3000,0.0600,0.0002,0,-0.3000,-100.0000,-0.0010,-0.3000,-100.0000,-0.0010,24.3789,57.4074,0.0200,0.0000
-6.0284,40.6609,-1.3255,0.2486,0.3283,0.1200,0.0000,0.0000,0.0000,0.0751,-0.1800,-0.0027,996,1502,1500,1500,2008,1000,1505,1000,1000,1505,1502,1500,1505,-3.0550,-0.2046,0.4644,-0.0303,-0.0400,1.0016,0.2523,0.1076,-0.2577,-0.1022,0.4430,0.1806,0.0876,0.4430,0.1806,0.0876,0.3000,0.0600,0.0002,0,-0.3000,-100.0000,-0.0010,-0.3000,-100.0000,-0.0010,24.4235,57.4435,0.0200,0.0000
-6.0477,40.6213,-1.3161,0.1657,0.2462,0.1200,0.0000,0.0000,0.0000,0.0746,-0.1798,-0.0021,996,1502,1500,1500,2008,1000,1505,1000,1000,1505,1502,1500,1505,-2.3715,-0.1195,0.2617,-0.0290,-0.0364,0.9985,0.2523,0.1074,-0.2565,-0.1032,0.4430,0.1806,0.0876,0.4430,0.1806,0.0876,0.3000,0.0600,0.0002,0,-0.3000,-100.0000,-0.0010,-0.3000,-100.0000,-0.0010,24.4680,57.4796,0.0200,0.0000
-6.0618,40.5811,-1.3098,0.1657,0.3283,0.1200,0.0000,0.0000,0.0000,0.0741,-0.1796,-0.0015,996,1502,1500,1500,2008,1000,1505,1000,1000,1505,1502,1500,1505,-1.7552,-0.1851,0.0548,-0.0304,-0.0338,1.0044,0.2522,0.1071,-0.2552,-0.1040,0.4430,0.1806,0.0876,0.4430,0.1806,0.0876,0.3000,0.0600,0.0002,0,-0.3000,-100.0000,-0.0010,-0.3000,-100.0000,-0.0010,24.5125,57.5156,0.0200,0.0000
-6.0716,40.5404,-1.3066,0.2486,0.2462,0.1200,0.0000,0.0000,0.0000,0.0737,-0.1794,-0.0008,996,1502,1500,1500,2008,1000,1505,1000,1000,1505,1502,1500,1505,-1.2545,-0.1666,-0.1843,-0.0292,-0.0296,1.0030,0.2524,0.1065,-0.2539,-0.1050,0.4430,0.1806,0.0876,0.4430,0.1806,0.0876,0.3000,0.0600,0.0002,0,-0.3000,-100.0000,-0.0010,-0.3000,-100.0000,-0.0010,24.5571,57.5517,0.0200,0.0000
-6.0784,40.5004,-1.3052,0.1657,0.2462,0.1800,0.0000,0.0000,0.0000,0.0738,-0.1793,-0.0016,996,1502,1500,1500,2008,1000,1505,1000,1000,1505,1502,1500,1505,-1.0405,-0.1468,-0.2277,-0.0299,-0.0278,1.0043,0.2515,0.1071,-0.2546,-0.1039,0.4430,0.1806,0.0876,0.4430,0.1806,0.0876,0.3000,0.0600,0.0002,0,-0.3000,-100.0000,-0.0010,-0.3000,-100.0000,-0.0010,24.6017,57.5878,0.0300,0.0000
-6.0841,40.4603,-1.3044,0.1657,0.1642,0.1200,0.0000,0.0000,0.0000,0.0734,-0.1791,-0.0006,996,1502,1500,1500,2008,1000,1505,1000,1000,1505,1502,1500,1505,-0.8407,-0.1663,-0.2434,-0.0321,-0.0282,1.0085,0.2519,0.1063,-0.2531,-0.1051,0.4430,0.1806,0.0876,0.4430,0.1806,0.0876,0.3000,0.0600,0.0002,0,-0.3000,-100.0000,-0.0010,-0.3000,-100.0000,-0.0010,24.6463,57.6238,0.0200,0.0000
-6.0876,40.4187,-1.3021,0.1657,0.2462,0.1200,0.0000,0.0000,0.0000,0.0734,-0.1788,-0.0011,996,1502,1500,1500,2008,1000,1505,1000,1000,1505,1502,1500,1505,-0.8208,-0.3278,-0.0980,-0.0331,-0.0265,1.0040,0.2511,0.1065,-0.2532,-0.1043,0.4430,0.1806,0.0876,0.4430,0.1806,0.0876,0.3000,0.0600,0.0002,0,-0.3000,-100.0000,-0.0010,-0.3000,-100.0000,-0.0010,24.6909,57.6599,0.0200,0.0000
-6.0900,40.3766,-1.2983,0.2486,0.1642,0.1200,0.0000,0.0000,0.0000,0.0734,-0.1785,-0.0016,996,1502,1500,1500,2008,1000,1505,1000,1000,1505,1502,1500,1505,-0.7998,-0.4244,0.0568,-0.0316,-0.0271,1.0034,0.2503,0.1067,-0.2534,-0.1036,0.4430,0.1806,0.0876,0.4430,0.1806,0.0876,0.3000,0.0600,0.0002,0,-0.3000,-100.0000,-0.0010,-0.3000,-100.0000,-0.0010,24.7356,57.6960,0.0200,0.0000
-6.0901,40.3337,-1.2917,0.2486,0.3283,0.1200,0.0000,0.0000,0.0000,0.0733,-0.1783,-0.0020,996,1502,1500,1500,2008,1000,1505,1000,1000,1505,1502,1500,1505,-0.6935,-0.4538,0.2067,-0.0291,-0.0295,1.0052,0.2496,0.1070,-0.2535,-0.1031,0.4430,0.1806,0.0876,0.4430,0.1806,0.0876,0.3000,0.0600,0.0002,0,-0.3000,-100.0000,-0.0010,-0.3000,-100.0000,-0.0010,24.7803,57.7320,0.0200,0.0000
-6.0874,40.2902,-1.2838,0.1657,0.2462,0.1200,0.0000,0.0000,0.0000,0.0730,-0.1780,-0.0020,996,1502,1500,1500,2008,1000,1505,1000,1000,1505,1502,1500,1505,-0.4062,-0.5095,0.2411,-0.0328,-0.0279,1.0052,0.2490,0.1071,-0.2531,-0.1030,0.4430,0.1806,0.0876,0.4430,0.1806,0.0876,0.3000,0.0600,0.0002,0,-0.3000,-100.0000,-0.0010,-0.3000,-100.0000,-0.0010,24.8249,57.7681,0.0200,0.0000
-6.0814,40.2471,-1.2755,0.1657,0.2462,0.1800,0.0000,0.0000,0.0000,0.0730,-0.1779,-0.0031,996,1502,1500,1500,2008,1000,1505,1000,1000,1505,1502,1500,1505,-0.1300,-0.4282,0.3018,-0.0313,-0.0342,1.0095,0.2478,0.1081,-0.2541,-0.1018,0.4430,0.1806,0.0876,0.4430,0.1806,0.0876,0.3000,0.0600,0.0002,0,-0.3000,-100.0000,-0.0010,-0.3000,-100.0000,-0.0010,24.8697,57.8042,0.0300,0.0000
-6.0720,40.2042,-1.2676,0.1657,0.2462,0.1200,0.0000,0.0000,0.0000,0.0724,-0.1777,-0.0019,996,1502,1500,1500,2008,1000,1505,1000,1000,1505,1502,1500,1505,0.2166,-0.4233,0.1980,-0.0307,-0.0333,1.0077,0.2482,0.1072,-0.2520,-0.1034,0.4430,0.1806,0.0876,0.4430,0.1806,0.0876,0.3000,0.0600,0.0002,0,-0.3000,-100.0000,-0.0010,-0.3000,-100.0000,-0.0010,24.9144,57.8403,0.0200,0.0000
-6.0602,40.1617,-1.2618,0.0829,0.0821,0.1200,0.0000,0.0000,0.0000,0.0720,-0.1776,-0.0013,996,1502,1500,1500,2008,1000,1505,1000,1000,1505,1502,1500,1505,0.5892,-0.3597,0.0114,-0.0280,-0.0311,1.0047,0.2483,0.1069,-0.2510,-0.1042,0.4430,0.1806,0.0876,0.4430,0.1806,0.0876,0.3000,0.0600,0.0002,0,-0.3000,-100.0000,-0.0010,-0.3000,-100.0000,-0.0010,24.9592,57.8763,0.0200,0.0000
-6.0461,40.1200,-1.2576,0.1657,0.3283,0.1200,0.0000,0.0000,0.0000,0.0717,-0.1775,-0.0012,996,1502,1500,1500,2008,1000,1505,1000,1000,1505,1502,1500,1505,0.8713,-0.3019,-0.0168,-0.0276,-0.0356,1.0010,0.2479,0.1070,-0.2504,-0.1045,0.4430,0.1806,0.0876,0.4430,0.1806,0.0876,0.3000,0.0600,0.0002,0,-0.3000,-100.0000,-0.0010,-0.3000,-100.0000,-0.0010,25.0039,57.9123,0.0200,0.0000
-6.0303,40.0787,-1.2547,0.0829,0.1642,0.1200,0.0000,0.0000,0.0000,0.0714,-0.1774,-0.0008,996,1502,1500,1500,2008,1000,1505,1000,1000,1505,1502,1500,1505,1.1425,-0.1973,-0.1720,-0.0300,-0.0333,0.9997,0.2480,0.1068,-0.2496,-0.1052,0.4430,0.1806,0.0876,0.4430,0.1806,0.0876,0.3000,0.0600,0.0002,0,-0.3000,-100.0000,-0.0010,-0.3000,-100.0000,-0.0010,25.0487,57.9483,0.0200,0.0000
-6.0131,40.0377,-1.2530,0.1657,0.1642,0.1200,0.0000,0.0000,0.0000,0.0712,-0.1772,-0.0007,996,1502,1500,1500,2008,1000,1505,1000,1000,1505,1502,1500,1505,1.2833,-0.1684,-0.2049,-0.0307,-0.0296,1.0058,0.2477,0.1067,-0.2491,-0.1054,0.4430,0.1806,0.0876,0.4430,0.1806,0.0876,0.3000,0.0600,0.0002,0,-0.3000,-100.0000,-0.0010,-0.3000,-100.0000,-0.0010,25.0934,57.9844,0.0200,0.0000
-5.9946,39.9975,-1.2519,0.1657,0.1642,0.1800,0.0000,0.0000,0.0000,0.0712,-0.1771,-0.0015,996,1502,1500,1500,2008,1000,1505,1000,1000,1505,1502,1500,1505,1.4681,-0.0951,-0.2368,-0.0270,-0.0266,1.0040,0.2468,0.1074,-0.2499,-0.1044,0.4430,0.1806,0.0876,0.4430,0.1806,0.0876,0.3000,0.0600,0.0002,0,-0.3000,-100.0000,-0.0010,-0.3000,-100.0000,-0.0010,25.1383,58.0204,0.0300,0.0000
-5.9747,39.9584,-1.2516,0.1657,0.2462,0.1200,0.0000,0.0000,0.0000,0.0708,-0.1770,-0.0006,996,1502,1500,1500,2008,1000,1505,1000,1000,1505,1502,1500,1505,1.5382,-0.0339,-0.2506,-0.0314,-0.0279,1.0076,0.2472,0.1068,-0.2484,-0.1056,0.4430,0.1806,0.0876,0.4430,0.1806,0.0876,0.3000,0.0600,0.0002,0,-0.3000,-100.0000,-0.0010,-0.3000,-100.0000,-0.0010,25.1831,58.0565,0.0200,0.0000
-5.9533,39.9189,-1.2505,0.2486,0.2462,0.1200,0.0000,0.0000,0.0000,0.0706,-0.1768,-0.0008,996,1502,1500,1500,2008,1000,1505,1000,1000,1505,1502,1500,1505,1.6536,-0.0658,-0.1567,-0.0277,-0.0228,1.0046,0.2466,0.1070,-0.2482,-0.1053,0.4430,0.1806,0.0876,0.4430,0.1806,0.0876,0.3000,0.0600,0.0002,0,-0.3000,-100.0000,-0.0010,-0.3000,-100.0000,-0.0010,25.2280,58.0926,0.0200,0.0000
-5.9294,39.8799,-1.2471,0.1657,0.3283,0.1200,0.0000,0.0000,0.0000,0.0704,-0.1767,-0.0014,996,1502,1500,1500,2008,1000,1505,1000,1000,1505,1502,1500,1505,1.7362,0.0005,0.0313,-0.0336,-0.0258,1.0040,0.2457,0.1076,-0.2485,-0.1049,0.4430,0.1806,0.0876,0.4430,0.1806,0.0876,0.3000,0.0600,0.0002,0,-0.3000,-100.0000,-0.0010,-0.3000,-100.0000,-0.0010,25.2729,58.1286,0.0200,0.0000
-5.9051,39.8407,-1.2429,0.1657,0.2462,0.1200,0.0000,0.0000,0.0000,0.0704,-0.1764,-0.0013,996,1502,1500,1500,2008,1000,1505,1000,1000,1505,1502,1500,1505,1.6928,-0.0687,-0.0032,-0.0301,-0.0262,1.0010,0.2455,0.1074,-0.2481,-0.1048,0.4430,0.1806,0.0876,0.4430,0.1806,0.0876,0.3000,0.0600,0.0002,0,-0.3000,-100.0000,-0.0010,-0.3000,-100.0000,-0.0010,25.3179,58.1646,0.0200,0.0000
-5.8811,39.8015,-1.2390,0.1657,0.3283,0.1200,0.0000,0.0000,0.0000,0.0702,-0.1763,-0.0010,996,1502,1500,1500,2008,1000,1505,1000,1000,1505,1502,1500,1505,1.7214,-0.0500,-0.0773,-0.0303,-0.0284,1.0080,0.2455,0.1071,-0.2475,-0.1050,0.4430,0.1806,0.0876,0.4430,0.1806,0.0876,0.3000,0.0600,0.0002,0,-0.3000,-100.0000,-0.0010,-0.3000,-100.0000,-0.0010,25.3627,58.2006,0.0200,0.0000
-5.8576,39.7624,-1.2363,0.2486,0.3283,0.1800,0.0000,0.0000,0.0000,0.0705,-0.1762,-0.0018,996,1502,1500,1500,2008,1000,1505,1000,1000,1505,1502,1500,1505,1.6388,0.0606,-0.1701,-0.0298,-0.0265,1.0047,0.2449,0.1075,-0.2484,-0.1040,0.4430,0.1806,0.0876,0.4430,0.1806,0.0876,0.3000,0.0600,0.0002,0,-0.3000,-100.0000,-0.0010,-0.3000,-100.0000,-0.0010,25.4076,58.2365,0.0300,0.0000
-5.8350,39.7239,-1.2347,0.1657,0.2462,0.1200,0.0000,0.0000,0.0000,0.0700,-0.1760,-0.0005,996,1502,1500,1500,2008,1000,1505,1000,1000,1505,1502,1500,1505,1.7605,0.0499,-0.2652,-0.0290,-0.0248,1.0037,0.2456,0.1065,-0.2465,-0.1056,0.4430,0.1806,0.0876,0.4430,0.1806,0.0876,0.3000,0.0600,0.0002,0,-0.3000,-100.0000,-0.0010,-0.3000,-100.0000,-0.0010,25.4525,58.2724,0.0200,0.0000
-5.8122,39.6856,-1.2340,0.1657,0.2462,0.1200,0.0000,0.0000,0.0000,0.0698,-0.1759,-0.0006,996,1502,1500,1500,2008,1000,1505,1000,1000,1505,1502,1500,1505,1.8070,0.0795,-0.2386,-0.0298,-0.0253,1.0086,0.2452,0.1066,-0.2463,-0.1055,0.4430,0.1806,0.0876,0.4430,0.1806,0.0876,0.3000,0.0600,0.0002,0,-0.3000,-100.0000,-0.0010,-0.3000,-100.0000,-0.0010,25.4974,58.3083,0.0200,0.0000
-5.7887,39.6481,-1.2332,0.2486,0.2462,0.1200,0.0000,0.0000,0.0000,0.0696,-0.1757,-0.0005,996,1502,1500,1500,2008,1000,1505,1000,1000,1505,1502,1500,1505,1.9233,0.1214,-0.2478,-0.0298,-0.0257,1.0072,0.2449,0.1066,-0.2459,-0.1056,0.4430,0.1806,0.0876,0.4430,0.1806,0.0876,0.3000,0.0600,0.0002,0,-0.3000,-100.0000,-0.0010,-0.3000,-100.0000,-0.0010,25.5423,58.3442,0.0200,0.0000
-5.7635,39.6098,-1.2322,0.1657,0.2462,0.1200,0.0000,0.0000,0.0000,0.0694,-0.1755,-0.0007,996,1502,1500,1500,2008,1000,1505,1000,1000,1505,1502,1500,1505,2.0301,0.0379,-0.2048,-0.0342,-0.0244,1.0033,0.2443,0.1067,-0.2456,-0.1054,0.4430,0.1806,0.0876,0.4430,0.1806,0.0876,0.3000,0.0600,0.0002,0,-0.3000,-100.0000,-0.0010,-0.3000,-100.0000,-0.0010,25.5872,58.3801,0.0200,0.0000
-5.7370,39.5709,-1.2310,0.1657,0.2462,0.1200,0.0000,0.0000,0.0000,0.0692,-0.1753,-0.0008,996,1502,1500,1500,2008,1000,1505,1000,1000,1505,1502,1500,1505,2.1180,0.0182,-0.1876,-0.0310,-0.0248,1.0023,0.2438,0.1069,-0.2453,-0.1053,0.4430,0.1806,0.0876,0.4430,0.1806,0.0876,0.3000,0.0600,0.0002,0,-0.3000,-100.0000,-0.0010,-0.3000,-100.0000,-0.0010,25.6322,58.4161,0.0200,0.0000
-5.7103,39.5320,-1.2291,0.1657,0.2462,0.1800,0.0000,0.0000,0.0000,0.0695,-0.1750,-0.0017,996,1502,1500,1500,2008,1000,1505,1000,1000,1505,1502,1500,1505,2.0260,-0.1317,-0.1856,-0.0316,-0.0193,1.0042,0.2428,0.1072,-0.2462,-0.1038,0.4430,0.1806,0.0876,0.4430,0.1806,0.0876,0.3000,0.0600,0.0002,0,-0.3000,-100.0000,-0.0010,-0.3000,-100.0000,-0.0010,25.6771,58.4520,0.0300,0.0000
-5.6841,39.4920,-1.2266,0.2486,0.2462,0.1200,0.0000,0.0000,0.0000,0.0692,-0.1749,-0.0009,996,1502,1500,1500,2008,1000,1505,1000,1000,1505,1502,1500,1505,1.9489,-0.1037,-0.1278,-0.0296,-0.0221,1.0045,0.2431,0.1066,-0.2449,-0.1048,0.4430,0.1806,0.0876,0.4430,0.1806,0.0876,0.3000,0.0600,0.0002,0,-0.3000,-100.0000,-0.0010,-0.3000,-100.0000,-0.0010,25.7222,58.4880,0.0200,0.0000
-5.6594,39.4523,-1.2245,0.1657,0.2462,0.1200,0.0000,0.0000,0.0000,0.0692,-0.1748,-0.0009,996,1502,1500,1500,2008,1000,1505,1000,1000,1505,1502,1500,1505,1.7758,-0.0127,-0.1362,-0.0316,-0.0211,1.0083,0.2431,0.1065,-0.2448,-0.1047,0.4430,0.1806,0.0876,0.4430,0.1806,0.0876,0.3000,0.0600,0.0002,0,-0.3000,-100.0000,-0.0010,-0.3000,-100.0000,-0.0010,25.7672,58.5239,0.0200,0.0000
-5.6370,39.4132,-1.2226,0.1657,0.1642,0.1200,0.0000,0.0000,0.0000,0.0693,-0.1746,-0.0009,996,1502,1500,1500,2008,1000,1505,1000,1000,1505,1502,1500,1505,1.5651,-0.0113,-0.1528,-0.0311,-0.0216,1.0058,0.2430,0.1062,-0.2447,-0.1044,0.4430,0.1806,0.0876,0.4430,0.1806,0.0876,0.3000,0.0600,0.0002,0,-0.3000,-100.0000,-0.0010,-0.3000,-100.0000,-0.0010,25.8123,58.5598,0.0200,0.0000
-5.6153,39.3744,-1.2204,0.1657,0.3283,0.1200,0.0000,0.0000,0.0000,0.0692,-0.1744,-0.0007,996,1502,1500,1500,2008,1000,1505,1000,1000,1505,1502,1500,1505,1.5053,-0.0321,-0.1683,-0.0308,-0.0196,1.0051,0.2429,0.1059,-0.2444,-0.1044,0.4430,0.1806,0.0876,0.4430,0.1806,0.0876,0.3000,0.0600,0.0002,0,-0.3000,-100.0000,-0.0010,-0.3000,-100.0000,-0.0010,25.8574,58.5957,0.0200,0.0000
-5.5952,39.3349,-1.2180,0.0829,0.0821,0.1200,0.0000,0.0000,0.0000,0.0693,-0.1742,-0.0012,996,1502,1500,1500,2008,1000,1505,1000,1000,1505,1502,1500,1505,1.3587,-0.0920,-0.0448,-0.0299,-0.0231,1.0009,0.2423,0.1061,-0.2446,-0.1037,0.4430,0.1806,0.0876,0.4430,0.1806,0.0876,0.3000,0.0600,0.0002,0,-0.3000,-100.0000,-0.0010,-0.3000,-100.0000,-0.0010,25.9025,58.6316,0.0200,0.0000
-5.5757,39.2952,-1.2151,0.1657,0.2462,0.1800,0.0000,0.0000,0.0000,0.0695,-0.1740,-0.0019,996,1502,1500,1500,2008,1000,1505,1000,1000,1505,1502,1500,1505,1.3057,-0.0607,-0.1199,-0.0307,-0.0233,1.0089,0.2417,0.1064,-0.2454,-0.1026,0.4430,0.1806,0.0876,0.4430,0.1806,0.0876,0.3000,0.0600,0.0002,0,-0.3000,-100.0000,-0.0010,-0.3000,-100.0000,-0.0010,25.9476,58.6676,0.0300,0.0000
-5.5553,39.2552,-1.2121,0.1657,0.2462,0.1200,0.0000,0.0000,0.0000,0.0690,-0.1738,-0.0012,996,1502,1500,1500,2008,1000,1505,1000,1000,1505,1502,1500,1505,1.4454,-0.1062,-0.0387,-0.0303,-0.0201,1.0055,0.2416,0.1060,-0.2441,-0.1035,0.4430,0.1806,0.0876,0.4430,0.1806,0.0876,0.3000,0.0600,0.0002,0,-0.3000,-100.0000,-0.0010,-0.3000,-100.0000,-0.0010,25.9927,58.7035,0.0200,0.0000
-5.5335,39.2153,-1.2087,0.1657,0.1642,0.1200,0.0000,0.0000,0.0000,0.0688,-0.1736,-0.0010,996,1502,1500,1500,2008,1000,1505,1000,1000,1505,1502,1500,1505,1.6044,-0.1608,-0.0868,-0.0298,-0.0222,1.0054,0.2414,0.1058,-0.2433,-0.1038,0.4430,0.1806,0.0876,0.4430,0.1806,0.0876,0.3000,0.0600,0.0002,0,-0.3000,-100.0000,-0.0010,-0.3000,-100.0000,-0.0010,26.0379,58.7394,0.0200,0.0000
-5.5104,39.1750,-1.2055,0.2486,0.3283,0.1200,0.0000,0.0000,0.0000,0.0686,-0.1735,-0.0008,996,1502,1500,1500,2008,1000,1505,1000,1000,1505,1502,1500,1505,1.7226,-0.0859,-0.1534,-0.0308,-0.0228,1.0092,0.2413,0.1057,-0.2429,-0.1041,0.4430,0.1806,0.0876,0.4430,0.1806,0.0876,0.3000,0.0600,0.0002,0,-0.3000,-100.0000,-0.0010,-0.3000,-100.0000,-0.0010,26.0831,58.7753,0.0200,0.0000
-5.4869,39.1348,-1.2036,0.2486,0.3283,0.1200,0.0000,0.0000,0.0000,0.0684,-0.1733,-0.0010,996,1502,1500,1500,2008,1000,1505,1000,1000,1505,1502,1500,1505,1.7746,-0.0985,-0.1043,-0.0295,-0.0233,1.0054,0.2407,0.1059,-0.2427,-0.1038,0.4430,0.1806,0.0876,0.4430,0.1806,0.0876,0.3000,0.0600,0.0002,0,-0.3000,-100.0000,-0.0010,-0.3000,-100.0000,-0.0010,26.1283,58.8113,0.0200,0.0000
-5.4629,39.0941,-1.2010,0.1657,0.2462,0.1200,0.0000,0.0000,0.0000,0.0683,-0.1730,-0.0005,996,1502,1500,1500,2008,1000,1505,1000,1000,1505,1502,1500,1505,1.8080,-0.1797,-0.2197,-0.0324,-0.0222,1.0051,0.2408,0.1053,-0.2419,-0.1042,0.4430,0.1806,0.0876,0.4430,0.1806,0.0876,0.3000,0.0600,0.0002,0,-0.3000,-100.0000,-0.0010,-0.3000,-100.0000,-0.0010,26.1735,58.8471,0.0200,0.0000
-5.4397,39.0530,-1.2001,0.1657,0.2462,0.1800,0.0000,0.0000,0.0000,0.0685,-0.1728,-0.0015,996,1502,1500,1500,2008,1000,1505,1000,1000,1505,1502,1500,1505,1.7831,-0.2021,-0.2561,-0.0335,-0.0209,1.0040,0.2398,0.1058,-0.2428,-0.1029,0.4430,0.1806,0.0876,0.4430,0.1806,0.0876,0.3000,0.0600,0.0002,0,-0.3000,-100.0000,-0.0010,-0.3000,-100.0000,-0.0010,26.2186,58.8829,0.0300,0.0000
-5.4188,39.0113,-1.2000,0.1657,0.2462,0.1200,0.0000,0.0000,0.0000,0.0684,-0.1726,-0.0003,996,1502,1500,1500,2008,1000,1505,1000,1000,1505,1502,1500,1505,1.5170,-0.2669,-0.3374,-0.0326,-0.0186,1.0090,0.2407,0.1045,-0.2412,-0.1040,0.4430,0.1806,0.0876,0.4430,0.1806,0.0876,0.3000,0.0600,0.0002,0,-0.3000,-100.0000,-0.0010,-0.3000,-100.0000,-0.0010,26.2638,58.9188,0.0200,0.0000
-5.3990,38.9686,-1.1989,0.1657,0.3283,0.1200,0.0000,0.0000,0.0000,0.0684,-0.1723,-0.0005,996,1502,1500,1500,2008,1000,1505,1000,1000,1505,1502,1500,1505,1.3298,-0.3847,-0.2320,-0.0314,-0.0162,1.0027,0.2402,0.1044,-0.2413,-0.1033,0.4430,0.1806,0.0876,0.4430,0.1806,0.0876,0.3000,0.0600,0.0002,0,-0.3000,-100.0000,-0.0010,-0.3000,-100.0000,-0.0010,26.3091,58.9546,0.0200,0.0000
-5.3809,38.9253,-1.1970,0.2486,0.3283,0.1200,0.0000,0.0000,0.0000,0.0686,-0.1721,-0.0007,996,1502,1500,1500,2008,1000,1505,1000,1000,1505,1502,1500,1505,1.0770,-0.3981,-0.2103,-0.0312,-0.0117,1.0065,0.2400,0.1042,-0.2413,-0.1029,0.4430,0.1806,0.0876,0.4430,0.1806,0.0876,0.3000,0.0600,0.0002,0,-0.3000,-100.0000,-0.0010,-0.3000,-100.0000,-0.0010,26.3544,58.9905,0.0200,0.0000
-5.3657,38.8824,-1.1941,0.1657,0.2462,0.1200,0.0000,0.0000,0.0000,0.0688,-0.1720,-0.0011,996,1502,1500,1500,2008,1000,1505,1000,1000,1505,1502,1500,1505,0.7792,-0.3165,-0.0591,-0.0315,-0.0139,1.0027,0.2396,0.1043,-0.2419,-0.1021,0.4430,0.1806,0.0876,0.4430,0.1806,0.0876,0.3000,0.0600,0.0002,0,-0.3000,-100.0000,-0.0010,-0.3000,-100.0000,-0.0010,26.3997,59.0264,0.0200,0.0000
-5.3513,38.8403,-1.1896,0.1657,0.2462,0.1200,0.0000,0.0000,0.0000,0.0688,-0.1718,-0.0015,996,1502,1500,1500,2008,1000,1505,1000,1000,1505,1502,1500,1505,0.6676,-0.2620,0.0610,-0.0292,-0.0158,1.0054,0.2392,0.1045,-0.2421,-0.1016,0.4430,0.1806,0.0876,0.4430,0.1806,0.0876,0.3000,0.0600,0.0002,0,-0.3000,-100.0000,-0.0010,-0.3000,-100.0000,-0.0010,26.4450,59.0622,0.0200,0.0000
-5.3376,38.7987,-1.1843,0.1657,0.2462,0.1800,0.0000,0.0000,0.0000,0.0691,-0.1717,-0.0026,996,1502,1500,1500,2008,1000,1505,1000,1000,1505,1502,1500,1505,0.5861,-0.1987,0.1203,-0.0315,-0.0166,1.0064,0.2382,0.1052,-0.2434,-0.1000,0.4430,0.1806,0.0876,0.4430,0.1806,0.0876,0.3000,0.0600,0.0002,0,-0.3000,-100.0000,-0.0010,-0.3000,-100.0000,-0.0010,26.4903,59.0981,0.0300,0.0000
-5.3240,38.7578,-1.1781,0.2486,0.3283,0.1200,0.0000,0.0000,0.0000,0.0688,-0.1715,-0.0019,996,1502,1500,1500,2008,1000,1505,1000,1000,1505,1502,1500,1505,0.5128,-0.2135,0.2112,-0.0300,-0.0192,1.0070,0.2384,0.1046,-0.2422,-0.1008,0.4430,0.1806,0.0876,0.4430,0.1806,0.0876,0.3000,0.0600,0.0002,0,-0.3000,-100.0000,-0.0010,-0.3000,-100.0000,-0.0010,26.5356,59.1339,0.0200,0.0000
-5.3101,38.7171,-1.1723,0.1657,0.2462,0.1200,0.0000,0.0000,0.0000,0.0686,-0.1714,-0.0014,996,1502,1500,1500,2008,1000,1505,1000,1000,1505,1502,1500,1505,0.6809,-0.1746,0.0561,-0.0333,-0.0214,1.0046,0.2386,0.1042,-0.2414,-0.1013,0.4430,0.1806,0.0876,0.4430,0.1806,0.0876,0.3000,0.0600,0.0002,0,-0.3000,-100.0000,-0.0010,-0.3000,-100.0000,-0.0010,26.5809,59.1697,0.0200,0.0000
-5.2959,38.6766,-1.1681,0.0829,0.2462,0.1200,0.0000,0.0000,0.0000,0.0684,-0.1713,-0.0012,996,1502,1500,1500,2008,1000,1505,1000,1000,1505,1502,1500,1505,0.8530,-0.0715,-0.0273,-0.0317,-0.0199,1.0062,0.2385,0.1040,-0.2408,-0.1017,0.4430,0.1806,0.0876,0.4430,0.1806,0.0876,0.3000,0.0600,0.0002,0,-0.3000,-100.0000,-0.0010,-0.3000,-100.0000,-0.0010,26.6263,59.2055,0.0200,0.0000
-5.2805,38.6363,-1.1644,0.1657,0.2462,0.1200,0.0000,0.0000,0.0000,0.0683,-0.1711,-0.0015,996,1502,1500,1500,2008,1000,1505,1000,1000,1505,1502,1500,1505,0.9323,-0.0790,0.0473,-0.0308,-0.0212,1.0063,0.2379,0.1043,-0.2408,-0.1014,0.4430,0.1806,0.0876,0.4430,0.1806,0.0876,0.3000,0.0600,0.0002,0,-0.3000,-100.0000,-0.0010,-0.3000,-100.0000,-0.0010,26.6716,59.2412,0.0200,0.0000
-5.2646,38.5961,-1.1614,0.0829,0.1642,0.1200,0.0000,0.0000,0.0000,0.0681,-0.1709,-0.0009,996,1502,1500,1500,2008,1000,1505,1000,1000,1505,1502,1500,1505,0.9868,-0.1301,-0.1280,-0.0318,-0.0171,1.0092,0.2381,0.1036,-0.2399,-0.1018,0.4430,0.1806,0.0876,0.4430,0.1806,0.0876,0.3000,0.0600,0.0002,0,-0.3000,-100.0000,-0.0010,-0.3000,-100.0000,-0.0010,26.7170,59.2770,0.0200,0.0000
-5.2495,38.5559,-1.1596,0.0829,0.0821,0.1800,0.0000,0.0000,0.0000,0.0685,-0.1708,-0.0014,996,1502,1500,1500,2008,1000,1505,1000,1000,1505,1502,1500,1505,0.8554,-0.0087,-0.2484,-0.0276,-0.0148,1.0055,0.2378,0.1038,-0.2407,-0.1009,0.4430,0.1806,0.0876,0.4430,0.1806,0.0876,0.3000,0.0600,0.0002,0,-0.3000,-100.0000,-0.0010,-0.3000,-100.0000,-0.0010,26.7624,59.3128,0.0300,0.0000
-5.2367,38.5165,-1.1589,0.1657,0.2462,0.1200,0.0000,0.0000,0.0000,0.0682,-0.1707,-0.0007,996,1502,1500,1500,2008,1000,1505,1000,1000,1505,1502,1500,1505,0.7231,0.0366,-0.2110,-0.0301,-0.0146,1.0048,0.2382,0.1031,-0.2396,-0.1017,0.4430,0.1806,0.0876,0.4430,0.1806,0.0876,0.3000,0.0600,0.0002,0,-0.3000,-100.0000,-0.0010,-0.3000,-100.0000,-0.0010,26.8077,59.3485,0.0200,0.0000
-5.2259,38.4777,-1.1569,0.0000,0.0821,0.1200,0.0000,0.0000,0.0000,0.0685,-0.1705,-0.0009,996,1502,1500,1500,2008,1000,1505,1000,1000,1505,1502,1500,1505,0.3805,0.0088,-0.1299,-0.0325,-0.0131,1.0018,0.2380,0.1029,-0.2399,-0.1010,0.4430,0.1806,0.0876,0.4430,0.1806,0.0876,0.3000,0.0600,0.0002,0,-0.3000,-100.0000,-0.0010,-0.3000,-100.0000,-0.0010,26.8532,59.3843,0.0200,0.0000
-5.2167,38.4383,-1.1526,0.1657,0.2462,0.1200,0.0000,0.0000,0.0000,0.0687,-0.1703,-0.0016,996,1502,1500,1500,2008,1000,1505,1000,1000,1505,1502,1500,1505,0.1575,-0.0190,0.0971,-0.0326,-0.0126,1.0013,0.2373,0.1032,-0.2405,-0.1000,0.4430,0.1806,0.0876,0.4430,0.1806,0.0876,0.3000,0.0600,0.0002,0,-0.3000,-100.0000,-0.0010,-0.3000,-100.0000,-0.0010,26.8986,59.4201,0.0200,0.0000
-5.2094,38.3987,-1.1467,0.1657,0.2462,0.1200,0.0000,0.0000,0.0000,0.0689,-0.1700,-0.0018,996,1502,1500,1500,2008,1000,1505,1000,1000,1505,1502,1500,1505,-0.1558,-0.0998,0.1730,-0.0290,-0.0140,1.0024,0.2372,0.1029,-0.2407,-0.0994,0.4430,0.1806,0.0876,0.4430,0.1806,0.0876,0.3000,0.0600,0.0002,0,-0.3000,-100.0000,-0.0010,-0.3000,-100.0000,-0.0010,26.9441,59.4559,0.0200,0.0000
-5.2045,38.3592,-1.1408,0.1657,0.2462,0.1200,0.0000,0.0000,0.0000,0.0690,-0.1699,-0.0017,996,1502,1500,1500,2008,1000,1505,1000,1000,1505,1502,1500,1505,-0.3381,-0.0082,0.1556,-0.0301,-0.0167,1.0032,0.2372,0.1026,-0.2407,-0.0991,0.4430,0.1806,0.0876,0.4430,0.1806,0.0876,0.3000,0.0600,0.0002,0,-0.3000,-100.0000,-0.0010,-0.3000,-100.0000,-0.0010,26.9896,59.4916,0.0200,0.0000
-5.2004,38.3199,-1.1338,0.2486,0.1642,0.1800,0.0000,0.0000,0.0000,0.0694,-0.1697,-0.0031,996,1502,1500,1500,2008,1000,1505,1000,1000,1505,1502,1500,1505,-0.4304,-0.0605,0.2933,-0.0285,-0.0179,1.0050,0.2360,0.1035,-0.2422,-0.0972,0.4430,0.1806,0.0876,0.4430,0.1806,0.0876,0.3000,0.0600,0.0002,0,-0.3000,-100.0000,-0.0010,-0.3000,-100.0000,-0.0010,27.0352,59.5274,0.0300,0.0000
-5.1967,38.2813,-1.1260,0.2486,0.1642,0.1200,0.0000,0.0000,0.0000,0.0691,-0.1697,-0.0021,996,1502,1500,1500,2008,1000,1505,1000,1000,1505,1502,1500,1505,-0.4660,0.1036,0.2682,-0.0322,-0.0199,1.0028,0.2367,0.1026,-0.2408,-0.0985,0.4430,0.1806,0.0876,0.4430,0.1806,0.0876,0.3000,0.0600,0.0002,0,-0.3000,-100.0000,-0.0010,-0.3000,-100.0000,-0.0010,27.0807,59.5632,0.0200,0.0000
-5.1931,38.2436,-1.1191,0.2486,0.2462,0.1200,0.0000,0.0000,0.0000,0.0690,-0.1696,-0.0019,996,1502,1500,1500,2008,1000,1505,1000,1000,1505,1502,1500,1505,-0.3907,0.1599,0.2017,-0.0328,-0.0231,1.0063,0.2367,0.1024,-0.2405,-0.0987,0.4430,0.1806,0.0876,0.4430,0.1806,0.0876,0.3000,0.0600,0.0002,0,-0.3000,-100.0000,-0.0010,-0.3000,-100.0000,-0.0010,27.1262,59.5990,0.0200,0.0000
-5.1892,38.2054,-1.1127,0.2486,0.1642,0.1200,0.0000,0.0000,0.0000,0.0689,-0.1693,-0.0017,996,1502,1500,1500,2008,1000,1505,1000,1000,1505,1502,1500,1505,-0.3179,0.0042,0.1455,-0.0315,-0.0200,1.0063,0.2365,0.1020,-0.2399,-0.0986,0.4430,0.1806,0.0876,0.4430,0.1806,0.0876,0.3000,0.0600,0.0002,0,-0.3000,-100.0000,-0.0010,-0.3000,-100.0000,-0.0010,27.1718,59.6348,0.0200,0.0000
-5.1854,38.1667,-1.1082,0.1657,0.1642,0.1200,0.0000,0.0000,0.0000,0.0689,-0.1691,-0.0014,996,1502,1500,1500,2008,1000,1505,1000,1000,1505,1502,1500,1505,-0.2265,-0.0035,0.0364,-0.0330,-0.0204,1.0054,0.2366,0.1016,-0.2393,-0.0988,0.4430,0.1806,0.0876,0.4430,0.1806,0.0876,0.3000,0.0600,0.0002,0,-0.3000,-100.0000,-0.0010,-0.3000,-100.0000,-0.0010,27.2174,59.6704,0.0200,0.0000
-5.1814,38.1275,-1.1047,0.1657,0.2462,0.1200,0.0000,0.0000,0.0000,0.0688,-0.1689,-0.0011,996,1502,1500,1500,2008,1000,1505,1000,1000,1505,1502,1500,1505,-0.1801,0.0217,-0.0773,-0.0309,-0.0177,1.0006,0.2367,0.1012,-0.2388,-0.0991,0.4430,0.1806,0.0876,0.4430,0.1806,0.0876,0.3000,0.0600,0.0002,0,-0.3000,-100.0000,-0.0010,-0.3000,-100.0000,-0.0010,27.2629,59.7061,0.0200,0.0000
-5.1781,38.0889,-1.1021,0.1657,0.2462,0.1800,0.0000,0.0000,0.0000,0.0691,-0.1688,-0.0020,996,1502,1500,1500,2008,1000,1505,1000,1000,1505,1502,1500,1505,-0.2203,0.0894,-0.0818,-0.0291,-0.0168,1.0037,0.2359,0.1018,-0.2399,-0.0977,0.4430,0.1806,0.0876,0.4430,0.1806,0.0876,0.3000,0.0600,0.0002,0,-0.3000,-100.0000,-0.0010,-0.3000,-100.0000,-0.0010,27.3085,59.7418,0.0300,0.0000
-5.1752,38.0499,-1.0985,0.1657,0.1642,0.1200,0.0000,0.0000,0.0000,0.0689,-0.1685,-0.0014,996,1502,1500,1500,2008,1000,1505,1000,1000,1505,1502,1500,1505,-0.3704,-0.0217,0.0251,-0.0300,-0.0157,1.0020,0.2361,0.1010,-0.2389,-0.0982,0.4430,0.1806,0.0876,0.4430,0.1806,0.0876,0.3000,0.0600,0.0002,0,-0.3000,-100.0000,-0.0010,-0.3000,-100.0000,-0.0010,27.3540,59.7774,0.0200,0.0000
-5.1725,38.0106,-1.0934,0.1657,0.3283,0.1200,0.0000,0.0000,0.0000,0.0690,-0.1684,-0.0018,996,1502,1500,1500,2008,1000,1505,1000,1000,1505,1502,1500,1505,-0.4740,0.0354,0.1734,-0.0284,-0.0163,1.0053,0.2356,0.1012,-0.2392,-0.0976,0.4430,0.1806,0.0876,0.4430,0.1806,0.0876,0.3000,0.0600,0.0002,0,-0.3000,-100.0000,-0.0010,-0.3000,-100.0000,-0.0010,27.3997,59.8131,0.0200,0.0000
-5.1704,37.9712,-1.0872,0.2486,0.2462,0.1200,0.0000,0.0000,0.0000,0.0692,-0.1682,-0.0020,996,1502,1500,1500,2008,1000,1505,1000,1000,1505,1502,1500,1505,-0.6603,-0.0222,0.2399,-0.0314,-0.0167,1.0053,0.2353,0.1011,-0.2394,-0.0970,0.4430,0.1806,0.0876,0.4430,0.1806,0.0876,0.3000,0.0600,0.0002,0,-0.3000,-100.0000,-0.0010,-0.3000,-100.0000,-0.0010,27.4453,59.8488,0.0200,0.0000
-5.1697,37.9325,-1.0798,0.1657,0.3283,0.1200,0.0000,0.0000,0.0000,0.0693,-0.1680,-0.0020,996,1502,1500,1500,2008,1000,1505,1000,1000,1505,1502,1500,1505,-0.7814,-0.0165,0.2495,-0.0288,-0.0165,1.0094,0.2353,0.1007,-0.2393,-0.0968,0.4430,0.1806,0.0876,0.4430,0.1806,0.0876,0.3000,0.0600,0.0002,0,-0.3000,-100.0000,-0.0010,-0.3000,-100.0000,-0.0010,27.4910,59.8845,0.0200,0.0000
-5.1703,37.8929,-1.0729,0.2486,0.2462,0.1200,0.0000,0.0000,0.0000,0.0693,-0.1678,-0.0021,996,1502,1500,1500,2008,1000,1505,1000,1000,1505,1502,1500,1505,-0.8542,-0.0618,0.2539,-0.0301,-0.0201,1.0064,0.2351,0.1006,-0.2392,-0.0964,0.4430,0.1806,0.0876,0.4430,0.1806,0.0876,0.3000,0.0600,0.0002,0,-0.3000,-100.0000,-0.0010,-0.3000,-100.0000,-0.0010,27.5366,59.9202,0.0200,0.0000
-5.1712,37.8534,-1.0658,0.2486,0.2462,0.1800,0.0000,0.0000,0.0000,0.0696,-0.1677,-0.0031,996,1502,1500,1500,2008,1000,1505,1000,1000,1505,1502,1500,1505,-0.8679,-0.0341,0.2697,-0.0347,-0.0211,1.0030,0.2342,0.1011,-0.2404,-0.0950,0.4430,0.1806,0.0876,0.4430,0.1806,0.0876,0.3000,0.0600,0.0002,0,-0.3000,-100.0000,-0.0010,-0.3000,-100.0000,-0.0010,27.5824,59.9559,0.0300,0.0000
-5.1712,37.8138,-1.0587,0.1657,0.2462,0.1200,0.0000,0.0000,0.0000,0.0692,-0.1674,-0.0019,996,1502,1500,1500,2008,1000,1505,1000,1000,1505,1502,1500,1505,-0.6760,-0.0992,0.2222,-0.0285,-0.0212,1.0044,0.2347,0.1002,-0.2385,-0.0963,0.4430,0.1806,0.0876,0.4430,0.1806,0.0876,0.3000,0.0600,0.0002,0,-0.3000,-100.0000,-0.0010,-0.3000,-100.0000,-0.0010,27.6281,59.9916,0.0200,0.0000
-5.1695,37.7742,-1.0524,0.1657,0.2462,0.1200,0.0000,0.0000,0.0000,0.0690,-0.1674,-0.0017,996,1502,1500,1500,2008,1000,1505,1000,1000,1505,1502,1500,1505,-0.4495,0.0630,0.1383,-0.0285,-0.0221,1.0063,0.2347,0.1001,-0.2380,-0.0968,0.4430,0.1806,0.0876,0.4430,0.1806,0.0876,0.3000,0.0600,0.0002,0,-0.3000,-100.0000,-0.0010,-0.3000,-100.0000,-0.0010,27.6738,60.0273,0.0200,0.0000
-5.1666,37.7355,-1.0468,0.0000,0.0000,0.1200,0.0000,0.0000,0.0000,0.0689,-0.1673,-0.0016,996,1502,1500,1500,2008,1000,1505,1000,1000,1505,1502,1500,1505,-0.3375,0.0941,0.1023,-0.0287,-0.0214,1.0053,0.2346,0.0999,-0.2377,-0.0968,0.4430,0.1806,0.0876,0.4430,0.1806,0.0876,0.3000,0.0600,0.0002,0,-0.3000,-100.0000,-0.0010,-0.3000,-100.0000,-0.0010,27.7196,60.0630,0.0200,0.0000
-5.1628,37.6962,-1.0417,0.2486,0.3283,0.1200,0.0000,0.0000,0.0000,0.0688,-0.1670,-0.0014,996,1502,1500,1500,2008,1000,1505,1000,1000,1505,1502,1500,1505,-0.2364,-0.0435,0.0398,-0.0327,-0.0183,1.0025,0.2343,0.0996,-0.2372,-0.0968,0.4430,0.1806,0.0876,0.4430,0.1806,0.0876,0.3000,0.0600,0.0002,0,-0.3000,-100.0000,-0.0010,-0.3000,-100.0000,-0.0010,27.7653,60.0987,0.0200,0.0000
-5.1592,37.6565,-1.0380,0.0829,0.2462,0.1200,0.0000,0.0000,0.0000,0.0687,-0.1668,-0.0012,996,1502,1500,1500,2008,1000,1505,1000,1000,1505,1502,1500,1505,-0.2388,-0.0416,-0.0323,-0.0309,-0.0162,1.0064,0.2343,0.0992,-0.2367,-0.0968,0.4430,0.1806,0.0876,0.4430,0.1806,0.0876,0.3000,0.0600,0.0002,0,-0.3000,-100.0000,-0.0010,-0.3000,-100.0000,-0.0010,27.8111,60.1344,0.0200,0.0000
-5.1569,37.6168,-1.0344,0.1657,0.2462,0.1800,0.0000,0.0000,0.0000,0.0692,-0.1666,-0.0023,996,1502,1500,1500,2008,1000,1505,1000,1000,1505,1502,1500,1505,-0.5000,-0.1027,0.0280,-0.0339,-0.0137,1.0099,0.2334,0.0997,-0.2381,-0.0950,0.4430,0.1806,0.0876,0.4430,0.1806,0.0876,0.3000,0.0600,0.0002,0,-0.3000,-100.0000,-0.0010,-0.3000,-100.0000,-0.0010,27.8569,60.1702,0.0300,0.0000
-5.1564,37.5765,-1.0294,0.1657,0.2462,0.1200,0.0000,0.0000,0.0000,0.0692,-0.1664,-0.0016,996,1502,1500,1500,2008,1000,1505,1000,1000,1505,1502,1500,1505,-0.7317,-0.1086,0.1109,-0.0310,-0.0169,1.0057,0.2339,0.0988,-0.2371,-0.0956,0.4430,0.1806,0.0876,0.4430,0.1806,0.0876,0.3000,0.0600,0.0002,0,-0.3000,-100.0000,-0.0010,-0.3000,-100.0000,-0.0010,27.9028,60.2059,0.0200,0.0000
-5.1572,37.5364,-1.0240,0.2486,0.2462,0.1200,0.0000,0.0000,0.0000,0.0693,-0.1662,-0.0019,996,1502,1500,1500,2008,1000,1505,1000,1000,1505,1502,1500,1505,-0.8421,-0.1294,0.1775,-0.0304,-0.0168,1.0057,0.2336,0.0988,-0.2373,-0.0950,0.4430,0.1806,0.0876,0.4430,0.1806,0.0876,0.3000,0.0600,0.0002,0,-0.3000,-100.0000,-0.0010,-0.3000,-100.0000,-0.0010,27.9487,60.2417,0.0200,0.0000
-5.1581,37.4959,-1.0172,0.2486,0.1642,0.1200,0.0000,0.0000,0.0000,0.0693,-0.1660,-0.0020,996,1502,1500,1500,2008,1000,1505,1000,1000,1505,1502,1500,1505,-0.8751,-0.1339,0.2388,-0.0274,-0.0156,1.0022,0.2333,0.0987,-0.2373,-0.0947,0.4430,0.1806,0.0876,0.4430,0.1806,0.0876,0.3000,0.0600,0.0002,0,-0.3000,-100.0000,-0.0010,-0.3000,-100.0000,-0.0010,27.9946,60.2774,0.0200,0.0000
-5.1590,37.4553,-1.0099,0.1657,0.2462,0.1200,0.0000,0.0000,0.0000,0.0692,-0.1659,-0.0022,996,1502,1500,1500,2008,1000,1505,1000,1000,1505,1502,1500,1505,-0.7958,-0.0740,0.2977,-0.0299,-0.0204,1.0062,0.2329,0.0988,-0.2373,-0.0944,0.4430,0.1806,0.0876,0.4430,0.1806,0.0876,0.3000,0.0600,0.0002,0,-0.3000,-100.0000,-0.0010,-0.3000,-100.0000,-0.0010,28.0405,60.3131,0.0200,0.0000
-5.1582,37.4155,-1.0015,0.1657,0.2462,0.1200,0.0000,0.0000,0.0000,0.0691,-0.1657,-0.0026,996,1502,1500,1500,2008,1000,1505,1000,1000,1505,1502,1500,1505,-0.6900,-0.0475,0.4221,-0.0289,-0.0226,1.0063,0.2323,0.0991,-0.2374,-0.0940,0.4430,0.1806,0.0876,0.4430,0.1806,0.0876,0.3000,0.0600,0.0002,0,-0.3000,-100.0000,-0.0010,-0.3000,-100.0000,-0.0010,28.0864,60.3487,0.0200,0.0000
-5.1563,37.3756,-0.9939,0.1657,0.2462,0.1800,0.0000,0.0000,0.0000,0.0692,-0.1655,-0.0031,996,1502,1500,1500,2008,1000,1505,1000,1000,1505,1502,1500,1505,-0.5196,-0.0541,0.2637,-0.0313,-0.0221,1.0081,0.2317,0.0994,-0.2379,-0.0932,0.4430,0.1806,0.0876,0.4430,0.1806,0.0876,0.3000,0.0600,0.0002,0,-0.3000,-100.0000,-0.0010,-0.3000,-100.0000,-0.0010,28.1323,60.3844,0.0300,0.0000
-5.1532,37.3359,-0.9869,0.1657,0.2462,0.1200,0.0000,0.0000,0.0000,0.0688,-0.1654,-0.0021,996,1502,1500,1500,2008,1000,1505,1000,1000,1505,1502,1500,1505,-0.3803,-0.0418,0.2790,-0.0272,-0.0241,1.0062,0.2321,0.0986,-0.2363,-0.0944,0.4430,0.1806,0.0876,0.4430,0.1806,0.0876,0.3000,0.0600,0.0002,0,-0.3000,-100.0000,-0.0010,-0.3000,-100.0000,-0.0010,28.1783,60.4201,0.0200,0.0000
-5.1499,37.2959,-0.9813,0.2486,0.2462,0.1200,0.0000,0.0000,0.0000,0.0688,-0.1651,-0.0016,996,1502,1500,1500,2008,1000,1505,1000,1000,1505,1502,1500,1505,-0.3321,-0.1056,0.0873,-0.0276,-0.0220,1.0065,0.2324,0.0979,-0.2355,-0.0948,0.4430,0.1806,0.0876,0.4430,0.1806,0.0876,0.3000,0.0600,0.0002,0,-0.3000,-100.0000,-0.0010,-0.3000,-100.0000,-0.0010,28.2242,60.4557,0.0200,0.0000
