roll_imu,pitch_imu,yaw_imu,alpha,beta,roll_des,pitch_des,yaw_des,throttle_des,roll_pid,pitch_pid,yaw_pid,radio_ch1,radio_ch2,radio_ch3,radio_ch4,radio_ch5,radio_ch6,radio_ch7,radio_ch8,radio_ch9,radio_ch10,radio_ch11,radio_ch12,radio_ch13,GyroX,GyroY,GyroZ,AccX,AccY,AccZ,s1_command,s2_command,s3_command,s4_command,kp_roll,ki_roll,kd_roll,kp_pitch,ki_pitch,kd_pitch,kp_yaw,ki_yaw,kd_yaw,failsafeTriggered,kp_alphaRoll,ki_alphaRoll,kd_alphaRoll,kp_betaPitch,ki_betaPitch,kd_betaPitch,ripIMU_roll,ripIMU_pitch,ripRoll_des,ripPitch_des
0.0000,0.0000,0.0000,1.0773,5.4583,0.0000,0.0000,0.0000,0.0000,0.0000,0.0000,0.0000,1000,1500,1500,1500,2000,1000,1000,1000,1500,1500,1500,1500,1500,0.0000,0.0000,0.0000,0.0000,0.0000,0.0000,0.0000,0.0000,0.0000,0.0000,0.2204,0.0300,0.0438,0.2204,0.0300,0.0438,0.3000,0.0600,0.0002,0,-0.3000,-100.0000,-0.0010,-0.3000,-100.0000,-0.0010,0.0000,0.0000,0.0000,0.0000
-31.3087,40.8729,-11.8279,0.0000,-0.0000,-7.8600,-8.0400,-42.8800,0.0000,0.1491,-0.2166,-0.1288,973,1464,1461,1459,1000,1000,1505,1000,1000,1505,1502,1500,1505,-0.0578,-0.0668,0.0391,-0.0123,-0.0077,0.4547,0.2369,0.1964,-0.4945,0.0613,0.4430,0.1806,0.0876,0.4430,0.1806,0.0876,0.3000,0.0600,0.0002,0,-0.3000,-100.0000,-0.0010,-0.3000,-100.0000,-0.0010,14.2784,48.4425,-1.3100,-1.3400
-30.9041,40.5385,-11.5537,0.0829,-0.0821,-2.3400,-2.3400,-13.1200,0.0000,0.1715,-0.1897,-0.0407,971,1461,1461,1459,1000,1000,1505,1000,1000,1505,1502,1500,1505,0.2095,-0.2983,0.0708,-0.0218,-0.0162,0.9838,0.3205,0.0589,-0.4019,0.0225,0.4430,0.1806,0.0876,0.4430,0.1806,0.0876,0.3000,0.0600,0.0002,0,-0.3000,-100.0000,-0.0010,-0.3000,-100.0000,-0.0010,14.5980,48.9215,-0.3900,-0.3900
-30.8680,40.5102,-11.5299,0.0000,-0.0821,-0.6000,-0.7800,-4.1600,0.0000,0.1791,-0.1826,-0.0138,991,1490,1487,1487,1000,1000,1505,1000,1000,1505,1502,1500,1505,0.2073,-0.3334,0.0391,-0.0252,-0.0180,1.0024,0.3479,0.0173,-0.3754,0.0102,0.4430,0.1806,0.0876,0.4430,0.1806,0.0876,0.3000,0.0600,0.0002,0,-0.3000,-100.0000,-0.0010,-0.3000,-100.0000,-0.0010,14.6383,48.9597,-0.1000,-0.1300
-30.8323,40.4808,-11.5062,-0.0829,-0.1642,0.0000,-0.1800,-1.6000,0.0000,0.1816,-0.1798,-0.0061,996,1500,1497,1495,1000,1000,1505,1000,1000,1505,1502,1500,1505,0.1552,-0.3288,0.0363,-0.0246,-0.0177,1.0042,0.3553,0.0043,-0.3676,0.0079,0.4430,0.1806,0.0876,0.4430,0.1806,0.0876,0.3000,0.0600,0.0002,0,-0.3000,-100.0000,-0.0010,-0.3000,-100.0000,-0.0010,14.6792,48.9977,0.0000,-0.0300
-30.7976,40.4518,-11.4830,0.0000,-0.0821,0.1200,0.0000,-0.9600,0.0000,0.1819,-0.1789,-0.0042,996,1502,1500,1497,1000,1000,1505,1000,1000,1505,1502,1500,1505,0.2189,-0.3308,0.0253,-0.0239,-0.0171,1.0089,0.3566,0.0012,-0.3650,0.0072,0.4430,0.1806,0.0876,0.4430,0.1806,0.0876,0.3000,0.0600,0.0002,0,-0.3000,-100.0000,-0.0010,-0.3000,-100.0000,-0.0010,14.7203,49.0358,0.0200,0.0000
-30.7621,40.4234,-11.4596,-0.0829,-0.2462,0.1200,0.0000,-0.9600,0.0000,0.1818,-0.1788,-0.0043,996,1502,1500,1497,1000,1000,1505,1000,1000,1505,1502,1500,1505,0.2086,-0.2734,0.0674,-0.0262,-0.0178,1.0055,0.3564,0.0013,-0.3649,0.0072,0.4430,0.1806,0.0876,0.4430,0.1806,0.0876,0.3000,0.0600,0.0002,0,-0.3000,-100.0000,-0.0010,-0.3000,-100.0000,-0.0010,14.7613,49.0739,0.0200,0.0000
-30.7262,40.3954,-11.4372,0.0000,-0.0821,0.1200,0.0000,-0.9600,0.0000,0.1815,-0.1788,-0.0042,998,1504,1501,1499,1000,1000,1505,1000,1000,1505,1502,1500,1505,0.3793,-0.2059,0.0351,-0.0241,-0.0183,1.0032,0.3560,0.0015,-0.3644,0.0069,0.4430,0.1806,0.0876,0.4430,0.1806,0.0876,0.3000,0.0600,0.0002,0,-0.3000,-100.0000,-0.0010,-0.3000,-100.0000,-0.0010,14.8024,49.1119,0.0200,0.0000
-30.6882,40.3673,-11.4150,0.0000,-0.0821,0.1200,0.0000,-0.9600,0.0000,0.1811,-0.1787,-0.0051,996,1502,1500,1497,1000,1000,1505,1000,1000,1505,1502,1500,1505,0.5821,-0.1350,0.0161,-0.0251,-0.0188,1.0029,0.3547,0.0027,-0.3649,0.0075,0.4430,0.1806,0.0876,0.4430,0.1806,0.0876,0.3000,0.0600,0.0002,0,-0.3000,-100.0000,-0.0010,-0.3000,-100.0000,-0.0010,14.8435,49.1500,0.0200,0.0000
-30.6493,40.3392,-11.3938,0.0000,-0.0821,0.1200,0.0000,-0.9600,0.0000,0.1808,-0.1785,-0.0041,996,1502,1500,1497,1000,1000,1505,1000,1000,1505,1502,1500,1505,0.7154,-0.1762,-0.0088,-0.0242,-0.0196,1.0057,0.3553,0.0018,-0.3635,0.0064,0.4430,0.1806,0.0876,0.4430,0.1806,0.0876,0.3000,0.0600,0.0002,0,-0.3000,-100.0000,-0.0010,-0.3000,-100.0000,-0.0010,14.8846,49.1880,0.0200,0.0000
-30.6085,40.3110,-11.3717,0.0000,-0.0821,0.1200,0.0000,-0.9600,0.0000,0.1806,-0.1783,-0.0040,996,1502,1500,1497,1000,1000,1505,1000,1000,1505,1502,1500,1505,0.7978,-0.2708,-0.0283,-0.0227,-0.0186,1.0049,0.3549,0.0017,-0.3629,0.0062,0.4430,0.1806,0.0876,0.4430,0.1806,0.0876,0.3000,0.0600,0.0002,0,-0.3000,-100.0000,-0.0010,-0.3000,-100.0000,-0.0010,14.9257,49.2261,0.0200,0.0000
-30.5683,40.2834,-11.3509,0.0000,-0.0821,0.1200,0.0000,-0.9600,0.0300,0.1804,-0.1784,-0.0040,1030,1502,1500,1497,1000,1000,1505,1000,1000,1505,1502,1500,1505,0.7480,-0.0669,-0.0524,-0.0228,-0.0159,1.0043,0.3849,0.0319,-0.3328,0.0360,0.4430,0.1806,0.0876,0.4430,0.1806,0.0876,0.3000,0.0600,0.0002,0,-0.3000,-100.0000,-0.0010,-0.3000,-100.0000,-0.0010,14.9668,49.2641,0.0200,0.0000
-30.5295,40.2563,-11.3311,0.0000,-0.0821,0.1200,0.0000,-0.9600,0.0400,0.1803,-0.1783,-0.0037,1040,1502,1500,1497,1000,1000,1505,1000,1000,1505,1502,1500,1505,0.7367,-0.0074,-0.1094,-0.0213,-0.0136,1.0039,0.3949,0.0418,-0.3223,0.0457,0.4430,0.1806,0.0876,0.4430,0.1806,0.0876,0.3000,0.0600,0.0002,0,-0.3000,-100.0000,-0.0010,-0.3000,-100.0000,-0.0010,15.0080,49.3021,0.0200,0.0000
-30.4913,40.2289,-11.3115,-0.0829,-0.0821,0.1200,0.0000,-0.9600,0.0410,0.1802,-0.1781,-0.0038,1043,1504,1501,1499,1000,1000,1505,1000,1000,1505,1502,1500,1505,0.6892,-0.0836,-0.1081,-0.0284,-0.0137,1.0011,0.3955,0.0428,-0.3211,0.0468,0.4430,0.1806,0.0876,0.4430,0.1806,0.0876,0.3000,0.0600,0.0002,0,-0.3000,-100.0000,-0.0010,-0.3000,-100.0000,-0.0010,15.0491,49.3401,0.0200,0.0000
-30.4531,40.2014,-11.2916,0.0000,-0.0821,0.1200,0.0000,-0.9600,0.0410,0.1800,-0.1781,-0.0050,1041,1502,1500,1497,1000,1000,1505,1000,1000,1505,1502,1500,1505,0.6814,-0.0233,-0.0410,-0.0233,-0.0149,1.0037,0.3941,0.0441,-0.3221,0.0479,0.4430,0.1806,0.0876,0.4430,0.1806,0.0876,0.3000,0.0600,0.0002,0,-0.3000,-100.0000,-0.0010,-0.3000,-100.0000,-0.0010,15.0903,49.3781,0.0200,0.0000
-30.4147,40.1749,-11.2713,0.0829,-0.0821,0.1200,0.0000,-0.9600,0.0410,0.1798,-0.1780,-0.0043,1041,1502,1500,1497,1000,1000,1505,1000,1000,1505,1502,1500,1505,0.6905,0.0029,0.0362,-0.0245,-0.0140,1.0015,0.3945,0.0435,-0.3211,0.0471,0.4430,0.1806,0.0876,0.4430,0.1806,0.0876,0.3000,0.0600,0.0002,0,-0.3000,-100.0000,-0.0010,-0.3000,-100.0000,-0.0010,15.1315,49.4161,0.0200,0.0000
-30.3759,40.1481,-11.2509,0.0000,-0.0821,0.1200,0.0000,-0.9600,0.0440,0.1796,-0.1778,-0.0042,1044,1502,1500,1497,1000,1000,1505,1000,1000,1505,1502,1500,1505,0.7713,-0.0332,0.0151,-0.0236,-0.0168,1.0030,0.3972,0.0465,-0.3176,0.0500,0.4430,0.1806,0.0876,0.4430,0.1806,0.0876,0.3000,0.0600,0.0002,0,-0.3000,-100.0000,-0.0010,-0.3000,-100.0000,-0.0010,15.1727,49.4541,0.0200,0.0000
-30.3361,40.1221,-11.2305,0.0000,-0.0821,0.1200,0.0000,-0.9600,0.0450,0.1793,-0.1778,-0.0043,1045,1502,1500,1497,1000,1000,1505,1000,1000,1505,1502,1500,1505,0.8531,0.1014,0.0501,-0.0249,-0.0178,1.0052,0.3978,0.0478,-0.3165,0.0508,0.4430,0.1806,0.0876,0.4430,0.1806,0.0876,0.3000,0.0600,0.0002,0,-0.3000,-100.0000,-0.0010,-0.3000,-100.0000,-0.0010,15.2139,49.4921,0.0200,0.0000
-30.2948,40.0959,-11.2099,0.0829,-0.0821,0.1200,0.0000,-0.9600,0.0560,0.1790,-0.1777,-0.0042,1056,1502,1500,1497,1000,1000,1505,1000,1000,1505,1502,1500,1505,1.0410,0.0430,-0.0008,-0.0234,-0.0186,1.0004,0.4085,0.0589,-0.3048,0.0615,0.4430,0.1806,0.0876,0.4430,0.1806,0.0876,0.3000,0.0600,0.0002,0,-0.3000,-100.0000,-0.0010,-0.3000,-100.0000,-0.0010,15.2552,49.5300,0.0200,0.0000
-30.2522,40.0699,-11.1900,0.0000,-0.0821,0.1200,0.0000,-0.9600,0.0600,0.1788,-0.1781,-0.0041,1089,1504,1501,1499,1000,1000,1505,1000,1000,1505,1502,1500,1505,1.0726,-0.0457,-0.0138,-0.0235,-0.0175,1.0037,0.4127,0.0635,-0.3010,0.0648,0.4430,0.1806,0.0876,0.4430,0.1806,0.0876,0.3000,0.0600,0.0002,0,-0.3000,-100.0000,-0.0010,-0.3000,-100.0000,-0.0010,15.2964,49.5680,0.0200,0.0000
-30.2105,40.0432,-11.1709,-0.0829,-0.0821,0.1200,0.0000,-0.9600,0.0960,0.1786,-0.1789,-0.0046,1096,1502,1500,1497,1000,1000,1505,1000,1000,1505,1502,1500,1505,0.9942,0.1172,-0.1548,-0.0252,-0.0174,1.0033,0.4489,0.1009,-0.2662,0.1004,0.4430,0.1806,0.0876,0.4430,0.1806,0.0876,0.3000,0.0600,0.0002,0,-0.3000,-100.0000,-0.0010,-0.3000,-100.0000,-0.0010,15.3376,49.6058,0.0200,0.0000
-30.1704,40.0163,-11.1531,0.0000,-0.0821,0.1200,0.0000,-0.9600,0.1000,0.1785,-0.1795,-0.0038,1100,1502,1500,1497,1000,1000,1505,1000,1000,1505,1502,1500,1505,0.9835,0.0175,-0.1333,-0.0267,-0.0154,1.0058,0.4541,0.1048,-0.2618,0.1028,0.4430,0.1806,0.0876,0.4430,0.1806,0.0876,0.3000,0.0600,0.0002,0,-0.3000,-100.0000,-0.0010,-0.3000,-100.0000,-0.0010,15.3789,49.6437,0.0200,0.0000
-30.1310,39.9889,-11.1347,0.0000,-0.0821,0.1200,0.0000,-0.9600,0.1010,0.1785,-0.1800,-0.0040,1101,1502,1500,1497,1000,1000,1505,1000,1000,1505,1502,1500,1505,0.7643,-0.0992,-0.0955,-0.0226,-0.0121,1.0041,0.4555,0.1065,-0.2614,0.1035,0.4430,0.1806,0.0876,0.4430,0.1806,0.0876,0.3000,0.0600,0.0002,0,-0.3000,-100.0000,-0.0010,-0.3000,-100.0000,-0.0010,15.4201,49.6817,0.0200,0.0000
-30.0919,39.9612,-11.1145,0.0000,-0.1642,0.1200,0.0000,-0.9600,0.1010,0.1784,-0.1806,-0.0041,1101,1502,1500,1497,1000,1000,1505,1000,1000,1505,1502,1500,1505,0.6728,-0.1035,-0.0214,-0.0254,-0.0126,1.0025,0.4559,0.1074,-0.2622,0.1029,0.4430,0.1806,0.0876,0.4430,0.1806,0.0876,0.3000,0.0600,0.0002,0,-0.3000,-100.0000,-0.0010,-0.3000,-100.0000,-0.0010,15.4614,49.7196,0.0200,0.0000
-30.0545,39.9333,-11.0939,0.0000,-0.0821,0.1200,0.0000,-0.9600,0.1010,0.1784,-0.1812,-0.0042,1101,1502,1500,1497,1000,1000,1505,1000,1000,1505,1502,1500,1505,0.4896,-0.1434,-0.0122,-0.0254,-0.0115,1.0067,0.4564,0.1081,-0.2628,0.1024,0.4430,0.1806,0.0876,0.4430,0.1806,0.0876,0.3000,0.0600,0.0002,0,-0.3000,-100.0000,-0.0010,-0.3000,-100.0000,-0.0010,15.5028,49.7575,0.0200,0.0000
-30.0185,39.9058,-11.0726,-0.1657,-0.1642,0.1200,0.0000,-0.9600,0.1110,0.1785,-0.1819,-0.0045,1114,1504,1501,1499,1000,1000,1505,1000,1000,1505,1502,1500,1505,0.1919,-0.1513,0.1006,-0.0247,-0.0151,1.0078,0.4668,0.1189,-0.2539,0.1122,0.4430,0.1806,0.0876,0.4430,0.1806,0.0876,0.3000,0.0600,0.0002,0,-0.3000,-100.0000,-0.0010,-0.3000,-100.0000,-0.0010,15.5441,49.7954,0.0200,0.0000
-29.9839,39.8788,-11.0499,-0.0829,-0.0821,0.1200,0.0000,-0.9600,0.1160,0.1784,-0.1825,-0.0055,1116,1502,1500,1497,1000,1000,1505,1000,1000,1505,1502,1500,1505,0.0759,-0.1163,0.1207,-0.0272,-0.0127,1.0029,0.4714,0.1256,-0.2505,0.1175,0.4430,0.1806,0.0876,0.4430,0.1806,0.0876,0.3000,0.0600,0.0002,0,-0.3000,-100.0000,-0.0010,-0.3000,-100.0000,-0.0010,15.5854,49.8333,0.0200,0.0000
-29.9503,39.8519,-11.0271,-0.0829,-0.1642,0.1200,0.0000,-0.9600,0.1160,0.1783,-0.1831,-0.0047,1116,1502,1500,1497,1000,1000,1505,1000,1000,1505,1502,1500,1505,0.0329,-0.1908,0.1549,-0.0261,-0.0133,1.0028,0.4728,0.1254,-0.2501,0.1159,0.4430,0.1806,0.0876,0.4430,0.1806,0.0876,0.3000,0.0600,0.0002,0,-0.3000,-100.0000,-0.0010,-0.3000,-100.0000,-0.0010,15.6268,49.8712,0.0200,0.0000
-29.9173,39.8241,-11.0035,0.0000,-0.1642,0.1200,0.0000,-0.9600,0.1160,0.1783,-0.1837,-0.0045,1116,1502,1500,1497,1000,1000,1505,1000,1000,1505,1502,1500,1505,-0.1080,-0.1702,0.1160,-0.0260,-0.0156,1.0084,0.4735,0.1260,-0.2506,0.1151,0.4430,0.1806,0.0876,0.4430,0.1806,0.0876,0.3000,0.0600,0.0002,0,-0.3000,-100.0000,-0.0010,-0.3000,-100.0000,-0.0010,15.6681,49.9090,0.0200,0.0000
-29.8859,39.7960,-10.9811,0.0000,-0.0821,0.1200,0.0000,-0.9600,0.1160,0.1782,-0.1843,-0.0044,1116,1502,1500,1497,1000,1000,1505,1000,1000,1505,1502,1500,1505,-0.1395,-0.2636,0.0656,-0.0253,-0.0124,1.0065,0.4741,0.1265,-0.2509,0.1143,0.4430,0.1806,0.0876,0.4430,0.1806,0.0876,0.3000,0.0600,0.0002,0,-0.3000,-100.0000,-0.0010,-0.3000,-100.0000,-0.0010,15.7095,49.9468,0.0200,0.0000
-29.8545,39.7674,-10.9582,0.0829,-0.0821,0.1200,0.0000,-0.9600,0.1160,0.1781,-0.1849,-0.0043,1116,1502,1500,1497,1000,1000,1505,1000,1000,1505,1502,1500,1505,-0.1883,-0.2471,0.0215,-0.0266,-0.0130,1.0051,0.4748,0.1271,-0.2513,0.1134,0.4430,0.1806,0.0876,0.4430,0.1806,0.0876,0.3000,0.0600,0.0002,0,-0.3000,-100.0000,-0.0010,-0.3000,-100.0000,-0.0010,15.7509,49.9847,0.0200,0.0000
-29.8232,39.7386,-10.9356,0.0000,-0.0000,0.1200,0.0000,-0.9600,0.1160,0.1779,-0.1855,-0.0045,1116,1504,1501,1499,1000,1000,1505,1000,1000,1505,1502,1500,1505,-0.1147,-0.2885,0.0879,-0.0242,-0.0127,0.9996,0.4749,0.1281,-0.2519,0.1129,0.4430,0.1806,0.0876,0.4430,0.1806,0.0876,0.3000,0.0600,0.0002,0,-0.3000,-100.0000,-0.0010,-0.3000,-100.0000,-0.0010,15.7923,50.0225,0.0200,0.0000
-29.7916,39.7098,-10.9134,0.0829,-0.0821,0.1200,0.0000,-0.9600,0.1160,0.1778,-0.1861,-0.0053,1116,1502,1500,1497,1000,1000,1505,1000,1000,1505,1502,1500,1505,-0.1528,-0.3086,0.0307,-0.0241,-0.0118,1.0000,0.4747,0.1296,-0.2532,0.1129,0.4430,0.1806,0.0876,0.4430,0.1806,0.0876,0.3000,0.0600,0.0002,0,-0.3000,-100.0000,-0.0010,-0.3000,-100.0000,-0.0010,15.8337,50.0603,0.0200,0.0000
-29.7612,39.6813,-10.8913,0.0000,-0.0821,0.1200,0.0000,-0.9600,0.1160,0.1777,-0.1869,-0.0045,1116,1502,1500,1497,1000,1000,1505,1000,1000,1505,1502,1500,1505,-0.2527,-0.1522,0.0614,-0.0244,-0.0099,1.0021,0.4762,0.1296,-0.2531,0.1113,0.4430,0.1806,0.0876,0.4430,0.1806,0.0876,0.3000,0.0600,0.0002,0,-0.3000,-100.0000,-0.0010,-0.3000,-100.0000,-0.0010,15.8751,50.0982,0.0200,0.0000
-29.7315,39.6538,-10.8692,0.0829,-0.0000,0.1200,0.0000,-0.9600,0.1160,0.1777,-0.1875,-0.0046,1116,1502,1500,1497,1000,1000,1505,1000,1000,1505,1502,1500,1505,-0.3121,-0.1778,0.1148,-0.0235,-0.0116,1.0068,0.4766,0.1304,-0.2538,0.1108,0.4430,0.1806,0.0876,0.4430,0.1806,0.0876,0.3000,0.0600,0.0002,0,-0.3000,-100.0000,-0.0010,-0.3000,-100.0000,-0.0010,15.9166,50.1360,0.0200,0.0000
-29.7022,39.6259,-10.8472,0.0000,-0.1642,0.1200,0.0000,-0.9600,0.1160,0.1775,-0.1882,-0.0046,1116,1502,1500,1497,1000,1000,1505,1000,1000,1505,1502,1500,1505,-0.3131,-0.1469,0.1108,-0.0239,-0.0182,1.0050,0.4771,0.1312,-0.2543,0.1100,0.4430,0.1806,0.0876,0.4430,0.1806,0.0876,0.3000,0.0600,0.0002,0,-0.3000,-100.0000,-0.0010,-0.3000,-100.0000,-0.0010,15.9581,50.1738,0.0200,0.0000
-29.6738,39.5980,-10.8255,0.0000,-0.0821,0.1200,0.0000,-0.9600,0.1160,0.1775,-0.1887,-0.0044,1116,1502,1500,1497,1000,1000,1505,1000,1000,1505,1502,1500,1505,-0.4332,-0.2106,0.0676,-0.0246,-0.0125,1.0083,0.4778,0.1316,-0.2547,0.1092,0.4430,0.1806,0.0876,0.4430,0.1806,0.0876,0.3000,0.0600,0.0002,0,-0.3000,-100.0000,-0.0010,-0.3000,-100.0000,-0.0010,15.9995,50.2116,0.0200,0.0000
-29.6458,39.5706,-10.8034,0.0000,-0.0821,0.1200,0.0000,-0.9600,0.1160,0.1773,-0.1895,-0.0047,1116,1504,1501,1499,1000,1000,1505,1000,1000,1505,1502,1500,1505,-0.3708,-0.0836,0.1370,-0.0252,-0.0144,1.0054,0.4781,0.1328,-0.2555,0.1086,0.4430,0.1806,0.0876,0.4430,0.1806,0.0876,0.3000,0.0600,0.0002,0,-0.3000,-100.0000,-0.0010,-0.3000,-100.0000,-0.0010,16.0410,50.2494,0.0200,0.0000
-29.6174,39.5433,-10.7816,0.0000,-0.1642,0.1200,0.0000,-0.9600,0.1160,0.1772,-0.1901,-0.0055,1116,1502,1500,1497,1000,1000,1505,1000,1000,1505,1502,1500,1505,-0.3516,-0.0868,0.0876,-0.0237,-0.0156,1.0018,0.4778,0.1344,-0.2568,0.1086,0.4430,0.1806,0.0876,0.4430,0.1806,0.0876,0.3000,0.0600,0.0002,0,-0.3000,-100.0000,-0.0010,-0.3000,-100.0000,-0.0010,16.0826,50.2872,0.0200,0.0000
-29.5879,39.5154,-10.7596,0.0000,-0.0821,0.1200,0.0000,-0.9600,0.1160,0.1770,-0.1906,-0.0048,1116,1502,1500,1497,1000,1000,1505,1000,1000,1505,1502,1500,1505,-0.2963,-0.2275,0.1771,-0.0251,-0.0145,1.0044,0.4788,0.1344,-0.2564,0.1072,0.4430,0.1806,0.0876,0.4430,0.1806,0.0876,0.3000,0.0600,0.0002,0,-0.3000,-100.0000,-0.0010,-0.3000,-100.0000,-0.0010,16.1241,50.3250,0.0200,0.0000
-29.5575,39.4876,-10.7369,0.0000,-0.0821,0.1200,0.0000,-0.9600,0.1160,0.1768,-0.1913,-0.0045,1116,1502,1500,1497,1000,1000,1505,1000,1000,1505,1502,1500,1505,-0.1709,-0.1172,0.0644,-0.0214,-0.0147,1.0029,0.4796,0.1350,-0.2566,0.1059,0.4430,0.1806,0.0876,0.4430,0.1806,0.0876,0.3000,0.0600,0.0002,0,-0.3000,-100.0000,-0.0010,-0.3000,-100.0000,-0.0010,16.1657,50.3628,0.0200,0.0000
-29.5280,39.4601,-10.7156,0.0000,-0.1642,0.1200,0.0000,-0.9600,0.1160,0.1768,-0.1920,-0.0047,1116,1502,1500,1497,1000,1000,1505,1000,1000,1505,1502,1500,1505,-0.2968,-0.0289,0.1063,-0.0213,-0.0176,1.0016,0.4801,0.1359,-0.2574,0.1054,0.4430,0.1806,0.0876,0.4430,0.1806,0.0876,0.3000,0.0600,0.0002,0,-0.3000,-100.0000,-0.0010,-0.3000,-100.0000,-0.0010,16.2073,50.4006,0.0200,0.0000
-29.4988,39.4332,-10.6941,0.0829,-0.0821,0.1200,0.0000,-0.9600,0.1160,0.1766,-0.1927,-0.0047,1116,1502,1500,1497,1000,1000,1505,1000,1000,1505,1502,1500,1505,-0.3002,-0.0053,0.1221,-0.0237,-0.0163,1.0062,0.4806,0.1368,-0.2580,0.1047,0.4430,0.1806,0.0876,0.4430,0.1806,0.0876,0.3000,0.0600,0.0002,0,-0.3000,-100.0000,-0.0010,-0.3000,-100.0000,-0.0010,16.2489,50.4384,0.0200,0.0000
-29.4702,39.4068,-10.6734,0.0000,-0.0000,0.1200,0.0000,-0.9600,0.1160,0.1765,-0.1933,-0.0045,1118,1504,1501,1499,1000,1000,1505,1000,1000,1505,1502,1500,1505,-0.2941,0.0158,0.0533,-0.0216,-0.0156,1.0041,0.4813,0.1373,-0.2583,0.1036,0.4430,0.1806,0.0876,0.4430,0.1806,0.0876,0.3000,0.0600,0.0002,0,-0.3000,-100.0000,-0.0010,-0.3000,-100.0000,-0.0010,16.2905,50.4762,0.0200,0.0000
-29.4421,39.3807,-10.6527,-0.1657,-0.1642,0.1200,0.0000,-0.9600,0.1160,0.1765,-0.1940,-0.0056,1116,1502,1500,1497,1000,1000,1505,1000,1000,1505,1502,1500,1505,-0.3954,0.0348,0.1178,-0.0207,-0.0124,1.0040,0.4808,0.1391,-0.2600,0.1041,0.4430,0.1806,0.0876,0.4430,0.1806,0.0876,0.3000,0.0600,0.0002,0,-0.3000,-100.0000,-0.0010,-0.3000,-100.0000,-0.0010,16.3321,50.5139,0.0200,0.0000
-29.4150,39.3546,-10.6321,0.0829,-0.0821,0.1200,0.0000,-0.9600,0.1160,0.1764,-0.1946,-0.0047,1116,1502,1500,1497,1000,1000,1505,1000,1000,1505,1502,1500,1505,-0.4856,0.0357,0.1094,-0.0238,-0.0151,1.0047,0.4824,0.1388,-0.2597,0.1025,0.4430,0.1806,0.0876,0.4430,0.1806,0.0876,0.3000,0.0600,0.0002,0,-0.3000,-100.0000,-0.0010,-0.3000,-100.0000,-0.0010,16.3737,50.5516,0.0200,0.0000
-29.3883,39.3280,-10.6114,-0.0829,-0.2462,0.1200,0.0000,-0.9600,0.1160,0.1763,-0.1952,-0.0046,1116,1502,1500,1497,1000,1000,1505,1000,1000,1505,1502,1500,1505,-0.5280,-0.0231,0.0874,-0.0243,-0.0138,1.0073,0.4829,0.1394,-0.2601,0.1018,0.4430,0.1806,0.0876,0.4430,0.1806,0.0876,0.3000,0.0600,0.0002,0,-0.3000,-100.0000,-0.0010,-0.3000,-100.0000,-0.0010,16.4153,50.5892,0.0200,0.0000
-29.3615,39.3019,-10.5902,0.0000,-0.0000,0.1200,0.0000,-0.9600,0.1160,0.1762,-0.1958,-0.0049,1116,1502,1500,1497,1000,1000,1505,1000,1000,1505,1502,1500,1505,-0.4852,-0.0224,0.1497,-0.0244,-0.0131,1.0039,0.4831,0.1405,-0.2608,0.1012,0.4430,0.1806,0.0876,0.4430,0.1806,0.0876,0.3000,0.0600,0.0002,0,-0.3000,-100.0000,-0.0010,-0.3000,-100.0000,-0.0010,16.4569,50.6268,0.0200,0.0000
-29.3345,39.2752,-10.5683,-0.0829,-0.0821,0.1200,0.0000,-0.9600,0.1160,0.1761,-0.1964,-0.0048,1116,1502,1500,1497,1000,1000,1505,1000,1000,1505,1502,1500,1505,-0.5291,-0.0537,0.1434,-0.0231,-0.0153,1.0047,0.4837,0.1411,-0.2613,0.1004,0.4430,0.1806,0.0876,0.4430,0.1806,0.0876,0.3000,0.0600,0.0002,0,-0.3000,-100.0000,-0.0010,-0.3000,-100.0000,-0.0010,16.4985,50.6644,0.0200,0.0000
-29.3074,39.2484,-10.5465,0.0000,-0.0821,0.1200,0.0000,-0.9600,0.1160,0.1760,-0.1970,-0.0047,1118,1504,1501,1499,1000,1000,1505,1000,1000,1505,1502,1500,1505,-0.5158,-0.0862,0.1247,-0.0250,-0.0138,1.0063,0.4842,0.1418,-0.2617,0.0997,0.4430,0.1806,0.0876,0.4430,0.1806,0.0876,0.3000,0.0600,0.0002,0,-0.3000,-100.0000,-0.0010,-0.3000,-100.0000,-0.0010,16.5401,50.7020,0.0200,0.0000
-29.2808,39.2225,-10.5250,0.0000,-0.0821,0.1200,0.0000,-0.9600,0.1060,0.1758,-0.1978,-0.0057,1106,1502,1500,1497,1000,1000,1505,1000,1000,1505,1502,1500,1505,-0.5099,0.0526,0.1477,-0.0231,-0.0139,1.0056,0.4739,0.1337,-0.2733,0.0898,0.4430,0.1806,0.0876,0.4430,0.1806,0.0876,0.3000,0.0600,0.0002,0,-0.3000,-100.0000,-0.0010,-0.3000,-100.0000,-0.0010,16.5818,50.7396,0.0200,0.0000
-29.2548,39.1967,-10.5041,0.0000,-0.0821,0.1200,0.0000,-0.9600,0.1010,0.1757,-0.1983,-0.0049,1101,1502,1500,1497,1000,1000,1505,1000,1000,1505,1502,1500,1505,-0.5222,0.0036,0.1769,-0.0239,-0.0173,1.0075,0.4702,0.1285,-0.2780,0.0833,0.4430,0.1806,0.0876,0.4430,0.1806,0.0876,0.3000,0.0600,0.0002,0,-0.3000,-100.0000,-0.0010,-0.3000,-100.0000,-0.0010,16.6235,50.7772,0.0200,0.0000
-29.2286,39.1703,-10.4832,0.0829,-0.1642,0.1200,0.0000,-0.9600,0.0640,0.1756,-0.1990,-0.0046,1064,1502,1500,1497,1000,1000,1505,1000,1000,1505,1502,1500,1505,-0.5511,0.0061,0.1021,-0.0244,-0.0171,1.0033,0.4340,0.0919,-0.3152,0.0453,0.4430,0.1806,0.0876,0.4430,0.1806,0.0876,0.3000,0.0600,0.0002,0,-0.3000,-100.0000,-0.0010,-0.3000,-100.0000,-0.0010,16.6651,50.8147,0.0200,0.0000
-29.2027,39.1437,-10.4627,0.0000,-0.0821,0.1200,0.0000,-0.9600,0.0510,0.1756,-0.1734,-0.0046,1051,1502,1500,1497,1000,1000,1505,1000,1000,1505,1502,1500,1505,-0.5742,0.0019,0.1058,-0.0221,-0.0158,1.0058,0.3953,0.0535,-0.3026,0.0578,0.4430,0.1806,0.0876,0.4430,0.1806,0.0876,0.3000,0.0600,0.0002,0,-0.3000,-100.0000,-0.0010,-0.3000,-100.0000,-0.0010,16.7069,50.8524,0.0200,0.0000
-29.1765,39.1166,-10.4414,0.0000,-0.1642,0.1200,0.0000,-0.9600,0.0150,0.1754,-0.1732,-0.0049,1015,1502,1500,1497,1000,1000,1505,1000,1000,1505,1502,1500,1505,-0.5309,-0.0919,0.1723,-0.0228,-0.0160,1.0062,0.3587,0.0178,-0.3385,0.0221,0.4430,0.1806,0.0876,0.4430,0.1806,0.0876,0.3000,0.0600,0.0002,0,-0.3000,-100.0000,-0.0010,-0.3000,-100.0000,-0.0010,16.7486,50.8899,0.0200,0.0000
-29.1496,39.0888,-10.4195,0.0000,-0.0821,0.1200,0.0000,-0.9600,0.0010,0.1752,-0.1731,-0.0048,1000,1504,1501,1499,1000,1000,1505,1000,1000,1505,1502,1500,1505,-0.4414,-0.1146,0.1251,-0.0203,-0.0181,1.0053,0.3444,0.0037,-0.3521,0.0080,0.4430,0.1806,0.0876,0.4430,0.1806,0.0876,0.3000,0.0600,0.0002,0,-0.3000,-100.0000,-0.0010,-0.3000,-100.0000,-0.0010,16.7904,50.9275,0.0200,0.0000
-29.1212,39.0604,-10.3971,0.0000,-0.0821,0.1200,0.0000,-0.9600,0.0000,0.1750,-0.1728,-0.0057,1000,1502,1500,1497,1000,1000,1505,1000,1000,1505,1502,1500,1505,-0.3182,-0.2429,0.1100,-0.0235,-0.0177,1.0056,0.3421,0.0035,-0.3535,0.0078,0.4430,0.1806,0.0876,0.4430,0.1806,0.0876,0.3000,0.0600,0.0002,0,-0.3000,-100.0000,-0.0010,-0.3000,-100.0000,-0.0010,16.8321,50.9651,0.0200,0.0000
-29.0900,39.0316,-10.3739,0.0000,-0.1642,0.1200,0.0000,-0.9600,0.0000,0.1746,-0.1727,-0.0047,1000,1502,1500,1497,1000,1000,1505,1000,1000,1505,1502,1500,1505,-0.0945,-0.2703,0.1219,-0.0219,-0.0182,1.0087,0.3426,0.0027,-0.3520,0.0067,0.4430,0.1806,0.0876,0.4430,0.1806,0.0876,0.3000,0.0600,0.0002,0,-0.3000,-100.0000,-0.0010,-0.3000,-100.0000,-0.0010,16.8739,51.0027,0.0200,0.0000
-29.0574,39.0022,-10.3520,0.0000,-0.1642,0.1200,0.0000,-0.9600,0.0000,0.1743,-0.1725,-0.0047,1000,1502,1500,1497,1000,1000,1505,1000,1000,1505,1502,1500,1505,0.0958,-0.3183,0.1050,-0.0243,-0.0191,1.0043,0.3421,0.0029,-0.3515,0.0065,0.4430,0.1806,0.0876,0.4430,0.1806,0.0876,0.3000,0.0600,0.0002,0,-0.3000,-100.0000,-0.0010,-0.3000,-100.0000,-0.0010,16.9157,51.0402,0.0200,0.0000
-29.0223,38.9725,-10.3291,0.0000,-0.1642,0.1200,0.0000,-0.9600,0.0000,0.1740,-0.1724,-0.0046,1000,1502,1500,1497,1000,1000,1505,1000,1000,1505,1502,1500,1505,0.3086,-0.3381,0.0671,-0.0250,-0.0187,1.0009,0.3417,0.0030,-0.3510,0.0063,0.4430,0.1806,0.0876,0.4430,0.1806,0.0876,0.3000,0.0600,0.0002,0,-0.3000,-100.0000,-0.0010,-0.3000,-100.0000,-0.0010,16.9575,51.0778,0.0200,0.0000
-28.9851,38.9419,-10.3059,0.0000,-0.0821,0.1200,0.0000,-0.9600,0.0000,0.1737,-0.1721,-0.0046,1000,1502,1500,1497,1000,1000,1505,1000,1000,1505,1502,1500,1505,0.4086,-0.4331,0.0529,-0.0218,-0.0161,1.0059,0.3413,0.0030,-0.3504,0.0062,0.4430,0.1806,0.0876,0.4430,0.1806,0.0876,0.3000,0.0600,0.0002,0,-0.3000,-100.0000,-0.0010,-0.3000,-100.0000,-0.0010,16.9994,51.1154,0.0200,0.0000
-28.9475,38.9107,-10.2829,0.0000,-0.0821,0.1200,0.0000,-0.9600,0.0000,0.1735,-0.1720,-0.0044,1000,1504,1501,1499,1000,1000,1505,1000,1000,1505,1502,1500,1505,0.5100,-0.4838,0.0116,-0.0246,-0.0164,1.0024,0.3410,0.0029,-0.3499,0.0060,0.4430,0.1806,0.0876,0.4430,0.1806,0.0876,0.3000,0.0600,0.0002,0,-0.3000,-100.0000,-0.0010,-0.3000,-100.0000,-0.0010,17.0412,51.1529,0.0200,0.0000
-28.9092,38.8796,-10.2606,0.0000,-0.1642,0.1200,0.0000,-0.9600,0.0000,0.1733,-0.1719,-0.0054,1000,1502,1500,1497,1000,1000,1505,1000,1000,1505,1502,1500,1505,0.5000,-0.4086,0.0094,-0.0263,-0.0149,1.0070,0.3397,0.0040,-0.3506,0.0069,0.4430,0.1806,0.0876,0.4430,0.1806,0.0876,0.3000,0.0600,0.0002,0,-0.3000,-100.0000,-0.0010,-0.3000,-100.0000,-0.0010,17.0831,51.1904,0.0200,0.0000
-28.8719,38.8484,-10.2388,0.0000,-0.0821,0.1200,0.0000,-0.9600,0.0000,0.1732,-0.1717,-0.0042,1000,1502,1500,1497,1000,1000,1505,1000,1000,1505,1502,1500,1505,0.4150,-0.4113,-0.0649,-0.0213,-0.0138,1.0058,0.3407,0.0027,-0.3492,0.0057,0.4430,0.1806,0.0876,0.4430,0.1806,0.0876,0.3000,0.0600,0.0002,0,-0.3000,-100.0000,-0.0010,-0.3000,-100.0000,-0.0010,17.1249,51.2280,0.0200,0.0000
-28.8354,38.8171,-10.2182,-0.0829,-0.0821,0.1200,0.0000,-0.9600,0.0000,0.1731,-0.1717,-0.0040,1000,1502,1500,1497,1000,1000,1505,1000,1000,1505,1502,1500,1505,0.4144,-0.3182,-0.1288,-0.0231,-0.0152,1.0023,0.3407,0.0027,-0.3488,0.0054,0.4430,0.1806,0.0876,0.4430,0.1806,0.0876,0.3000,0.0600,0.0002,0,-0.3000,-100.0000,-0.0010,-0.3000,-100.0000,-0.0010,17.1668,51.2655,0.0200,0.0000
-28.7999,38.7868,-10.1987,-0.1657,-0.2462,0.1200,0.0000,-0.9600,0.0000,0.1729,-0.1717,-0.0038,1000,1502,1500,1497,1000,1000,1505,1000,1000,1505,1502,1500,1505,0.4420,-0.1895,-0.2058,-0.0203,-0.0176,1.0045,0.3408,0.0026,-0.3483,0.0050,0.4430,0.1806,0.0876,0.4430,0.1806,0.0876,0.3000,0.0600,0.0002,0,-0.3000,-100.0000,-0.0010,-0.3000,-100.0000,-0.0010,17.2087,51.3030,0.0200,0.0000
-28.7652,38.7572,-10.1800,0.0000,-0.0821,0.1200,0.0000,-0.9600,0.0000,0.1727,-0.1716,-0.0042,1000,1502,1500,1497,1000,1000,1505,1000,1000,1505,1502,1500,1505,0.4482,-0.0839,-0.0968,-0.0211,-0.0183,1.0027,0.3402,0.0031,-0.3485,0.0053,0.4430,0.1806,0.0876,0.4430,0.1806,0.0876,0.3000,0.0600,0.0002,0,-0.3000,-100.0000,-0.0010,-0.3000,-100.0000,-0.0010,17.2506,51.3405,0.0200,0.0000
-28.7293,38.7284,-10.1611,-0.0829,-0.2462,0.1200,0.0000,-0.9600,0.0000,0.1725,-0.1715,-0.0044,1000,1504,1501,1499,1000,1000,1505,1000,1000,1505,1502,1500,1505,0.5192,-0.0682,-0.0220,-0.0221,-0.0151,1.0060,0.3396,0.0034,-0.3484,0.0054,0.4430,0.1806,0.0876,0.4430,0.1806,0.0876,0.3000,0.0600,0.0002,0,-0.3000,-100.0000,-0.0010,-0.3000,-100.0000,-0.0010,17.2926,51.3779,0.0200,0.0000
-28.6921,38.7004,-10.1410,0.0000,-0.0821,0.1200,0.0000,-0.9600,0.0000,0.1722,-0.1714,-0.0055,1000,1502,1500,1497,1000,1000,1505,1000,1000,1505,1502,1500,1505,0.6446,-0.0680,0.0245,-0.0216,-0.0135,1.0062,0.3381,0.0047,-0.3491,0.0064,0.4430,0.1806,0.0876,0.4430,0.1806,0.0876,0.3000,0.0600,0.0002,0,-0.3000,-100.0000,-0.0010,-0.3000,-100.0000,-0.0010,17.3345,51.4154,0.0200,0.0000
-28.6539,38.6731,-10.1203,0.0000,-0.1642,0.1200,0.0000,-0.9600,0.0000,0.1721,-0.1713,-0.0047,1000,1502,1500,1497,1000,1000,1505,1000,1000,1505,1502,1500,1505,0.5635,0.0292,0.0716,-0.0241,-0.0126,1.0044,0.3388,0.0039,-0.3482,0.0055,0.4430,0.1806,0.0876,0.4430,0.1806,0.0876,0.3000,0.0600,0.0002,0,-0.3000,-100.0000,-0.0010,-0.3000,-100.0000,-0.0010,17.3765,51.4529,0.0200,0.0000
-28.6167,38.6464,-10.1001,0.0000,-0.1642,0.1200,0.0000,-0.9600,0.0000,0.1720,-0.1712,-0.0049,1000,1502,1500,1497,1000,1000,1505,1000,1000,1505,1502,1500,1505,0.4827,0.0498,0.1331,-0.0215,-0.0124,1.0052,0.3384,0.0041,-0.3482,0.0057,0.4430,0.1806,0.0876,0.4430,0.1806,0.0876,0.3000,0.0600,0.0002,0,-0.3000,-100.0000,-0.0010,-0.3000,-100.0000,-0.0010,17.4184,51.4903,0.0200,0.0000
-28.5799,38.6204,-10.0798,0.0000,-0.1642,0.1200,0.0000,-0.9600,0.0000,0.1719,-0.1712,-0.0050,1000,1502,1500,1497,1000,1000,1505,1000,1000,1505,1502,1500,1505,0.4642,0.1195,0.1604,-0.0211,-0.0128,1.0106,0.3381,0.0043,-0.3481,0.0057,0.4430,0.1806,0.0876,0.4430,0.1806,0.0876,0.3000,0.0600,0.0002,0,-0.3000,-100.0000,-0.0010,-0.3000,-100.0000,-0.0010,17.4604,51.5278,0.0200,0.0000
-28.5449,38.5951,-10.0602,-0.0829,-0.0821,0.1200,0.0000,-0.9600,0.0000,0.1719,-0.1712,-0.0047,1000,1502,1500,1497,1000,1000,1505,1000,1000,1505,1502,1500,1505,0.2889,0.2119,0.0963,-0.0212,-0.0120,1.0060,0.3383,0.0040,-0.3478,0.0055,0.4430,0.1806,0.0876,0.4430,0.1806,0.0876,0.3000,0.0600,0.0002,0,-0.3000,-100.0000,-0.0010,-0.3000,-100.0000,-0.0010,17.5024,51.5652,0.0200,0.0000
-28.5117,38.5707,-10.0415,0.0000,-0.0821,0.1200,0.0000,-0.9600,0.0000,0.1718,-0.1711,-0.0049,1000,1504,1501,1499,1000,1000,1505,1000,1000,1505,1502,1500,1505,0.1903,0.2739,0.1262,-0.0250,-0.0142,1.0050,0.3380,0.0042,-0.3478,0.0056,0.4430,0.1806,0.0876,0.4430,0.1806,0.0876,0.3000,0.0600,0.0002,0,-0.3000,-100.0000,-0.0010,-0.3000,-100.0000,-0.0010,17.5445,51.6027,0.0200,0.0000
-28.4791,38.5463,-10.0223,0.0000,-0.1642,0.1200,0.0000,-0.9600,0.0000,0.1717,-0.1710,-0.0060,1000,1502,1500,1497,1000,1000,1505,1000,1000,1505,1502,1500,1505,0.1858,0.2383,0.1631,-0.0240,-0.0150,1.0016,0.3367,0.0052,-0.3486,0.0067,0.4430,0.1806,0.0876,0.4430,0.1806,0.0876,0.3000,0.0600,0.0002,0,-0.3000,-100.0000,-0.0010,-0.3000,-100.0000,-0.0010,17.5865,51.6401,0.0200,0.0000
-28.4476,38.5221,-10.0038,-0.0829,-0.0821,0.1200,0.0000,-0.9600,0.0000,0.1716,-0.1710,-0.0046,1000,1502,1500,1497,1000,1000,1505,1000,1000,1505,1502,1500,1505,0.1000,0.3936,0.0401,-0.0217,-0.0143,1.0020,0.3380,0.0040,-0.3473,0.0053,0.4430,0.1806,0.0876,0.4430,0.1806,0.0876,0.3000,0.0600,0.0002,0,-0.3000,-100.0000,-0.0010,-0.3000,-100.0000,-0.0010,17.6285,51.6775,0.0200,0.0000
-28.4162,38.4981,-9.9854,0.0000,-0.1642,0.1200,0.0000,-0.9600,0.0000,0.1715,-0.1708,-0.0049,1000,1502,1500,1497,1000,1000,1505,1000,1000,1505,1502,1500,1505,0.0251,0.3212,0.1354,-0.0221,-0.0154,1.0025,0.3375,0.0042,-0.3473,0.0056,0.4430,0.1806,0.0876,0.4430,0.1806,0.0876,0.3000,0.0600,0.0002,0,-0.3000,-100.0000,-0.0010,-0.3000,-100.0000,-0.0010,17.6706,51.7149,0.0200,0.0000
-28.3851,38.4738,-9.9671,0.0000,-0.0821,0.1200,0.0000,-0.9600,0.0000,0.1713,-0.1707,-0.0047,1000,1502,1500,1497,1000,1000,1505,1000,1000,1505,1502,1500,1505,0.0913,0.3341,0.0676,-0.0250,-0.0166,1.0052,0.3374,0.0041,-0.3468,0.0053,0.4430,0.1806,0.0876,0.4430,0.1806,0.0876,0.3000,0.0600,0.0002,0,-0.3000,-100.0000,-0.0010,-0.3000,-100.0000,-0.0010,17.7127,51.7523,0.0200,0.0000
-28.3544,38.4495,-9.9499,0.0000,-0.0821,0.1200,0.0000,-0.9600,0.0000,0.1712,-0.1706,-0.0048,1000,1502,1500,1497,1000,1000,1505,1000,1000,1505,1502,1500,1505,0.1617,0.2852,0.0671,-0.0257,-0.0139,1.0064,0.3370,0.0042,-0.3465,0.0053,0.4430,0.1806,0.0876,0.4430,0.1806,0.0876,0.3000,0.0600,0.0002,0,-0.3000,-100.0000,-0.0010,-0.3000,-100.0000,-0.0010,17.7547,51.7896,0.0200,0.0000
-28.3229,38.4257,-9.9322,-0.0829,-0.0821,0.1200,0.0000,-0.9600,0.0000,0.1710,-0.1705,-0.0046,1000,1504,1501,1499,1000,1000,1505,1000,1000,1505,1502,1500,1505,0.1521,0.3635,0.0203,-0.0230,-0.0155,1.0060,0.3370,0.0041,-0.3461,0.0050,0.4430,0.1806,0.0876,0.4430,0.1806,0.0876,0.3000,0.0600,0.0002,0,-0.3000,-100.0000,-0.0010,-0.3000,-100.0000,-0.0010,17.7968,51.8270,0.0200,0.0000
-28.2907,38.4009,-9.9144,-0.0829,-0.0821,0.1200,0.0000,-0.9600,0.0000,0.1708,-0.1703,-0.0059,1000,1502,1500,1497,1000,1000,1505,1000,1000,1505,1502,1500,1505,0.2741,0.2145,0.1265,-0.0234,-0.0170,1.0059,0.3352,0.0054,-0.3470,0.0063,0.4430,0.1806,0.0876,0.4430,0.1806,0.0876,0.3000,0.0600,0.0002,0,-0.3000,-100.0000,-0.0010,-0.3000,-100.0000,-0.0010,17.8390,51.8644,0.0200,0.0000
-28.2574,38.3758,-9.8953,0.0000,-0.0821,0.1200,0.0000,-0.9600,0.0000,0.1707,-0.1702,-0.0048,1000,1502,1500,1497,1000,1000,1505,1000,1000,1505,1502,1500,1505,0.2155,0.1756,0.0895,-0.0260,-0.0168,1.0074,0.3360,0.0043,-0.3456,0.0053,0.4430,0.1806,0.0876,0.4430,0.1806,0.0876,0.3000,0.0600,0.0002,0,-0.3000,-100.0000,-0.0010,-0.3000,-100.0000,-0.0010,17.8811,51.9018,0.0200,0.0000
-28.2256,38.3506,-9.8763,0.0000,-0.0821,0.1200,0.0000,-0.9600,0.0000,0.1706,-0.1700,-0.0050,1000,1502,1500,1497,1000,1000,1505,1000,1000,1505,1502,1500,1505,0.1054,0.1320,0.1473,-0.0246,-0.0114,1.0053,0.3356,0.0044,-0.3457,0.0056,0.4430,0.1806,0.0876,0.4430,0.1806,0.0876,0.3000,0.0600,0.0002,0,-0.3000,-100.0000,-0.0010,-0.3000,-100.0000,-0.0010,17.9232,51.9391,0.0200,0.0000
-28.1947,38.3251,-9.8569,0.0000,-0.1642,0.1200,0.0000,-0.9600,0.0000,0.1707,-0.1699,-0.0050,1000,1502,1500,1497,1000,1000,1505,1000,1000,1505,1502,1500,1505,-0.1137,0.1804,0.1381,-0.0246,-0.0096,1.0033,0.3357,0.0042,-0.3456,0.0057,0.4430,0.1806,0.0876,0.4430,0.1806,0.0876,0.3000,0.0600,0.0002,0,-0.3000,-100.0000,-0.0010,-0.3000,-100.0000,-0.0010,17.9654,51.9765,0.0200,0.0000
-28.1664,38.2995,-9.8381,0.0000,-0.2462,0.1200,0.0000,-0.9600,0.0000,0.1708,-0.1698,-0.0048,1000,1502,1500,1497,1000,1000,1505,1000,1000,1505,1502,1500,1505,-0.3598,0.1213,0.0770,-0.0245,-0.0125,1.0085,0.3357,0.0038,-0.3454,0.0058,0.4430,0.1806,0.0876,0.4430,0.1806,0.0876,0.3000,0.0600,0.0002,0,-0.3000,-100.0000,-0.0010,-0.3000,-100.0000,-0.0010,18.0076,52.0138,0.0200,0.0000
-28.1399,38.2733,-9.8187,0.0000,-0.0000,0.1200,0.0000,-0.9600,0.0000,0.1708,-0.1696,-0.0050,1000,1504,1501,1499,1000,1000,1505,1000,1000,1505,1502,1500,1505,-0.5181,0.0525,0.1371,-0.0266,-0.0124,1.0026,0.3354,0.0038,-0.3454,0.0062,0.4430,0.1806,0.0876,0.4430,0.1806,0.0876,0.3000,0.0600,0.0002,0,-0.3000,-100.0000,-0.0010,-0.3000,-100.0000,-0.0010,18.0498,52.0511,0.0200,0.0000
-28.1155,38.2463,-9.7984,-0.0829,-0.2462,0.1200,0.0000,-0.9600,0.0000,0.1709,-0.1694,-0.0061,1000,1502,1500,1497,1000,1000,1505,1000,1000,1505,1502,1500,1505,-0.7908,-0.0844,0.1650,-0.0237,-0.0112,1.0048,0.3342,0.0045,-0.3464,0.0077,0.4430,0.1806,0.0876,0.4430,0.1806,0.0876,0.3000,0.0600,0.0002,0,-0.3000,-100.0000,-0.0010,-0.3000,-100.0000,-0.0010,18.0920,52.0884,0.0200,0.0000
-28.0931,38.2190,-9.7774,0.0000,-0.0821,0.1200,0.0000,-0.9600,0.0000,0.1710,-0.1693,-0.0051,1000,1502,1500,1497,1000,1000,1505,1000,1000,1505,1502,1500,1505,-1.0116,0.0006,0.2028,-0.0245,-0.0131,1.0075,0.3352,0.0034,-0.3455,0.0069,0.4430,0.1806,0.0876,0.4430,0.1806,0.0876,0.3000,0.0600,0.0002,0,-0.3000,-100.0000,-0.0010,-0.3000,-100.0000,-0.0010,18.1343,52.1257,0.0200,0.0000
-28.0717,38.1915,-9.7563,0.0829,-0.1642,0.1200,0.0000,-0.9600,0.0000,0.1710,-0.1691,-0.0051,1000,1502,1500,1497,1000,1000,1505,1000,1000,1505,1502,1500,1505,-1.0517,-0.1008,0.1512,-0.0249,-0.0145,1.0078,0.3350,0.0032,-0.3451,0.0069,0.4430,0.1806,0.0876,0.4430,0.1806,0.0876,0.3000,0.0600,0.0002,0,-0.3000,-100.0000,-0.0010,-0.3000,-100.0000,-0.0010,18.1765,52.1630,0.0200,0.0000
-28.0503,38.1629,-9.7346,-0.0829,-0.0821,0.1200,0.0000,-0.9600,0.0000,0.1708,-0.1689,-0.0052,1000,1502,1500,1497,1000,1000,1505,1000,1000,1505,1502,1500,1505,-0.9537,-0.1973,0.1838,-0.0255,-0.0162,1.0066,0.3345,0.0033,-0.3449,0.0071,0.4430,0.1806,0.0876,0.4430,0.1806,0.0876,0.3000,0.0600,0.0002,0,-0.3000,-100.0000,-0.0010,-0.3000,-100.0000,-0.0010,18.2188,52.2003,0.0200,0.0000
-28.0272,38.1346,-9.7115,0.0000,-0.0821,0.1200,0.0000,-0.9600,0.0000,0.1707,-0.1688,-0.0056,1000,1502,1500,1497,1000,1000,1505,1000,1000,1505,1502,1500,1505,-0.9318,-0.2042,0.3067,-0.0238,-0.0151,1.0079,0.3338,0.0037,-0.3450,0.0075,0.4430,0.1806,0.0876,0.4430,0.1806,0.0876,0.3000,0.0600,0.0002,0,-0.3000,-100.0000,-0.0010,-0.3000,-100.0000,-0.0010,18.2611,52.2376,0.0200,0.0000
-28.0035,38.1063,-9.6884,0.0000,-0.1642,0.1200,0.0000,-0.9600,0.0000,0.1705,-0.1687,-0.0052,1000,1504,1501,1499,1000,1000,1505,1000,1000,1505,1502,1500,1505,-0.8944,-0.1670,0.1896,-0.0223,-0.0163,1.0060,0.3340,0.0033,-0.3444,0.0070,0.4430,0.1806,0.0876,0.4430,0.1806,0.0876,0.3000,0.0600,0.0002,0,-0.3000,-100.0000,-0.0010,-0.3000,-100.0000,-0.0010,18.3034,52.2748,0.0200,0.0000
-27.9803,38.0785,-9.6664,0.0000,-0.0821,0.1200,0.0000,-0.9600,0.0000,0.1704,-0.1686,-0.0064,1000,1502,1500,1497,1000,1000,1505,1000,1000,1505,1502,1500,1505,-0.8493,-0.0777,0.2563,-0.0233,-0.0141,1.0066,0.3326,0.0046,-0.3454,0.0081,0.4430,0.1806,0.0876,0.4430,0.1806,0.0876,0.3000,0.0600,0.0002,0,-0.3000,-100.0000,-0.0010,-0.3000,-100.0000,-0.0010,18.3457,52.3121,0.0200,0.0000
-27.9572,38.0514,-9.6442,0.0000,-0.0821,0.1200,0.0000,-0.9600,0.0000,0.1703,-0.1685,-0.0054,1000,1502,1500,1497,1000,1000,1505,1000,1000,1505,1502,1500,1505,-0.8989,-0.0291,0.2483,-0.0251,-0.0152,1.0065,0.3335,0.0036,-0.3442,0.0071,0.4430,0.1806,0.0876,0.4430,0.1806,0.0876,0.3000,0.0600,0.0002,0,-0.3000,-100.0000,-0.0010,-0.3000,-100.0000,-0.0010,18.3879,52.3492,0.0200,0.0000
-27.9338,38.0240,-9.6216,0.0829,-0.0821,0.1200,0.0000,-0.9600,0.0000,0.1702,-0.1684,-0.0055,1000,1502,1500,1497,1000,1000,1505,1000,1000,1505,1502,1500,1505,-0.9164,-0.0694,0.2850,-0.0204,-0.0145,1.0047,0.3331,0.0036,-0.3441,0.0073,0.4430,0.1806,0.0876,0.4430,0.1806,0.0876,0.3000,0.0600,0.0002,0,-0.3000,-100.0000,-0.0010,-0.3000,-100.0000,-0.0010,18.4302,52.3864,0.0200,0.0000
-27.9108,37.9961,-9.5992,0.0000,-0.0821,0.1200,0.0000,-0.9600,0.0000,0.1701,-0.1682,-0.0054,1000,1502,1500,1497,1000,1000,1505,1000,1000,1505,1502,1500,1505,-0.8882,-0.1613,0.2430,-0.0241,-0.0175,1.0028,0.3329,0.0035,-0.3437,0.0073,0.4430,0.1806,0.0876,0.4430,0.1806,0.0876,0.3000,0.0600,0.0002,0,-0.3000,-100.0000,-0.0010,-0.3000,-100.0000,-0.0010,18.4726,52.4236,0.0200,0.0000
-27.8877,37.9684,-9.5772,0.0000,-0.2462,0.1200,0.0000,-0.9600,0.0000,0.1700,-0.1681,-0.0053,1000,1502,1500,1497,1000,1000,1505,1000,1000,1505,1502,1500,1505,-0.9364,-0.1085,0.2019,-0.0246,-0.0186,1.0081,0.3328,0.0034,-0.3435,0.0073,0.4430,0.1806,0.0876,0.4430,0.1806,0.0876,0.3000,0.0600,0.0002,0,-0.3000,-100.0000,-0.0010,-0.3000,-100.0000,-0.0010,18.5149,52.4607,0.0200,0.0000
-27.8653,37.9406,-9.5556,0.0000,-0.0821,0.1200,0.0000,-0.9600,0.0000,0.1699,-0.1680,-0.0053,1000,1504,1501,1499,1000,1000,1505,1000,1000,1505,1502,1500,1505,-0.8719,-0.0778,0.2223,-0.0251,-0.0167,1.0028,0.3326,0.0034,-0.3432,0.0072,0.4430,0.1806,0.0876,0.4430,0.1806,0.0876,0.3000,0.0600,0.0002,0,-0.3000,-100.0000,-0.0010,-0.3000,-100.0000,-0.0010,18.5573,52.4979,0.0200,0.0000
-27.8426,37.9128,-9.5348,0.0000,-0.0821,0.1200,0.0000,-0.9600,0.0000,0.1698,-0.1679,-0.0062,1000,1502,1500,1497,1000,1000,1505,1000,1000,1505,1502,1500,1505,-0.8523,-0.0272,0.1947,-0.0242,-0.0188,1.0033,0.3315,0.0043,-0.3439,0.0080,0.4430,0.1806,0.0876,0.4430,0.1806,0.0876,0.3000,0.0600,0.0002,0,-0.3000,-100.0000,-0.0010,-0.3000,-100.0000,-0.0010,18.5996,52.5351,0.0200,0.0000
-27.8194,37.8846,-9.5141,0.0829,-0.1642,0.1200,0.0000,-0.9600,0.0000,0.1696,-0.1678,-0.0047,1000,1502,1500,1497,1000,1000,1505,1000,1000,1505,1502,1500,1505,-0.7670,-0.0861,0.0321,-0.0207,-0.0162,1.0001,0.3326,0.0029,-0.3421,0.0066,0.4430,0.1806,0.0876,0.4430,0.1806,0.0876,0.3000,0.0600,0.0002,0,-0.3000,-100.0000,-0.0010,-0.3000,-100.0000,-0.0010,18.6420,52.5722,0.0200,0.0000
-27.7957,37.8562,-9.4945,0.0000,-0.1642,0.1200,0.0000,-0.9600,0.0000,0.1694,-0.1677,-0.0050,1000,1502,1500,1497,1000,1000,1505,1000,1000,1505,1502,1500,1505,-0.6432,0.0217,0.0952,-0.0244,-0.0160,1.0016,0.3321,0.0033,-0.3421,0.0067,0.4430,0.1806,0.0876,0.4430,0.1806,0.0876,0.3000,0.0600,0.0002,0,-0.3000,-100.0000,-0.0010,-0.3000,-100.0000,-0.0010,18.6845,52.6095,0.0200,0.0000
-27.7709,37.8287,-9.4741,0.0000,-0.0821,0.1200,0.0000,-0.9600,0.0000,0.1693,-0.1675,-0.0051,1000,1502,1500,1497,1000,1000,1505,1000,1000,1505,1502,1500,1505,-0.6782,-0.1063,0.1571,-0.0262,-0.0161,1.0022,0.3316,0.0033,-0.3419,0.0070,0.4430,0.1806,0.0876,0.4430,0.1806,0.0876,0.3000,0.0600,0.0002,0,-0.3000,-100.0000,-0.0010,-0.3000,-100.0000,-0.0010,18.7269,52.6466,0.0200,0.0000
-27.7472,37.8018,-9.4535,0.0000,-0.0821,0.1200,0.0000,-0.9600,0.0000,0.1693,-0.1675,-0.0053,1000,1502,1500,1497,1000,1000,1505,1000,1000,1505,1502,1500,1505,-0.7982,0.0964,0.1752,-0.0241,-0.0147,1.0001,0.3316,0.0035,-0.3421,0.0070,0.4430,0.1806,0.0876,0.4430,0.1806,0.0876,0.3000,0.0600,0.0002,0,-0.3000,-100.0000,-0.0010,-0.3000,-100.0000,-0.0010,18.7694,52.6838,0.0200,0.0000
-27.7238,37.7752,-9.4328,-0.0829,-0.1642,0.1200,0.0000,-0.9600,0.0000,0.1693,-0.1674,-0.0053,1000,1504,1501,1499,1000,1000,1505,1000,1000,1505,1502,1500,1505,-0.8695,0.0366,0.1956,-0.0234,-0.0157,1.0040,0.3313,0.0034,-0.3419,0.0072,0.4430,0.1806,0.0876,0.4430,0.1806,0.0876,0.3000,0.0600,0.0002,0,-0.3000,-100.0000,-0.0010,-0.3000,-100.0000,-0.0010,18.8118,52.7209,0.0200,0.0000
-27.7017,37.7488,-9.4115,0.0000,-0.0821,0.1200,0.0000,-0.9600,0.0000,0.1693,-0.1673,-0.0066,1000,1502,1500,1497,1000,1000,1505,1000,1000,1505,1502,1500,1505,-1.0777,0.0439,0.3125,-0.0208,-0.0155,1.0035,0.3300,0.0046,-0.3433,0.0087,0.4430,0.1806,0.0876,0.4430,0.1806,0.0876,0.3000,0.0600,0.0002,0,-0.3000,-100.0000,-0.0010,-0.3000,-100.0000,-0.0010,18.8543,52.7580,0.0200,0.0000
-27.6802,37.7219,-9.3896,-0.0829,-0.1642,0.1200,0.0000,-0.9600,0.0000,0.1692,-0.1671,-0.0056,1000,1502,1500,1497,1000,1000,1505,1000,1000,1505,1502,1500,1505,-1.0449,-0.0253,0.2937,-0.0251,-0.0156,1.0025,0.3307,0.0035,-0.3419,0.0077,0.4430,0.1806,0.0876,0.4430,0.1806,0.0876,0.3000,0.0600,0.0002,0,-0.3000,-100.0000,-0.0010,-0.3000,-100.0000,-0.0010,18.8968,52.7952,0.0200,0.0000
-27.6588,37.6957,-9.3688,0.0829,-0.1642,0.1200,0.0000,-0.9600,0.0000,0.1690,-0.1671,-0.0055,1000,1502,1500,1497,1000,1000,1505,1000,1000,1505,1502,1500,1505,-0.8689,0.0970,0.2273,-0.0243,-0.0194,1.0080,0.3306,0.0036,-0.3415,0.0074,0.4430,0.1806,0.0876,0.4430,0.1806,0.0876,0.3000,0.0600,0.0002,0,-0.3000,-100.0000,-0.0010,-0.3000,-100.0000,-0.0010,18.9393,52.8323,0.0200,0.0000
-27.6360,37.6696,-9.3477,-0.1657,-0.2462,0.1200,0.0000,-0.9600,0.0000,0.1688,-0.1670,-0.0054,1000,1502,1500,1497,1000,1000,1505,1000,1000,1505,1502,1500,1505,-0.8302,0.0986,0.2414,-0.0234,-0.0220,1.0070,0.3304,0.0036,-0.3412,0.0073,0.4430,0.1806,0.0876,0.4430,0.1806,0.0876,0.3000,0.0600,0.0002,0,-0.3000,-100.0000,-0.0010,-0.3000,-100.0000,-0.0010,18.9819,52.8694,0.0200,0.0000
-27.6122,37.6435,-9.3274,0.0000,-0.0821,0.1200,0.0000,-0.9600,0.0000,0.1685,-0.1670,-0.0053,1000,1502,1500,1497,1000,1000,1505,1000,1000,1505,1502,1500,1505,-0.5937,0.2142,0.2121,-0.0227,-0.0192,1.0020,0.3301,0.0038,-0.3408,0.0069,0.4430,0.1806,0.0876,0.4430,0.1806,0.0876,0.3000,0.0600,0.0002,0,-0.3000,-100.0000,-0.0010,-0.3000,-100.0000,-0.0010,19.0244,52.9066,0.0200,0.0000
-27.5869,37.6180,-9.3076,-0.0829,-0.0821,0.1200,0.0000,-0.9600,0.0000,0.1683,-0.1668,-0.0055,1000,1504,1501,1499,1000,1000,1505,1000,1000,1505,1502,1500,1505,-0.4846,0.1796,0.2446,-0.0256,-0.0193,1.0007,0.3296,0.0040,-0.3406,0.0070,0.4430,0.1806,0.0876,0.4430,0.1806,0.0876,0.3000,0.0600,0.0002,0,-0.3000,-100.0000,-0.0010,-0.3000,-100.0000,-0.0010,19.0670,52.9437,0.0200,0.0000
-27.5594,37.5924,-9.2875,0.0000,-0.1642,0.1200,0.0000,-0.9600,0.0000,0.1680,-0.1666,-0.0062,1000,1502,1500,1497,1000,1000,1505,1000,1000,1505,1502,1500,1505,-0.2822,0.1040,0.1823,-0.0235,-0.0172,1.0062,0.3284,0.0049,-0.3409,0.0076,0.4430,0.1806,0.0876,0.4430,0.1806,0.0876,0.3000,0.0600,0.0002,0,-0.3000,-100.0000,-0.0010,-0.3000,-100.0000,-0.0010,19.1096,52.9808,0.0200,0.0000
-27.5311,37.5670,-9.2673,0.0829,-0.0821,0.1200,0.0000,-0.9600,0.0000,0.1679,-0.1666,-0.0056,1000,1502,1500,1497,1000,1000,1505,1000,1000,1505,1502,1500,1505,-0.2707,0.2529,0.2787,-0.0231,-0.0194,1.0018,0.3290,0.0043,-0.3401,0.0068,0.4430,0.1806,0.0876,0.4430,0.1806,0.0876,0.3000,0.0600,0.0002,0,-0.3000,-100.0000,-0.0010,-0.3000,-100.0000,-0.0010,19.1522,53.0179,0.0200,0.0000
-27.5041,37.5420,-9.2478,0.0829,-0.1642,0.1200,0.0000,-0.9600,0.0000,0.1680,-0.1665,-0.0051,1000,1502,1500,1497,1000,1000,1505,1000,1000,1505,1502,1500,1505,-0.4879,0.2681,0.1190,-0.0226,-0.0155,1.0073,0.3294,0.0037,-0.3396,0.0065,0.4430,0.1806,0.0876,0.4430,0.1806,0.0876,0.3000,0.0600,0.0002,0,-0.3000,-100.0000,-0.0010,-0.3000,-100.0000,-0.0010,19.1948,53.0549,0.0200,0.0000
-27.4793,37.5160,-9.2297,0.0000,-0.1642,0.1200,0.0000,-0.9600,0.0000,0.1679,-0.1663,-0.0048,1000,1502,1500,1497,1000,1000,1505,1000,1000,1505,1502,1500,1505,-0.5245,0.1651,0.0469,-0.0254,-0.0204,1.0039,0.3294,0.0033,-0.3391,0.0064,0.4430,0.1806,0.0876,0.4430,0.1806,0.0876,0.3000,0.0600,0.0002,0,-0.3000,-100.0000,-0.0010,-0.3000,-100.0000,-0.0010,19.2374,53.0920,0.0200,0.0000
-27.4563,37.4890,-9.2122,0.0829,-0.0821,0.1200,0.0000,-0.9600,0.0000,0.1680,-0.1662,-0.0048,1000,1502,1500,1497,1000,1000,1505,1000,1000,1505,1502,1500,1505,-0.7447,0.1317,0.0121,-0.0218,-0.0155,1.0056,0.3293,0.0031,-0.3390,0.0066,0.4430,0.1806,0.0876,0.4430,0.1806,0.0876,0.3000,0.0600,0.0002,0,-0.3000,-100.0000,-0.0010,-0.3000,-100.0000,-0.0010,19.2801,53.1291,0.0200,0.0000
-27.4347,37.4626,-9.1938,0.0000,-0.0821,0.1200,0.0000,-0.9600,0.0000,0.1680,-0.1661,-0.0050,1000,1504,1501,1499,1000,1000,1505,1000,1000,1505,1502,1500,1505,-0.8714,0.1749,0.0722,-0.0214,-0.0165,1.0067,0.3291,0.0031,-0.3391,0.0069,0.4430,0.1806,0.0876,0.4430,0.1806,0.0876,0.3000,0.0600,0.0002,0,-0.3000,-100.0000,-0.0010,-0.3000,-100.0000,-0.0010,19.3228,53.1662,0.0200,0.0000
-27.4136,37.4365,-9.1750,0.0000,-0.1642,0.1200,0.0000,-0.9600,0.0000,0.1679,-0.1660,-0.0064,1000,1502,1500,1497,1000,1000,1505,1000,1000,1505,1502,1500,1505,-0.8726,0.2330,0.2157,-0.0233,-0.0178,1.0074,0.3275,0.0046,-0.3403,0.0082,0.4430,0.1806,0.0876,0.4430,0.1806,0.0876,0.3000,0.0600,0.0002,0,-0.3000,-100.0000,-0.0010,-0.3000,-100.0000,-0.0010,19.3654,53.2033,0.0200,0.0000
-27.3916,37.4110,-9.1553,0.0000,-0.0821,0.1200,0.0000,-0.9600,0.0000,0.1677,-0.1659,-0.0056,1000,1502,1500,1497,1000,1000,1505,1000,1000,1505,1502,1500,1505,-0.8176,0.2253,0.2613,-0.0245,-0.0205,1.0030,0.3281,0.0038,-0.3393,0.0074,0.4430,0.1806,0.0876,0.4430,0.1806,0.0876,0.3000,0.0600,0.0002,0,-0.3000,-100.0000,-0.0010,-0.3000,-100.0000,-0.0010,19.4082,53.2404,0.0200,0.0000
-27.3681,37.3853,-9.1349,0.1657,-0.0821,0.1200,0.0000,-0.9600,0.0000,0.1675,-0.1657,-0.0057,1000,1502,1500,1497,1000,1000,1505,1000,1000,1505,1502,1500,1505,-0.7147,0.0947,0.2748,-0.0258,-0.0208,1.0064,0.3276,0.0038,-0.3389,0.0075,0.4430,0.1806,0.0876,0.4430,0.1806,0.0876,0.3000,0.0600,0.0002,0,-0.3000,-100.0000,-0.0010,-0.3000,-100.0000,-0.0010,19.4509,53.2775,0.0200,0.0000
-27.3437,37.3596,-9.1138,0.0000,-0.1642,0.1200,0.0000,-0.9600,0.0000,0.1674,-0.1656,-0.0057,1000,1502,1500,1497,1000,1000,1505,1000,1000,1505,1502,1500,1505,-0.7010,0.1416,0.3039,-0.0261,-0.0197,1.0034,0.3273,0.0039,-0.3388,0.0075,0.4430,0.1806,0.0876,0.4430,0.1806,0.0876,0.3000,0.0600,0.0002,0,-0.3000,-100.0000,-0.0010,-0.3000,-100.0000,-0.0010,19.4936,53.3145,0.0200,0.0000
-27.3189,37.3336,-9.0929,0.0000,-0.0821,0.1200,0.0000,-0.9600,0.0000,0.1673,-0.1655,-0.0056,1000,1502,1500,1497,1000,1000,1505,1000,1000,1505,1502,1500,1505,-0.6357,0.0724,0.2352,-0.0246,-0.0189,1.0052,0.3271,0.0038,-0.3383,0.0074,0.4430,0.1806,0.0876,0.4430,0.1806,0.0876,0.3000,0.0600,0.0002,0,-0.3000,-100.0000,-0.0010,-0.3000,-100.0000,-0.0010,19.5363,53.3514,0.0200,0.0000
-27.2942,37.3070,-9.0717,0.0000,-0.1642,0.1200,0.0000,-0.9600,0.0000,0.1672,-0.1653,-0.0056,1000,1504,1501,1499,1000,1000,1505,1000,1000,1505,1502,1500,1505,-0.6930,0.0752,0.2371,-0.0239,-0.0187,1.0065,0.3270,0.0037,-0.3381,0.0075,0.4430,0.1806,0.0876,0.4430,0.1806,0.0876,0.3000,0.0600,0.0002,0,-0.3000,-100.0000,-0.0010,-0.3000,-100.0000,-0.0010,19.5790,53.3883,0.0200,0.0000
-27.2703,37.2807,-9.0519,0.0000,-0.0821,0.1200,0.0000,0.0000,0.0000,0.1671,-0.1652,-0.0025,1000,1502,1500,1500,1000,1000,1505,1000,1000,1505,1502,1500,1505,-0.6716,0.1028,0.1733,-0.0240,-0.0209,1.0046,0.3299,0.0006,-0.3348,0.0043,0.4430,0.1806,0.0876,0.4430,0.1806,0.0876,0.3000,0.0600,0.0002,0,-0.3000,-100.0000,-0.0010,-0.3000,-100.0000,-0.0010,19.6218,53.4253,0.0200,0.0000
-27.2463,37.2538,-9.0321,0.0000,-0.0000,0.1200,0.0000,0.0000,0.0000,0.1669,-0.1651,-0.0023,1000,1502,1500,1500,1000,1000,1505,1000,1000,1505,1502,1500,1505,-0.6419,0.0290,0.1330,-0.0222,-0.0209,1.0047,0.3297,0.0004,-0.3343,0.0042,0.4430,0.1806,0.0876,0.4430,0.1806,0.0876,0.3000,0.0600,0.0002,0,-0.3000,-100.0000,-0.0010,-0.3000,-100.0000,-0.0010,19.6645,53.4622,0.0200,0.0000
-27.2218,37.2266,-9.0124,-0.1657,-0.1642,0.1200,0.0000,0.0000,0.0000,0.1668,-0.1650,-0.0023,1000,1502,1500,1500,1000,1000,1505,1000,1000,1505,1502,1500,1505,-0.5880,0.0772,0.1055,-0.0258,-0.0217,1.0016,0.3295,0.0005,-0.3340,0.0041,0.4430,0.1806,0.0876,0.4430,0.1806,0.0876,0.3000,0.0600,0.0002,0,-0.3000,-100.0000,-0.0010,-0.3000,-100.0000,-0.0010,19.7073,53.4991,0.0200,0.0000
-27.1971,37.1995,-8.9935,0.0000,-0.0821,0.1200,0.0000,0.0000,0.0000,0.1667,-0.1649,-0.0022,1000,1502,1500,1500,1000,1000,1505,1000,1000,1505,1502,1500,1505,-0.5583,0.1177,0.0899,-0.0261,-0.0179,1.0035,0.3293,0.0005,-0.3338,0.0040,0.4430,0.1806,0.0876,0.4430,0.1806,0.0876,0.3000,0.0600,0.0002,0,-0.3000,-100.0000,-0.0010,-0.3000,-100.0000,-0.0010,19.7501,53.5360,0.0200,0.0000
-27.1729,37.1722,-8.9752,-0.0829,-0.1642,0.1200,0.0000,0.0000,0.0000,0.1666,-0.1647,-0.0020,1000,1502,1500,1500,1000,1000,1505,1000,1000,1505,1502,1500,1505,-0.6018,0.0480,0.0169,-0.0239,-0.0194,1.0056,0.3293,0.0002,-0.3333,0.0039,0.4430,0.1806,0.0876,0.4430,0.1806,0.0876,0.3000,0.0600,0.0002,0,-0.3000,-100.0000,-0.0010,-0.3000,-100.0000,-0.0010,19.7929,53.5729,0.0200,0.0000
-27.1482,37.1447,-8.9566,0.0000,-0.0821,0.1200,0.0000,0.0000,0.0000,0.1663,-0.1645,-0.0022,1000,1504,1501,1501,1000,1000,1505,1000,1000,1505,1502,1500,1505,-0.4226,-0.0031,0.0791,-0.0257,-0.0183,1.0052,0.3286,0.0005,-0.3331,0.0040,0.4430,0.1806,0.0876,0.4430,0.1806,0.0876,0.3000,0.0600,0.0002,0,-0.3000,-100.0000,-0.0010,-0.3000,-100.0000,-0.0010,19.8357,53.6098,0.0200,0.0000
-27.1216,37.1165,-8.9374,0.0000,-0.0821,0.1200,0.0000,0.0000,0.0000,0.1661,-0.1644,-0.0022,1000,1502,1500,1500,1000,1000,1505,1000,1000,1505,1502,1500,1505,-0.3517,-0.0392,0.0937,-0.0253,-0.0211,1.0074,0.3283,0.0005,-0.3327,0.0040,0.4430,0.1806,0.0876,0.4430,0.1806,0.0876,0.3000,0.0600,0.0002,0,-0.3000,-100.0000,-0.0010,-0.3000,-100.0000,-0.0010,19.8785,53.6468,0.0200,0.0000
-27.0954,37.0881,-8.9182,0.0829,-0.0821,0.1200,0.0000,0.0000,0.0000,0.1661,-0.1643,-0.0024,1000,1502,1500,1500,1000,1000,1505,1000,1000,1505,1502,1500,1505,-0.4869,-0.0071,0.1511,-0.0244,-0.0199,1.0066,0.3280,0.0006,-0.3329,0.0043,0.4430,0.1806,0.0876,0.4430,0.1806,0.0876,0.3000,0.0600,0.0002,0,-0.3000,-100.0000,-0.0010,-0.3000,-100.0000,-0.0010,19.9214,53.6837,0.0200,0.0000
-27.0688,37.0602,-8.8982,0.0000,-0.0821,0.1200,0.0000,0.0000,0.0000,0.1660,-0.1642,-0.0022,1000,1502,1500,1500,1000,1000,1505,1000,1000,1505,1502,1500,1505,-0.4268,0.0195,0.1108,-0.0240,-0.0179,1.0042,0.3279,0.0005,-0.3324,0.0040,0.4430,0.1806,0.0876,0.4430,0.1806,0.0876,0.3000,0.0600,0.0002,0,-0.3000,-100.0000,-0.0010,-0.3000,-100.0000,-0.0010,19.9643,53.7206,0.0200,0.0000
-27.0425,37.0322,-8.8782,-0.0829,-0.1642,0.1200,0.0000,0.0000,0.0000,0.1659,-0.1640,-0.0026,1000,1502,1500,1500,1000,1000,1505,1000,1000,1505,1502,1500,1505,-0.4789,-0.0573,0.1957,-0.0255,-0.0210,1.0026,0.3273,0.0007,-0.3325,0.0045,0.4430,0.1806,0.0876,0.4430,0.1806,0.0876,0.3000,0.0600,0.0002,0,-0.3000,-100.0000,-0.0010,-0.3000,-100.0000,-0.0010,20.0072,53.7575,0.0200,0.0000
-27.0168,37.0038,-8.8576,0.0000,-0.0821,0.1200,0.0000,0.0000,0.0000,0.1659,-0.1639,-0.0024,1000,1502,1500,1500,1000,1000,1505,1000,1000,1505,1502,1500,1505,-0.6414,-0.0716,0.1468,-0.0250,-0.0177,1.0028,0.3274,0.0004,-0.3322,0.0045,0.4430,0.1806,0.0876,0.4430,0.1806,0.0876,0.3000,0.0600,0.0002,0,-0.3000,-100.0000,-0.0010,-0.3000,-100.0000,-0.0010,20.0502,53.7944,0.0200,0.0000
-26.9927,36.9755,-8.8378,0.0000,-0.0821,0.1200,0.0000,0.0000,0.0000,0.1658,-0.1637,-0.0021,1000,1504,1501,1501,1000,1000,1505,1000,1000,1505,1502,1500,1505,-0.6492,-0.0979,0.0576,-0.0241,-0.0206,1.0016,0.3274,0.0000,-0.3317,0.0043,0.4430,0.1806,0.0876,0.4430,0.1806,0.0876,0.3000,0.0600,0.0002,0,-0.3000,-100.0000,-0.0010,-0.3000,-100.0000,-0.0010,20.0931,53.8313,0.0200,0.0000
-26.9692,36.9466,-8.8190,0.0000,-0.0821,0.1200,0.0000,0.0000,0.0000,0.1657,-0.1637,-0.0023,1000,1502,1500,1500,1000,1000,1505,1000,1000,1505,1502,1500,1505,-0.6545,-0.0261,0.0892,-0.0214,-0.0187,1.0054,0.3271,0.0002,-0.3316,0.0043,0.4430,0.1806,0.0876,0.4430,0.1806,0.0876,0.3000,0.0600,0.0002,0,-0.3000,-100.0000,-0.0010,-0.3000,-100.0000,-0.0010,20.1361,53.8682,0.0200,0.0000
-26.9445,36.9181,-8.7987,0.0000,-0.0821,0.1200,0.0000,0.0000,0.0000,0.1656,-0.1635,-0.0024,1000,1502,1500,1500,1000,1000,1505,1000,1000,1505,1502,1500,1505,-0.6400,-0.0447,0.1610,-0.0221,-0.0201,1.0062,0.3267,0.0003,-0.3315,0.0045,0.4430,0.1806,0.0876,0.4430,0.1806,0.0876,0.3000,0.0600,0.0002,0,-0.3000,-100.0000,-0.0010,-0.3000,-100.0000,-0.0010,20.1790,53.9051,0.0200,0.0000
-26.9194,36.8895,-8.7783,0.0829,-0.0821,0.1200,0.0000,0.0000,0.0000,0.1654,-0.1633,-0.0025,1000,1502,1500,1500,1000,1000,1505,1000,1000,1505,1502,1500,1505,-0.5748,-0.1314,0.1939,-0.0230,-0.0184,1.0104,0.3262,0.0004,-0.3313,0.0047,0.4430,0.1806,0.0876,0.4430,0.1806,0.0876,0.3000,0.0600,0.0002,0,-0.3000,-100.0000,-0.0010,-0.3000,-100.0000,-0.0010,20.2220,53.9420,0.0200,0.0000
-26.8937,36.8603,-8.7580,0.0829,-0.0821,0.1200,0.0000,0.0000,0.0000,0.1652,-0.1631,-0.0023,1000,1502,1500,1500,1000,1000,1505,1000,1000,1505,1502,1500,1505,-0.4268,-0.2052,0.1274,-0.0248,-0.0240,1.0049,0.3260,0.0003,-0.3307,0.0044,0.4430,0.1806,0.0876,0.4430,0.1806,0.0876,0.3000,0.0600,0.0002,0,-0.3000,-100.0000,-0.0010,-0.3000,-100.0000,-0.0010,20.2650,53.9788,0.0200,0.0000
-26.8667,36.8304,-8.7377,0.0000,-0.1642,0.1200,0.0000,0.0000,0.0000,0.1650,-0.1630,-0.0023,1000,1502,1500,1500,1000,1000,1505,1000,1000,1505,1502,1500,1505,-0.3952,-0.1608,0.1167,-0.0233,-0.0226,1.0032,0.3257,0.0003,-0.3304,0.0044,0.4430,0.1806,0.0876,0.4430,0.1806,0.0876,0.3000,0.0600,0.0002,0,-0.3000,-100.0000,-0.0010,-0.3000,-100.0000,-0.0010,20.3081,54.0157,0.0200,0.0000
-26.8394,36.8004,-8.7174,0.0000,-0.0821,0.1200,0.0000,0.0000,0.0000,0.1649,-0.1629,-0.0024,1000,1504,1501,1501,1000,1000,1505,1000,1000,1505,1502,1500,1505,-0.3245,-0.1272,0.1227,-0.0223,-0.0244,1.0021,0.3254,0.0004,-0.3301,0.0043,0.4430,0.1806,0.0876,0.4430,0.1806,0.0876,0.3000,0.0600,0.0002,0,-0.3000,-100.0000,-0.0010,-0.3000,-100.0000,-0.0010,20.3511,54.0525,0.0200,0.0000
-26.8120,36.7707,-8.6979,0.0000,-0.0821,0.1200,0.0000,0.0000,0.0000,0.1647,-0.1628,-0.0021,1000,1502,1500,1500,1000,1000,1505,1000,1000,1505,1502,1500,1505,-0.3083,-0.0704,0.0594,-0.0257,-0.0210,1.0021,0.3254,0.0002,-0.3297,0.0040,0.4430,0.1806,0.0876,0.4430,0.1806,0.0876,0.3000,0.0600,0.0002,0,-0.3000,-100.0000,-0.0010,-0.3000,-100.0000,-0.0010,20.3941,54.0893,0.0200,0.0000
-26.7846,36.7419,-8.6793,0.0829,-0.0821,0.1200,0.0000,0.0000,0.0000,0.1646,-0.1627,-0.0022,1000,1502,1500,1500,1000,1000,1505,1000,1000,1505,1502,1500,1505,-0.2471,-0.0236,0.0605,-0.0246,-0.0208,1.0079,0.3251,0.0004,-0.3295,0.0040,0.4430,0.1806,0.0876,0.4430,0.1806,0.0876,0.3000,0.0600,0.0002,0,-0.3000,-100.0000,-0.0010,-0.3000,-100.0000,-0.0010,20.4372,54.1261,0.0200,0.0000
-26.7564,36.7126,-8.6612,0.0829,-0.1642,0.1200,0.0000,0.0000,0.0000,0.1643,-0.1626,-0.0018,1000,1502,1500,1500,1000,1000,1505,1000,1000,1505,1502,1500,1505,-0.1379,-0.0920,-0.0371,-0.0256,-0.0198,1.0039,0.3251,0.0000,-0.3287,0.0036,0.4430,0.1806,0.0876,0.4430,0.1806,0.0876,0.3000,0.0600,0.0002,0,-0.3000,-100.0000,-0.0010,-0.3000,-100.0000,-0.0010,20.4802,54.1629,0.0200,0.0000
-26.7274,36.6836,-8.6429,-0.0829,-0.0821,0.1200,0.0000,0.0000,0.0000,0.1642,-0.1625,-0.0018,1000,1502,1500,1500,1000,1000,1505,1000,1000,1505,1502,1500,1505,-0.1030,-0.0101,-0.0278,-0.0242,-0.0201,1.0022,0.3248,0.0002,-0.3285,0.0035,0.4430,0.1806,0.0876,0.4430,0.1806,0.0876,0.3000,0.0600,0.0002,0,-0.3000,-100.0000,-0.0010,-0.3000,-100.0000,-0.0010,20.5233,54.1998,0.0200,0.0000
-26.6981,36.6540,-8.6240,0.0000,-0.0821,0.1200,0.0000,0.0000,0.0000,0.1641,-0.1623,-0.0022,1000,1502,1500,1500,1000,1000,1505,1000,1000,1505,1502,1500,1505,-0.1268,-0.1103,0.0606,-0.0269,-0.0210,1.0038,0.3242,0.0004,-0.3285,0.0040,0.4430,0.1806,0.0876,0.4430,0.1806,0.0876,0.3000,0.0600,0.0002,0,-0.3000,-100.0000,-0.0010,-0.3000,-100.0000,-0.0010,20.5665,54.2366,0.0200,0.0000
-26.6680,36.6246,-8.6049,-0.0829,-0.2462,0.1200,0.0000,0.0000,0.0000,0.1638,-0.1621,-0.0023,1000,1504,1501,1501,1000,1000,1505,1000,1000,1505,1502,1500,1505,0.0148,-0.1152,0.1049,-0.0261,-0.0200,1.0038,0.3237,0.0006,-0.3282,0.0039,0.4430,0.1806,0.0876,0.4430,0.1806,0.0876,0.3000,0.0600,0.0002,0,-0.3000,-100.0000,-0.0010,-0.3000,-100.0000,-0.0010,20.6096,54.2734,0.0200,0.0000
-26.6378,36.5951,-8.5859,0.0000,-0.0821,0.1200,0.0000,0.0000,0.0000,0.1637,-0.1620,-0.0022,1000,1502,1500,1500,1000,1000,1505,1000,1000,1505,1502,1500,1505,-0.0084,-0.1107,0.0671,-0.0221,-0.0218,1.0041,0.3235,0.0005,-0.3279,0.0039,0.4430,0.1806,0.0876,0.4430,0.1806,0.0876,0.3000,0.0600,0.0002,0,-0.3000,-100.0000,-0.0010,-0.3000,-100.0000,-0.0010,20.6527,54.3102,0.0200,0.0000
-26.6073,36.5660,-8.5665,-0.1657,-0.1642,0.1200,0.0000,0.0000,0.0000,0.1636,-0.1619,-0.0026,1000,1502,1500,1500,1000,1000,1505,1000,1000,1505,1502,1500,1505,-0.0061,-0.0592,0.2034,-0.0251,-0.0215,1.0071,0.3229,0.0009,-0.3280,0.0042,0.4430,0.1806,0.0876,0.4430,0.1806,0.0876,0.3000,0.0600,0.0002,0,-0.3000,-100.0000,-0.0010,-0.3000,-100.0000,-0.0010,20.6959,54.3470,0.0200,0.0000
-26.5770,36.5375,-8.5471,0.0000,-0.1642,0.1200,0.0000,0.0000,0.0000,0.1635,-0.1619,-0.0024,1000,1502,1500,1500,1000,1000,1505,1000,1000,1505,1502,1500,1505,-0.0560,0.0384,0.1577,-0.0243,-0.0212,1.0002,0.3229,0.0008,-0.3278,0.0040,0.4430,0.1806,0.0876,0.4430,0.1806,0.0876,0.3000,0.0600,0.0002,0,-0.3000,-100.0000,-0.0010,-0.3000,-100.0000,-0.0010,20.7390,54.3837,0.0200,0.0000
-26.5464,36.5097,-8.5277,0.0829,-0.1642,0.1200,0.0000,0.0000,0.0000,0.1633,-0.1617,-0.0024,1000,1502,1500,1500,1000,1000,1505,1000,1000,1505,1502,1500,1505,0.0035,-0.0038,0.1605,-0.0267,-0.0205,1.0073,0.3226,0.0008,-0.3274,0.0039,0.4430,0.1806,0.0876,0.4430,0.1806,0.0876,0.3000,0.0600,0.0002,0,-0.3000,-100.0000,-0.0010,-0.3000,-100.0000,-0.0010,20.7822,54.4205,0.0200,0.0000
-26.5156,36.4812,-8.5089,0.0000,-0.0821,0.1200,0.0000,0.0000,0.0000,0.1631,-0.1616,-0.0021,1000,1502,1500,1500,1000,1000,1505,1000,1000,1505,1502,1500,1505,0.0402,-0.0253,0.0563,-0.0284,-0.0204,1.0022,0.3226,0.0006,-0.3268,0.0036,0.4430,0.1806,0.0876,0.4430,0.1806,0.0876,0.3000,0.0600,0.0002,0,-0.3000,-100.0000,-0.0010,-0.3000,-100.0000,-0.0010,20.8254,54.4572,0.0200,0.0000
-26.4859,36.4520,-8.4909,-0.0829,-0.2462,0.1200,0.0000,0.0000,0.0000,0.1631,-0.1615,-0.0019,1000,1504,1501,1501,1000,1000,1505,1000,1000,1505,1502,1500,1505,-0.0716,-0.0270,-0.0033,-0.0278,-0.0208,1.0037,0.3227,0.0003,-0.3264,0.0035,0.4430,0.1806,0.0876,0.4430,0.1806,0.0876,0.3000,0.0600,0.0002,0,-0.3000,-100.0000,-0.0010,-0.3000,-100.0000,-0.0010,20.8686,54.4939,0.0200,0.0000
-26.4567,36.4222,-8.4724,0.0000,-0.0821,0.1200,0.0000,0.0000,0.0000,0.1630,-0.1612,-0.0021,1000,1502,1500,1500,1000,1000,1505,1000,1000,1505,1502,1500,1505,-0.1434,-0.1528,0.0397,-0.0251,-0.0201,1.0046,0.3221,0.0003,-0.3263,0.0039,0.4430,0.1806,0.0876,0.4430,0.1806,0.0876,0.3000,0.0600,0.0002,0,-0.3000,-100.0000,-0.0010,-0.3000,-100.0000,-0.0010,20.9118,54.5306,0.0200,0.0000
-26.4281,36.3926,-8.4531,0.0829,-0.0821,0.1200,0.0000,0.0000,0.0000,0.1630,-0.1611,-0.0024,1000,1502,1500,1500,1000,1000,1505,1000,1000,1505,1502,1500,1505,-0.2631,-0.0855,0.1399,-0.0217,-0.0209,1.0047,0.3218,0.0005,-0.3265,0.0042,0.4430,0.1806,0.0876,0.4430,0.1806,0.0876,0.3000,0.0600,0.0002,0,-0.3000,-100.0000,-0.0010,-0.3000,-100.0000,-0.0010,20.9551,54.5673,0.0200,0.0000
-26.4012,36.3632,-8.4342,0.0000,-0.0821,0.1200,0.0000,0.0000,0.0000,0.1630,-0.1611,-0.0022,1000,1502,1500,1500,1000,1000,1505,1000,1000,1505,1502,1500,1505,-0.4091,-0.0441,0.0589,-0.0234,-0.0198,1.0065,0.3219,0.0002,-0.3262,0.0041,0.4430,0.1806,0.0876,0.4430,0.1806,0.0876,0.3000,0.0600,0.0002,0,-0.3000,-100.0000,-0.0010,-0.3000,-100.0000,-0.0010,20.9983,54.6040,0.0200,0.0000
-26.3752,36.3340,-8.4153,0.0000,-0.1642,0.1200,0.0000,0.0000,0.0000,0.1629,-0.1609,-0.0024,1000,1502,1500,1500,1000,1000,1505,1000,1000,1505,1502,1500,1505,-0.4108,-0.1213,0.1257,-0.0234,-0.0209,1.0052,0.3213,0.0004,-0.3262,0.0044,0.4430,0.1806,0.0876,0.4430,0.1806,0.0876,0.3000,0.0600,0.0002,0,-0.3000,-100.0000,-0.0010,-0.3000,-100.0000,-0.0010,21.0416,54.6407,0.0200,0.0000
-26.3497,36.3052,-8.3957,0.0829,-0.0000,0.1200,0.0000,0.0000,0.0000,0.1629,-0.1608,-0.0023,1000,1502,1500,1500,1000,1000,1505,1000,1000,1505,1502,1500,1505,-0.5864,-0.0695,0.0993,-0.0266,-0.0180,1.0024,0.3214,0.0001,-0.3260,0.0044,0.4430,0.1806,0.0876,0.4430,0.1806,0.0876,0.3000,0.0600,0.0002,0,-0.3000,-100.0000,-0.0010,-0.3000,-100.0000,-0.0010,21.0849,54.6774,0.0200,0.0000
-26.3248,36.2760,-8.3767,0.0000,-0.0821,0.1200,0.0000,0.0000,0.0000,0.1628,-0.1606,-0.0024,1000,1504,1501,1501,1000,1000,1505,1000,1000,1505,1502,1500,1505,-0.5373,-0.0790,0.1377,-0.0236,-0.0216,1.0029,0.3210,0.0003,-0.3258,0.0045,0.4430,0.1806,0.0876,0.4430,0.1806,0.0876,0.3000,0.0600,0.0002,0,-0.3000,-100.0000,-0.0010,-0.3000,-100.0000,-0.0010,21.1282,54.7141,0.0200,0.0000
-26.2997,36.2463,-8.3569,0.0829,-0.0821,0.1200,0.0000,0.0000,0.0000,0.1627,-0.1604,-0.0024,1000,1502,1500,1500,1000,1000,1505,1000,1000,1505,1502,1500,1505,-0.5744,-0.1600,0.1259,-0.0247,-0.0212,1.0062,0.3208,0.0001,-0.3255,0.0046,0.4430,0.1806,0.0876,0.4430,0.1806,0.0876,0.3000,0.0600,0.0002,0,-0.3000,-100.0000,-0.0010,-0.3000,-100.0000,-0.0010,21.1716,54.7507,0.0200,0.0000
-26.2744,36.2161,-8.3365,0.0829,-0.0821,0.1200,0.0000,0.0000,0.0000,0.1626,-0.1603,-0.0026,1000,1502,1500,1500,1000,1000,1505,1000,1000,1505,1502,1500,1505,-0.6381,-0.1816,0.1863,-0.0239,-0.0209,1.0017,0.3203,0.0002,-0.3255,0.0049,0.4430,0.1806,0.0876,0.4430,0.1806,0.0876,0.3000,0.0600,0.0002,0,-0.3000,-100.0000,-0.0010,-0.3000,-100.0000,-0.0010,21.2149,54.7874,0.0200,0.0000
-26.2496,36.1860,-8.3160,0.0000,-0.0821,0.1200,0.0000,0.0000,0.0000,0.1625,-0.1602,-0.0023,1000,1502,1500,1500,1000,1000,1505,1000,1000,1505,1502,1500,1505,-0.5923,-0.1765,0.1306,-0.0224,-0.0187,1.0043,0.3203,-0.0000,-0.3250,0.0047,0.4430,0.1806,0.0876,0.4430,0.1806,0.0876,0.3000,0.0600,0.0002,0,-0.3000,-100.0000,-0.0010,-0.3000,-100.0000,-0.0010,21.2583,54.8241,0.0200,0.0000
-26.2245,36.1557,-8.2958,0.0829,-0.0821,0.1200,0.0000,0.0000,0.0000,0.1624,-0.1600,-0.0020,1000,1502,1500,1500,1000,1000,1505,1000,1000,1505,1502,1500,1505,-0.5935,-0.1871,0.0415,-0.0244,-0.0227,1.0053,0.3203,-0.0003,-0.3244,0.0044,0.4430,0.1806,0.0876,0.4430,0.1806,0.0876,0.3000,0.0600,0.0002,0,-0.3000,-100.0000,-0.0010,-0.3000,-100.0000,-0.0010,21.3017,54.8608,0.0200,0.0000
-26.1998,36.1254,-8.2773,0.0000,-0.1642,0.1200,0.0000,0.0000,0.0000,0.1622,-0.1600,-0.0020,1000,1502,1500,1500,1000,1000,1505,1000,1000,1505,1502,1500,1505,-0.5418,-0.0954,0.0086,-0.0232,-0.0240,1.0045,0.3202,-0.0002,-0.3242,0.0043,0.4430,0.1806,0.0876,0.4430,0.1806,0.0876,0.3000,0.0600,0.0002,0,-0.3000,-100.0000,-0.0010,-0.3000,-100.0000,-0.0010,21.3451,54.8975,0.0200,0.0000
-26.1745,36.0964,-8.2592,-0.0829,-0.0821,0.1200,0.0000,0.0000,0.0000,0.1620,-0.1599,-0.0022,1000,1504,1501,1501,1000,1000,1505,1000,1000,1505,1502,1500,1505,-0.4301,-0.0326,0.0642,-0.0250,-0.0247,1.0024,0.3197,0.0000,-0.3241,0.0043,0.4430,0.1806,0.0876,0.4430,0.1806,0.0876,0.3000,0.0600,0.0002,0,-0.3000,-100.0000,-0.0010,-0.3000,-100.0000,-0.0010,21.3885,54.9341,0.0200,0.0000
-26.1482,36.0671,-8.2412,-0.0829,-0.1642,0.1200,0.0000,0.0000,0.0000,0.1617,-0.1597,-0.0021,1000,1502,1500,1500,1000,1000,1505,1000,1000,1505,1502,1500,1505,-0.2591,-0.0432,0.0533,-0.0266,-0.0235,1.0043,0.3194,0.0001,-0.3236,0.0041,0.4430,0.1806,0.0876,0.4430,0.1806,0.0876,0.3000,0.0600,0.0002,0,-0.3000,-100.0000,-0.0010,-0.3000,-100.0000,-0.0010,21.4320,54.9707,0.0200,0.0000
-26.1194,36.0381,-8.2226,0.0000,-0.0000,0.1200,0.0000,0.0000,0.0000,0.1614,-0.1597,-0.0026,1000,1502,1500,1500,1000,1000,1505,1000,1000,1505,1502,1500,1505,0.0152,0.0331,0.1804,-0.0253,-0.0255,1.0039,0.3185,0.0009,-0.3237,0.0043,0.4430,0.1806,0.0876,0.4430,0.1806,0.0876,0.3000,0.0600,0.0002,0,-0.3000,-100.0000,-0.0010,-0.3000,-100.0000,-0.0010,21.4753,55.0073,0.0200,0.0000
-26.0884,36.0088,-8.2047,-0.0829,-0.1642,0.1200,0.0000,0.0000,0.0000,0.1610,-0.1595,-0.0018,1000,1502,1500,1500,1000,1000,1505,1000,1000,1505,1502,1500,1505,0.2731,-0.0683,-0.0592,-0.0226,-0.0239,1.0056,0.3187,0.0002,-0.3223,0.0033,0.4430,0.1806,0.0876,0.4430,0.1806,0.0876,0.3000,0.0600,0.0002,0,-0.3000,-100.0000,-0.0010,-0.3000,-100.0000,-0.0010,21.5187,55.0438,0.0200,0.0000
-26.0556,35.9794,-8.1868,0.0000,-0.1642,0.1200,0.0000,0.0000,0.0000,0.1608,-0.1594,-0.0020,1000,1502,1500,1500,1000,1000,1505,1000,1000,1505,1502,1500,1505,0.3678,0.0091,0.0342,-0.0243,-0.0234,1.0079,0.3182,0.0006,-0.3222,0.0034,0.4430,0.1806,0.0876,0.4430,0.1806,0.0876,0.3000,0.0600,0.0002,0,-0.3000,-100.0000,-0.0010,-0.3000,-100.0000,-0.0010,21.5622,55.0804,0.0200,0.0000
-26.0223,35.9506,-8.1696,0.0000,-0.0821,0.1200,0.0000,0.0000,0.0000,0.1606,-0.1593,-0.0021,1000,1502,1500,1500,1000,1000,1505,1000,1000,1505,1502,1500,1505,0.3629,0.0260,0.0289,-0.0269,-0.0234,1.0074,0.3178,0.0007,-0.3220,0.0034,0.4430,0.1806,0.0876,0.4430,0.1806,0.0876,0.3000,0.0600,0.0002,0,-0.3000,-100.0000,-0.0010,-0.3000,-100.0000,-0.0010,21.6056,55.1169,0.0200,0.0000
-25.9887,35.9224,-8.1518,0.0000,-0.0821,0.1200,0.0000,0.0000,0.0000,0.1605,-0.1592,-0.0022,1000,1504,1501,1501,1000,1000,1505,1000,1000,1505,1502,1500,1505,0.3588,0.1170,0.0704,-0.0261,-0.0238,1.0055,0.3176,0.0009,-0.3219,0.0034,0.4430,0.1806,0.0876,0.4430,0.1806,0.0876,0.3000,0.0600,0.0002,0,-0.3000,-100.0000,-0.0010,-0.3000,-100.0000,-0.0010,21.6492,55.1535,0.0200,0.0000
-25.9566,35.8944,-8.1348,0.0000,-0.1642,0.1200,0.0000,0.0000,0.0000,0.1604,-0.1590,-0.0022,1000,1502,1500,1500,1000,1000,1505,1000,1000,1505,1502,1500,1505,0.2646,0.0145,0.0809,-0.0254,-0.0194,1.0039,0.3172,0.0008,-0.3217,0.0037,0.4430,0.1806,0.0876,0.4430,0.1806,0.0876,0.3000,0.0600,0.0002,0,-0.3000,-100.0000,-0.0010,-0.3000,-100.0000,-0.0010,21.6927,55.1901,0.0200,0.0000
-25.9252,35.8659,-8.1172,0.0829,-0.0821,0.1200,0.0000,0.0000,0.0000,0.1605,-0.1589,-0.0021,1000,1502,1500,1500,1000,1000,1505,1000,1000,1505,1502,1500,1505,0.0782,0.0568,0.0324,-0.0251,-0.0183,1.0017,0.3173,0.0006,-0.3215,0.0036,0.4430,0.1806,0.0876,0.4430,0.1806,0.0876,0.3000,0.0600,0.0002,0,-0.3000,-100.0000,-0.0010,-0.3000,-100.0000,-0.0010,21.7362,55.2267,0.0200,0.0000
-25.8951,35.8369,-8.0991,0.0000,-0.0000,0.1200,0.0000,0.0000,0.0000,0.1604,-0.1588,-0.0020,1000,1502,1500,1500,1000,1000,1505,1000,1000,1505,1502,1500,1505,-0.0287,0.0170,0.0325,-0.0262,-0.0208,1.0057,0.3172,0.0004,-0.3212,0.0037,0.4430,0.1806,0.0876,0.4430,0.1806,0.0876,0.3000,0.0600,0.0002,0,-0.3000,-100.0000,-0.0010,-0.3000,-100.0000,-0.0010,21.7798,55.2633,0.0200,0.0000
-25.8657,35.8074,-8.0806,0.0000,-0.0821,0.1200,0.0000,0.0000,0.0000,0.1604,-0.1585,-0.0023,1000,1502,1500,1500,1000,1000,1505,1000,1000,1505,1502,1500,1505,-0.1522,-0.0947,0.1098,-0.0258,-0.0205,1.0045,0.3166,0.0005,-0.3213,0.0042,0.4430,0.1806,0.0876,0.4430,0.1806,0.0876,0.3000,0.0600,0.0002,0,-0.3000,-100.0000,-0.0010,-0.3000,-100.0000,-0.0010,21.8234,55.2999,0.0200,0.0000
-25.8370,35.7784,-8.0614,0.0829,-0.0821,0.1200,0.0000,0.0000,0.0000,0.1603,-0.1585,-0.0025,1000,1502,1500,1500,1000,1000,1505,1000,1000,1505,1502,1500,1505,-0.2062,0.0379,0.1682,-0.0240,-0.0226,1.0037,0.3164,0.0007,-0.3214,0.0043,0.4430,0.1806,0.0876,0.4430,0.1806,0.0876,0.3000,0.0600,0.0002,0,-0.3000,-100.0000,-0.0010,-0.3000,-100.0000,-0.0010,21.8670,55.3365,0.0200,0.0000
-25.8087,35.7496,-8.0422,0.0000,-0.0821,0.1200,0.0000,0.0000,0.0000,0.1601,-0.1583,-0.0022,1005,1504,1501,1501,1000,1000,1505,1000,1000,1505,1502,1500,1505,-0.1455,-0.0968,0.0784,-0.0252,-0.0239,1.0039,0.3163,0.0003,-0.3206,0.0040,0.4430,0.1806,0.0876,0.4430,0.1806,0.0876,0.3000,0.0600,0.0002,0,-0.3000,-100.0000,-0.0010,-0.3000,-100.0000,-0.0010,21.9106,55.3730,0.0200,0.0000
-25.7801,35.7208,-8.0235,0.0000,-0.0821,0.1200,0.0000,0.0000,0.0060,0.1600,-0.1583,-0.0023,1006,1502,1500,1500,1000,1000,1505,1000,1000,1505,1502,1500,1505,-0.1607,0.0701,0.1114,-0.0244,-0.0212,1.0026,0.3220,0.0066,-0.3146,0.0100,0.4430,0.1806,0.0876,0.4430,0.1806,0.0876,0.3000,0.0600,0.0002,0,-0.3000,-100.0000,-0.0010,-0.3000,-100.0000,-0.0010,21.9542,55.4096,0.0200,0.0000
-25.7512,35.6926,-8.0056,0.0829,-0.1642,0.1200,0.0000,0.0000,0.0310,0.1598,-0.1582,-0.0024,1031,1502,1500,1500,1000,1000,1505,1000,1000,1505,1502,1500,1505,0.0108,0.0812,0.1216,-0.0281,-0.0228,1.0047,0.3466,0.0318,-0.2893,0.0349,0.4430,0.1806,0.0876,0.4430,0.1806,0.0876,0.3000,0.0600,0.0002,0,-0.3000,-100.0000,-0.0010,-0.3000,-100.0000,-0.0010,21.9979,55.4461,0.0200,0.0000
-25.7204,35.6640,-7.9872,0.0829,-0.0821,0.1200,0.0000,0.0000,0.0400,0.1595,-0.1581,-0.0023,1040,1502,1500,1500,1000,1000,1505,1000,1000,1505,1502,1500,1505,0.1331,0.0713,0.1212,-0.0257,-0.0211,1.0037,0.3552,0.0409,-0.2799,0.0438,0.4430,0.1806,0.0876,0.4430,0.1806,0.0876,0.3000,0.0600,0.0002,0,-0.3000,-100.0000,-0.0010,-0.3000,-100.0000,-0.0010,22.0415,55.4827,0.0200,0.0000
-25.6889,35.6352,-7.9692,0.0000,-0.0821,0.1200,0.0000,0.0000,0.0410,0.1593,-0.1578,-0.0022,1041,1502,1500,1500,1000,1000,1505,1000,1000,1505,1502,1500,1505,0.1691,-0.0227,0.0633,-0.0249,-0.0250,1.0052,0.3560,0.0417,-0.2784,0.0447,0.4430,0.1806,0.0876,0.4430,0.1806,0.0876,0.3000,0.0600,0.0002,0,-0.3000,-100.0000,-0.0010,-0.3000,-100.0000,-0.0010,22.0852,55.5192,0.0200,0.0000
-25.6568,35.6059,-7.9509,0.0000,-0.0821,0.1200,0.0000,0.0000,0.0410,0.1591,-0.1577,-0.0022,1041,1502,1500,1500,1000,1000,1505,1000,1000,1505,1502,1500,1505,0.2661,-0.0416,0.0801,-0.0252,-0.0245,1.0027,0.3556,0.0418,-0.2780,0.0446,0.4430,0.1806,0.0876,0.4430,0.1806,0.0876,0.3000,0.0600,0.0002,0,-0.3000,-100.0000,-0.0010,-0.3000,-100.0000,-0.0010,22.1289,55.5556,0.0200,0.0000
-25.6232,35.5762,-7.9329,0.0000,-0.1642,0.1200,0.0000,0.0000,0.0410,0.1588,-0.1575,-0.0022,1043,1504,1501,1501,1000,1000,1505,1000,1000,1505,1502,1500,1505,0.4166,-0.0682,0.0789,-0.0242,-0.0196,1.0032,0.3551,0.0420,-0.2776,0.0445,0.4430,0.1806,0.0876,0.4430,0.1806,0.0876,0.3000,0.0600,0.0002,0,-0.3000,-100.0000,-0.0010,-0.3000,-100.0000,-0.0010,22.1726,55.5921,0.0200,0.0000
-25.5888,35.5462,-7.9149,0.0000,-0.0821,0.1200,0.0000,0.0000,0.0410,0.1586,-0.1574,-0.0020,1041,1502,1500,1500,1000,1000,1505,1000,1000,1505,1502,1500,1505,0.4704,-0.0499,0.0247,-0.0240,-0.0230,1.0041,0.3550,0.0418,-0.2771,0.0442,0.4430,0.1806,0.0876,0.4430,0.1806,0.0876,0.3000,0.0600,0.0002,0,-0.3000,-100.0000,-0.0010,-0.3000,-100.0000,-0.0010,22.2163,55.6286,0.0200,0.0000
-25.5545,35.5170,-7.8977,0.0000,-0.1642,0.1200,0.0000,0.0000,0.0410,0.1584,-0.1574,-0.0019,1041,1502,1500,1500,1000,1000,1505,1000,1000,1505,1502,1500,1505,0.5257,0.0271,-0.0038,-0.0243,-0.0225,1.0066,0.3549,0.0419,-0.2767,0.0440,0.4430,0.1806,0.0876,0.4430,0.1806,0.0876,0.3000,0.0600,0.0002,0,-0.3000,-100.0000,-0.0010,-0.3000,-100.0000,-0.0010,22.2600,55.6651,0.0200,0.0000
-25.5195,35.4876,-7.8808,0.0000,-0.0821,0.1200,0.0000,0.0000,0.0550,0.1582,-0.1572,-0.0021,1055,1502,1500,1500,1000,1000,1505,1000,1000,1505,1502,1500,1505,0.5966,0.0105,0.0237,-0.0237,-0.0235,1.0034,0.3683,0.0561,-0.2625,0.0581,0.4430,0.1806,0.0876,0.4430,0.1806,0.0876,0.3000,0.0600,0.0002,0,-0.3000,-100.0000,-0.0010,-0.3000,-100.0000,-0.0010,22.3038,55.7015,0.0200,0.0000
-25.4832,35.4577,-7.8630,-0.0829,-0.2462,0.1200,0.0000,0.0000,0.0590,0.1579,-0.1570,-0.0022,1059,1502,1500,1500,1000,1000,1505,1000,1000,1505,1502,1500,1505,0.7124,-0.0578,0.0630,-0.0239,-0.0213,1.0044,0.3718,0.0603,-0.2582,0.0621,0.4430,0.1806,0.0876,0.4430,0.1806,0.0876,0.3000,0.0600,0.0002,0,-0.3000,-100.0000,-0.0010,-0.3000,-100.0000,-0.0010,22.3476,55.7380,0.0200,0.0000
-25.4460,35.4277,-7.8449,0.0000,-0.0821,0.1200,0.0000,0.0000,0.0890,0.1578,-0.1574,-0.0022,1089,1502,1500,1500,1000,1000,1505,1000,1000,1505,1502,1500,1505,0.6600,-0.0764,0.0720,-0.0261,-0.0178,1.0011,0.4020,0.0907,-0.2284,0.0916,0.4430,0.1806,0.0876,0.4430,0.1806,0.0876,0.3000,0.0600,0.0002,0,-0.3000,-100.0000,-0.0010,-0.3000,-100.0000,-0.0010,22.3914,55.7745,0.0200,0.0000
-25.4096,35.3972,-7.8264,-0.0829,-0.2462,0.1200,0.0000,0.0000,0.0960,0.1578,-0.1578,-0.0024,1100,1504,1501,1501,1000,1000,1505,1000,1000,1505,1502,1500,1505,0.5599,-0.1975,0.1452,-0.0231,-0.0183,1.0016,0.4091,0.0985,-0.2220,0.0984,0.4430,0.1806,0.0876,0.4430,0.1806,0.0876,0.3000,0.0600,0.0002,0,-0.3000,-100.0000,-0.0010,-0.3000,-100.0000,-0.0010,22.4352,55.8109,0.0200,0.0000
-25.3729,35.3661,-7.8067,0.0000,-0.2462,0.1200,0.0000,0.0000,0.1010,0.1576,-0.1583,-0.0025,1101,1502,1500,1500,1000,1000,1505,1000,1000,1505,1502,1500,1505,0.5061,-0.2480,0.1679,-0.0276,-0.0215,1.0000,0.4145,0.1041,-0.2174,0.1028,0.4430,0.1806,0.0876,0.4430,0.1806,0.0876,0.3000,0.0600,0.0002,0,-0.3000,-100.0000,-0.0010,-0.3000,-100.0000,-0.0010,22.4790,55.8474,0.0200,0.0000
-25.3368,35.3349,-7.7861,-0.1657,0.0821,0.1200,0.0000,0.0000,0.1010,0.1575,-0.1589,-0.0023,1101,1502,1500,1500,1000,1000,1505,1000,1000,1505,1502,1500,1505,0.4887,-0.2008,0.1171,-0.0229,-0.0193,1.0018,0.4151,0.1046,-0.2176,0.1019,0.4430,0.1806,0.0876,0.4430,0.1806,0.0876,0.3000,0.0600,0.0002,0,-0.3000,-100.0000,-0.0010,-0.3000,-100.0000,-0.0010,22.5229,55.8838,0.0200,0.0000
-25.3037,35.3038,-7.7695,0.0829,-0.0000,0.1200,0.0000,0.0000,0.1010,0.1575,-0.1594,-0.0013,1101,1502,1500,1500,1000,1000,1505,1000,1000,1505,1502,1500,1505,0.3371,-0.1408,-0.1916,-0.0287,-0.0210,1.0055,0.4166,0.1043,-0.2173,0.1004,0.4430,0.1806,0.0876,0.4430,0.1806,0.0876,0.3000,0.0600,0.0002,0,-0.3000,-100.0000,-0.0010,-0.3000,-100.0000,-0.0010,22.5667,55.9203,0.0200,0.0000
-25.2726,35.2716,-7.7544,0.1657,-0.3283,0.1200,0.0000,0.0000,0.1110,0.1574,-0.1600,-0.0004,1111,1502,1500,1500,1000,1000,1505,1000,1000,1505,1502,1500,1505,0.2452,-0.1297,-0.3678,-0.0257,-0.0231,0.9990,0.4280,0.1139,-0.2068,0.1089,0.4430,0.1806,0.0876,0.4430,0.1806,0.0876,0.3000,0.0600,0.0002,0,-0.3000,-100.0000,-0.0010,-0.3000,-100.0000,-0.0010,22.6105,55.9566,0.0200,0.0000
-25.2501,35.2331,-7.7538,-0.0829,-0.0000,0.1200,0.0000,0.0000,0.1160,0.1573,-0.1604,0.0053,1116,1502,1500,1500,1000,1000,1505,1000,1000,1505,1502,1500,1505,0.2680,-0.1908,-2.4141,-0.0222,-0.0226,1.0036,0.4390,0.1138,-0.1964,0.1076,0.4430,0.1806,0.0876,0.4430,0.1806,0.0876,0.3000,0.0600,0.0002,0,-0.3000,-100.0000,-0.0010,-0.3000,-100.0000,-0.0010,22.6544,55.9930,0.0200,0.0000
-25.2396,35.1847,-7.7750,0.0000,-0.0000,0.1200,0.0000,0.0000,0.1250,0.1571,-0.1607,0.0110,1127,1504,1501,1501,1000,1000,1505,1000,1000,1505,1502,1500,1505,0.4783,-0.3581,-4.2377,-0.0373,-0.0307,1.0147,0.4538,0.1176,-0.1818,0.1103,0.4430,0.1806,0.0876,0.4430,0.1806,0.0876,0.3000,0.0600,0.0002,0,-0.3000,-100.0000,-0.0010,-0.3000,-100.0000,-0.0010,22.6982,56.0294,0.0200,0.0000
-25.2373,35.1274,-7.8120,0.0829,-0.1642,0.1200,0.0000,0.0000,0.1360,0.1571,-0.1608,0.0137,1136,1502,1500,1500,1000,1000,1505,1000,1000,1505,1502,1500,1505,0.4254,-0.6877,-5.1688,-0.0179,-0.0315,1.0019,0.4676,0.1261,-0.1683,0.1186,0.4430,0.1806,0.0876,0.4430,0.1806,0.0876,0.3000,0.0600,0.0002,0,-0.3000,-100.0000,-0.0010,-0.3000,-100.0000,-0.0010,22.7421,56.0657,0.0200,0.0000
-25.2339,35.0694,-7.8518,0.0000,-0.0821,0.1200,0.0000,0.0000,0.1400,0.1569,-0.1612,0.0125,1140,1502,1500,1500,1000,1000,1505,1000,1000,1505,1502,1500,1505,0.6730,-0.7151,-4.8401,-0.0220,-0.0166,0.9954,0.4706,0.1319,-0.1656,0.1232,0.4430,0.1806,0.0876,0.4430,0.1806,0.0876,0.3000,0.0600,0.0002,0,-0.3000,-100.0000,-0.0010,-0.3000,-100.0000,-0.0010,22.7860,56.1021,0.0200,0.0000
-25.2249,35.0161,-7.8807,0.0000,-0.0821,0.1200,0.0000,0.0000,0.1410,0.1568,-0.1621,0.0079,1141,1502,1500,1500,1000,1000,1505,1000,1000,1505,1502,1500,1505,0.7738,-0.2102,-3.3553,-0.0217,-0.0144,1.0101,0.4678,0.1384,-0.1699,0.1277,0.4430,0.1806,0.0876,0.4430,0.1806,0.0876,0.3000,0.0600,0.0002,0,-0.3000,-100.0000,-0.0010,-0.3000,-100.0000,-0.0010,22.8300,56.1385,0.0200,0.0000
-25.2007,34.9739,-7.8878,0.0000,-0.0821,0.1200,0.0000,0.0000,0.1410,0.1567,-0.1626,0.0009,1141,1502,1500,1500,1000,1000,1505,1000,1000,1505,1502,1500,1505,0.6682,-0.1856,-1.0601,-0.0174,-0.0015,1.0002,0.4612,0.1460,-0.1774,0.1342,0.4430,0.1806,0.0876,0.4430,0.1806,0.0876,0.3000,0.0600,0.0002,0,-0.3000,-100.0000,-0.0010,-0.3000,-100.0000,-0.0010,22.8740,56.1749,0.0200,0.0000
-25.1642,34.9453,-7.8675,0.0000,-0.1642,0.1200,0.0000,0.0000,0.1410,0.1570,-0.1632,-0.0059,1141,1502,1500,1500,1000,1000,1505,1000,1000,1505,1502,1500,1505,0.1988,-0.0745,1.2713,-0.0213,0.0065,1.0008,0.4553,0.1531,-0.1851,0.1406,0.4430,0.1806,0.0876,0.4430,0.1806,0.0876,0.3000,0.0600,0.0002,0,-0.3000,-100.0000,-0.0010,-0.3000,-100.0000,-0.0010,22.9180,56.2113,0.0200,0.0000
-25.1181,34.9264,-7.8263,-0.0829,-0.0821,0.1200,0.0000,0.0000,0.1410,0.1568,-0.1642,-0.0099,1143,1504,1501,1501,1000,1000,1505,1000,1000,1505,1502,1500,1505,0.1937,0.3385,2.6457,-0.0282,0.0008,1.0038,0.4521,0.1583,-0.1898,0.1435,0.4430,0.1806,0.0876,0.4430,0.1806,0.0876,0.3000,0.0600,0.0002,0,-0.3000,-100.0000,-0.0010,-0.3000,-100.0000,-0.0010,22.9620,56.2477,0.0200,0.0000
-25.0678,34.9108,-7.7766,0.0000,-0.0821,0.1200,0.0000,0.0000,0.1410,0.1568,-0.1644,-0.0104,1141,1502,1500,1500,1000,1000,1505,1000,1000,1505,1502,1500,1505,-0.0755,-0.0594,2.8449,-0.0178,-0.0118,1.0111,0.4518,0.1590,-0.1906,0.1438,0.4430,0.1806,0.0876,0.4430,0.1806,0.0876,0.3000,0.0600,0.0002,0,-0.3000,-100.0000,-0.0010,-0.3000,-100.0000,-0.0010,23.0060,56.2841,0.0200,0.0000
-25.0242,34.8948,-7.7300,0.0829,-0.1642,0.1200,0.0000,0.0000,0.1410,0.1568,-0.1653,-0.0088,1141,1502,1500,1500,1000,1000,1505,1000,1000,1505,1502,1500,1505,-0.2720,0.3009,2.3548,-0.0331,-0.0324,1.0039,0.4543,0.1583,-0.1899,0.1412,0.4430,0.1806,0.0876,0.4430,0.1806,0.0876,0.3000,0.0600,0.0002,0,-0.3000,-100.0000,-0.0010,-0.3000,-100.0000,-0.0010,23.0501,56.3205,0.0200,0.0000
-24.9848,34.8753,-7.6896,0.0000,-0.0000,0.1200,0.0000,0.0000,0.1410,0.1567,-0.1658,-0.0079,1141,1502,1500,1500,1000,1000,1505,1000,1000,1505,1502,1500,1505,-0.3792,0.2140,2.0144,-0.0287,-0.0399,1.0104,0.4556,0.1581,-0.1894,0.1398,0.4430,0.1806,0.0876,0.4430,0.1806,0.0876,0.3000,0.0600,0.0002,0,-0.3000,-100.0000,-0.0010,-0.3000,-100.0000,-0.0010,23.0942,56.3568,0.0200,0.0000
-24.9522,34.8523,-7.6534,0.0000,-0.0000,0.1200,0.0000,0.0000,0.1450,0.1568,-0.1659,-0.0058,1145,1502,1500,1500,1000,1000,1505,1000,1000,1505,1502,1500,1505,-0.6901,-0.2915,1.3219,-0.0286,-0.0482,1.0043,0.4620,0.1599,-0.1835,0.1416,0.4430,0.1806,0.0876,0.4430,0.1806,0.0876,0.3000,0.0600,0.0002,0,-0.3000,-100.0000,-0.0010,-0.3000,-100.0000,-0.0010,23.1382,56.3932,0.0200,0.0000
-24.9238,34.8214,-7.6270,-0.0829,-0.1642,0.1200,0.0000,0.0000,0.1460,0.1565,-0.1664,-0.0021,1146,1502,1500,1500,1000,1000,1505,1000,1000,1505,1502,1500,1505,-0.4249,-0.3350,0.1093,-0.0265,-0.0327,1.0036,0.4668,0.1581,-0.1790,0.1382,0.4430,0.1806,0.0876,0.4430,0.1806,0.0876,0.3000,0.0600,0.0002,0,-0.3000,-100.0000,-0.0010,-0.3000,-100.0000,-0.0010,23.1823,56.4295,0.0200,0.0000
-24.8992,34.7867,-7.6124,0.0000,-0.1642,0.1200,0.0000,0.0000,0.1460,0.1562,-0.1670,-0.0003,1146,1504,1501,1501,1000,1000,1505,1000,1000,1505,1502,1500,1505,-0.2422,-0.3100,-0.5454,-0.0229,-0.0102,0.9963,0.4689,0.1570,-0.1774,0.1355,0.4430,0.1806,0.0876,0.4430,0.1806,0.0876,0.3000,0.0600,0.0002,0,-0.3000,-100.0000,-0.0010,-0.3000,-100.0000,-0.0010,23.2264,56.4658,0.0200,0.0000
-24.8736,34.7518,-7.6008,-0.1657,-0.2462,0.1200,0.0000,0.0000,0.1460,0.1558,-0.1674,-0.0002,1146,1502,1500,1500,1000,1000,1505,1000,1000,1505,1502,1500,1505,0.0368,-0.4251,-0.5864,-0.0247,-0.0047,1.0133,0.4690,0.1577,-0.1774,0.1346,0.4430,0.1806,0.0876,0.4430,0.1806,0.0876,0.3000,0.0600,0.0002,0,-0.3000,-100.0000,-0.0010,-0.3000,-100.0000,-0.0010,23.2705,56.5021,0.0200,0.0000
-24.8470,34.7143,-7.5907,0.0000,-0.0821,0.1200,0.0000,0.0000,0.1460,0.1557,-0.1679,0.0014,1146,1502,1500,1500,1000,1000,1505,1000,1000,1505,1502,1500,1505,0.0514,-0.4135,-1.0791,-0.0237,-0.0116,0.9983,0.4710,0.1567,-0.1762,0.1324,0.4430,0.1806,0.0876,0.4430,0.1806,0.0876,0.3000,0.0600,0.0002,0,-0.3000,-100.0000,-0.0010,-0.3000,-100.0000,-0.0010,23.3146,56.5384,0.0200,0.0000
-24.8230,34.6772,-7.5852,0.0000,-0.0821,0.1200,0.0000,0.0000,0.1460,0.1558,-0.1686,0.0008,1146,1502,1500,1500,1000,1000,1505,1000,1000,1505,1502,1500,1505,-0.2201,-0.1086,-0.9235,-0.0231,-0.0098,1.0083,0.4712,0.1580,-0.1777,0.1324,0.4430,0.1806,0.0876,0.4430,0.1806,0.0876,0.3000,0.0600,0.0002,0,-0.3000,-100.0000,-0.0010,-0.3000,-100.0000,-0.0010,23.3588,56.5747,0.0200,0.0000
-24.7994,34.6439,-7.5714,0.0000,-0.0821,0.1200,0.0000,0.0000,0.1460,0.1559,-0.1688,-0.0026,1146,1502,1500,1500,1000,1000,1505,1000,1000,1505,1502,1500,1505,-0.4397,-0.4899,0.1813,-0.0287,-0.0244,1.0127,0.4681,0.1615,-0.1814,0.1358,0.4430,0.1806,0.0876,0.4430,0.1806,0.0876,0.3000,0.0600,0.0002,0,-0.3000,-100.0000,-0.0010,-0.3000,-100.0000,-0.0010,23.4029,56.6109,0.0200,0.0000
-24.7736,34.6105,-7.5492,0.0000,-0.1642,0.1200,0.0000,0.0000,0.1460,0.1560,-0.1696,-0.0025,1146,1502,1500,1500,1000,1000,1505,1000,1000,1505,1502,1500,1505,-0.6292,-0.1007,0.1905,-0.0160,-0.0330,0.9954,0.4691,0.1622,-0.1821,0.1348,0.4430,0.1806,0.0876,0.4430,0.1806,0.0876,0.3000,0.0600,0.0002,0,-0.3000,-100.0000,-0.0010,-0.3000,-100.0000,-0.0010,23.4471,56.6472,0.0200,0.0000
-24.7520,34.5824,-7.5302,0.0000,-0.0821,0.1200,0.0000,0.0000,0.1460,0.1564,-0.1704,-0.0037,1147,1504,1501,1501,1000,1000,1505,1000,1000,1505,1502,1500,1505,-1.1960,0.1468,0.5252,-0.0309,-0.0158,1.0062,0.4691,0.1637,-0.1845,0.1357,0.4430,0.1806,0.0876,0.4430,0.1806,0.0876,0.3000,0.0600,0.0002,0,-0.3000,-100.0000,-0.0010,-0.3000,-100.0000,-0.0010,23.4912,56.6834,0.0200,0.0000
-24.7284,34.5544,-7.5004,0.0000,-0.0821,0.1200,0.0000,0.0000,0.1460,0.1562,-0.1701,-0.0060,1146,1502,1500,1500,1000,1000,1505,1000,1000,1505,1502,1500,1505,-1.0845,-0.7674,1.3541,-0.0228,-0.0217,1.0087,0.4663,0.1660,-0.1863,0.1381,0.4430,0.1806,0.0876,0.4430,0.1806,0.0876,0.3000,0.0600,0.0002,0,-0.3000,-100.0000,-0.0010,-0.3000,-100.0000,-0.0010,23.5354,56.7196,0.0200,0.0000
-24.6994,34.5249,-7.4704,0.0829,-0.0821,0.1200,0.0000,0.0000,0.1460,0.1553,-0.1714,-0.0040,1146,1502,1500,1500,1000,1000,1505,1000,1000,1505,1502,1500,1505,-0.2711,0.1382,0.6985,-0.0069,-0.0171,0.9938,0.4688,0.1661,-0.1848,0.1339,0.4430,0.1806,0.0876,0.4430,0.1806,0.0876,0.3000,0.0600,0.0002,0,-0.3000,-100.0000,-0.0010,-0.3000,-100.0000,-0.0010,23.5797,56.7559,0.0200,0.0000
-24.6733,34.5019,-7.4509,0.0000,-0.0000,0.1200,0.0000,0.0000,0.1460,0.1558,-0.1722,-0.0040,1146,1502,1500,1500,1000,1000,1505,1000,1000,1505,1502,1500,1505,-0.9239,0.3933,0.6499,-0.0372,-0.0089,1.0187,0.4700,0.1664,-0.1860,0.1336,0.4430,0.1806,0.0876,0.4430,0.1806,0.0876,0.3000,0.0600,0.0002,0,-0.3000,-100.0000,-0.0010,-0.3000,-100.0000,-0.0010,23.6239,56.7921,0.0200,0.0000
-24.6446,34.4725,-7.4222,0.0000,-0.1642,0.1200,0.0000,0.0000,0.1460,0.1552,-0.1717,-0.0048,1146,1502,1500,1500,1000,1000,1505,1000,1000,1505,1502,1500,1505,-0.3705,-0.8026,1.0173,-0.0206,-0.0402,0.9940,0.4681,0.1673,-0.1856,0.1343,0.4430,0.1806,0.0876,0.4430,0.1806,0.0876,0.3000,0.0600,0.0002,0,-0.3000,-100.0000,-0.0010,-0.3000,-100.0000,-0.0010,23.6681,56.8283,0.0200,0.0000
-24.6124,34.4441,-7.3995,-0.0829,-0.1642,0.1200,0.0000,0.0000,0.1460,0.1548,-0.1734,-0.0024,1146,1502,1500,1500,1000,1000,1505,1000,1000,1505,1502,1500,1505,-0.0587,0.5567,0.2330,-0.0119,-0.0154,1.0060,0.4718,0.1670,-0.1846,0.1297,0.4430,0.1806,0.0876,0.4430,0.1806,0.0876,0.3000,0.0600,0.0002,0,-0.3000,-100.0000,-0.0010,-0.3000,-100.0000,-0.0010,23.7124,56.8646,0.0200,0.0000
-24.5888,34.4207,-7.3806,0.0829,-0.0821,0.1200,0.0000,0.0000,0.1460,0.1556,-0.1733,-0.0036,1147,1504,1501,1501,1000,1000,1505,1000,1000,1505,1502,1500,1505,-1.1699,-0.1465,0.5639,-0.0570,-0.0231,1.0138,0.4713,0.1673,-0.1866,0.1319,0.4430,0.1806,0.0876,0.4430,0.1806,0.0876,0.3000,0.0600,0.0002,0,-0.3000,-100.0000,-0.0010,-0.3000,-100.0000,-0.0010,23.7567,56.9008,0.0200,0.0000
-24.5622,34.3856,-7.3534,0.0000,-0.0821,0.1200,0.0000,0.0000,0.1460,0.1546,-0.1735,-0.0027,1146,1502,1500,1500,1000,1000,1505,1000,1000,1505,1502,1500,1505,-0.1672,-0.5305,0.2860,-0.0067,-0.0358,0.9790,0.4714,0.1676,-0.1849,0.1299,0.4430,0.1806,0.0876,0.4430,0.1806,0.0876,0.3000,0.0600,0.0002,0,-0.3000,-100.0000,-0.0010,-0.3000,-100.0000,-0.0010,23.8010,56.9370,0.0200,0.0000
-24.5387,34.3583,-7.3381,0.0000,-0.0821,0.1200,0.0000,0.0000,0.1460,0.1553,-0.1752,-0.0018,1146,1502,1500,1500,1000,1000,1505,1000,1000,1505,1502,1500,1505,-0.9935,0.7808,-0.1219,-0.0266,0.0065,1.0243,0.4747,0.1677,-0.1862,0.1279,0.4430,0.1806,0.0876,0.4430,0.1806,0.0876,0.3000,0.0600,0.0002,0,-0.3000,-100.0000,-0.0010,-0.3000,-100.0000,-0.0010,23.8453,56.9732,0.0200,0.0000
-24.5219,34.3275,-7.3183,0.0000,-0.0821,0.1200,0.0000,0.0000,0.1460,0.1555,-0.1743,-0.0029,1146,1502,1500,1500,1000,1000,1505,1000,1000,1505,1502,1500,1505,-1.3123,-0.8538,0.3065,-0.0396,-0.0241,0.9998,0.4728,0.1677,-0.1867,0.1301,0.4430,0.1806,0.0876,0.4430,0.1806,0.0876,0.3000,0.0600,0.0002,0,-0.3000,-100.0000,-0.0010,-0.3000,-100.0000,-0.0010,23.8896,57.0094,0.0200,0.0000
-24.4954,34.2901,-7.3004,0.0000,-0.0821,0.1200,0.0000,0.0000,0.1460,0.1542,-0.1756,-0.0009,1146,1502,1500,1500,1000,1000,1505,1000,1000,1505,1502,1500,1505,0.0219,0.0721,-0.3165,-0.0034,-0.0161,0.9955,0.4748,0.1683,-0.1846,0.1255,0.4430,0.1806,0.0876,0.4430,0.1806,0.0876,0.3000,0.0600,0.0002,0,-0.3000,-100.0000,-0.0010,-0.3000,-100.0000,-0.0010,23.9339,57.0455,0.0200,0.0000
-24.4764,34.2639,-7.2889,0.0000,-0.0821,0.1200,0.0000,0.0000,0.1460,0.1554,-0.1760,-0.0021,1146,1502,1500,1500,1000,1000,1505,1000,1000,1505,1502,1500,1505,-1.4385,-0.0672,0.0526,-0.0629,-0.0130,1.0171,0.4752,0.1687,-0.1875,0.1275,0.4430,0.1806,0.0876,0.4430,0.1806,0.0876,0.3000,0.0600,0.0002,0,-0.3000,-100.0000,-0.0010,-0.3000,-100.0000,-0.0010,23.9783,57.0817,0.0200,0.0000
-24.4542,34.2258,-7.2685,0.0000,-0.2462,0.1200,0.0000,0.0000,0.1460,0.1540,-0.1758,-0.0010,1148,1504,1501,1501,1000,1000,1505,1000,1000,1505,1502,1500,1505,-0.0163,-0.7901,-0.2847,-0.0201,-0.0460,0.9798,0.4749,0.1688,-0.1849,0.1252,0.4430,0.1806,0.0876,0.4430,0.1806,0.0876,0.3000,0.0600,0.0002,0,-0.3000,-100.0000,-0.0010,-0.3000,-100.0000,-0.0010,24.0227,57.1180,0.0200,0.0000
-24.4273,34.1938,-7.2552,-0.0829,-0.0821,0.1200,0.0000,0.0000,0.1460,0.1543,-0.1774,-0.0020,1146,1502,1500,1500,1000,1000,1505,1000,1000,1505,1502,1500,1505,-0.4939,0.4491,-0.0467,-0.0069,-0.0034,1.0160,0.4757,0.1711,-0.1878,0.1249,0.4430,0.1806,0.0876,0.4430,0.1806,0.0876,0.3000,0.0600,0.0002,0,-0.3000,-100.0000,-0.0010,-0.3000,-100.0000,-0.0010,24.0672,57.1542,0.0200,0.0000
-24.4093,34.1634,-7.2337,-0.1657,-0.2462,0.1200,0.0000,0.0000,0.1460,0.1550,-0.1770,-0.0034,1146,1502,1500,1500,1000,1000,1505,1000,1000,1505,1502,1500,1505,-1.3279,-0.6653,0.5045,-0.0381,-0.0347,0.9987,0.4745,0.1714,-0.1894,0.1275,0.4430,0.1806,0.0876,0.4430,0.1806,0.0876,0.3000,0.0600,0.0002,0,-0.3000,-100.0000,-0.0010,-0.3000,-100.0000,-0.0010,24.1117,57.1904,0.0200,0.0000
-24.3827,34.1287,-7.2148,0.0829,-0.1642,0.1200,0.0000,0.0000,0.1460,0.1539,-0.1783,-0.0015,1146,1502,1500,1500,1000,1000,1505,1000,1000,1505,1502,1500,1505,-0.2561,0.2821,-0.1038,-0.0145,-0.0062,1.0012,0.4767,0.1719,-0.1877,0.1232,0.4430,0.1806,0.0876,0.4430,0.1806,0.0876,0.3000,0.0600,0.0002,0,-0.3000,-100.0000,-0.0010,-0.3000,-100.0000,-0.0010,24.1562,57.2267,0.0200,0.0000
-24.3618,34.1017,-7.1987,-0.1657,-0.1642,0.1200,0.0000,0.0000,0.1460,0.1546,-0.1782,-0.0032,1146,1502,1500,1500,1000,1000,1505,1000,1000,1505,1502,1500,1505,-1.1520,-0.4494,0.3972,-0.0323,-0.0120,1.0098,0.4756,0.1727,-0.1900,0.1256,0.4430,0.1806,0.0876,0.4430,0.1806,0.0876,0.3000,0.0600,0.0002,0,-0.3000,-100.0000,-0.0010,-0.3000,-100.0000,-0.0010,24.2006,57.2629,0.0200,0.0000
-24.3365,34.0693,-7.1766,0.0000,-0.0821,0.1200,0.0000,0.0000,0.1460,0.1531,-0.1789,-0.0022,1146,1502,1500,1500,1000,1000,1505,1000,1000,1505,1502,1500,1505,0.4048,-0.1671,0.0970,-0.0190,-0.0311,0.9996,0.4758,0.1740,-0.1883,0.1224,0.4430,0.1806,0.0876,0.4430,0.1806,0.0876,0.3000,0.0600,0.0002,0,-0.3000,-100.0000,-0.0010,-0.3000,-100.0000,-0.0010,24.2451,57.2990,0.0200,0.0000
-24.3061,34.0429,-7.1626,0.0000,-0.0821,0.1200,0.0000,0.0000,0.1460,0.1540,-0.1799,-0.0027,1148,1504,1501,1501,1000,1000,1505,1000,1000,1505,1502,1500,1505,-0.6918,0.3130,0.2247,-0.0349,-0.0052,1.0285,0.4771,0.1746,-0.1905,0.1228,0.4430,0.1806,0.0876,0.4430,0.1806,0.0876,0.3000,0.0600,0.0002,0,-0.3000,-100.0000,-0.0010,-0.3000,-100.0000,-0.0010,24.2896,57.3351,0.0200,0.0000
-24.2802,34.0098,-7.1384,0.0000,-0.0821,0.1200,0.0000,0.0000,0.1460,0.1534,-0.1795,-0.0036,1146,1502,1500,1500,1000,1000,1505,1000,1000,1505,1502,1500,1505,-0.1450,-0.6367,0.6023,-0.0178,-0.0535,0.9769,0.4753,0.1758,-0.1905,0.1234,0.4430,0.1806,0.0876,0.4430,0.1806,0.0876,0.3000,0.0600,0.0002,0,-0.3000,-100.0000,-0.0010,-0.3000,-100.0000,-0.0010,24.3341,57.3712,0.0200,0.0000
-24.2445,33.9814,-7.1191,0.0000,-0.0821,0.1200,0.0000,0.0000,0.1460,0.1527,-0.1811,-0.0023,1146,1502,1500,1500,1000,1000,1505,1000,1000,1505,1502,1500,1505,0.4421,0.5324,0.1215,-0.0289,-0.0114,1.0270,0.4775,0.1766,-0.1900,0.1199,0.4430,0.1806,0.0876,0.4430,0.1806,0.0876,0.3000,0.0600,0.0002,0,-0.3000,-100.0000,-0.0010,-0.3000,-100.0000,-0.0010,24.3785,57.4073,0.0200,0.0000
-24.2178,33.9500,-7.0982,0.0000,-0.1642,0.1200,0.0000,0.0000,0.1460,0.1537,-0.1802,-0.0033,1146,1502,1500,1500,1000,1000,1505,1000,1000,1505,1502,1500,1505,-0.7854,-0.9888,0.4362,-0.0247,-0.0329,0.9983,0.4766,0.1759,-0.1912,0.1227,0.4430,0.1806,0.0876,0.4430,0.1806,0.0876,0.3000,0.0600,0.0002,0,-0.3000,-100.0000,-0.0010,-0.3000,-100.0000,-0.0010,24.4231,57.4434,0.0200,0.0000
-24.1880,33.9163,-7.0786,0.0000,-0.0821,0.1200,0.0000,0.0000,0.1460,0.1524,-0.1819,-0.0018,1146,1502,1500,1500,1000,1000,1505,1000,1000,1505,1502,1500,1505,0.5493,0.3110,-0.0254,-0.0100,-0.0217,1.0062,0.4785,0.1773,-0.1900,0.1182,0.4430,0.1806,0.0876,0.4430,0.1806,0.0876,0.3000,0.0600,0.0002,0,-0.3000,-100.0000,-0.0010,-0.3000,-100.0000,-0.0010,24.4676,57.4795,0.0200,0.0000
-24.1623,33.8896,-7.0636,-0.0829,-0.1642,0.1200,0.0000,0.0000,0.1460,0.1539,-0.1819,-0.0022,1146,1502,1500,1500,1000,1000,1505,1000,1000,1505,1502,1500,1505,-1.3524,-0.2711,0.0728,-0.0524,-0.0104,1.0182,0.4796,0.1762,-0.1920,0.1203,0.4430,0.1806,0.0876,0.4430,0.1806,0.0876,0.3000,0.0600,0.0002,0,-0.3000,-100.0000,-0.0010,-0.3000,-100.0000,-0.0010,24.5121,57.5155,0.0200,0.0000
-24.1398,33.8538,-7.0449,0.0000,-0.0821,0.1200,0.0000,0.0000,0.1460,0.1524,-0.1825,-0.0015,1148,1504,1501,1501,1000,1000,1505,1000,1000,1505,1502,1500,1505,0.2183,-0.1659,-0.1645,-0.0061,-0.0298,0.9820,0.4794,0.1775,-0.1904,0.1174,0.4430,0.1806,0.0876,0.4430,0.1806,0.0876,0.3000,0.0600,0.0002,0,-0.3000,-100.0000,-0.0010,-0.3000,-100.0000,-0.0010,24.5567,57.5516,0.0200,0.0000
-24.1121,33.8255,-7.0336,0.0000,-0.0821,0.1200,0.0000,0.0000,0.1460,0.1530,-0.1831,-0.0014,1146,1502,1500,1500,1000,1000,1505,1000,1000,1505,1502,1500,1505,-0.6034,-0.0116,-0.2062,-0.0336,-0.0057,1.0341,0.4808,0.1775,-0.1915,0.1173,0.4430,0.1806,0.0876,0.4430,0.1806,0.0876,0.3000,0.0600,0.0002,0,-0.3000,-100.0000,-0.0010,-0.3000,-100.0000,-0.0010,24.6013,57.5877,0.0200,0.0000
-24.0943,33.7896,-7.0136,0.0000,-0.0821,0.1200,0.0000,0.0000,0.1460,0.1534,-0.1833,-0.0021,1146,1502,1500,1500,1000,1000,1505,1000,1000,1505,1502,1500,1505,-1.1047,-0.3751,0.0837,-0.0179,-0.0557,0.9735,0.4805,0.1780,-0.1928,0.1182,0.4430,0.1806,0.0876,0.4430,0.1806,0.0876,0.3000,0.0600,0.0002,0,-0.3000,-100.0000,-0.0010,-0.3000,-100.0000,-0.0010,24.6459,57.6238,0.0200,0.0000
-24.0675,33.7622,-6.9991,0.0000,-0.0821,0.1200,0.0000,0.0000,0.1460,0.1524,-0.1848,-0.0022,1146,1502,1500,1500,1000,1000,1505,1000,1000,1505,1502,1500,1505,-0.1180,0.7559,0.0176,-0.0343,-0.0010,1.0221,0.4810,0.1806,-0.1934,0.1158,0.4430,0.1806,0.0876,0.4430,0.1806,0.0876,0.3000,0.0600,0.0002,0,-0.3000,-100.0000,-0.0010,-0.3000,-100.0000,-0.0010,24.6905,57.6598,0.0200,0.0000
-24.0454,33.7303,-6.9788,0.0000,-0.0000,0.1200,0.0000,0.0000,0.1460,0.1531,-0.1838,-0.0033,1146,1502,1500,1500,1000,1000,1505,1000,1000,1505,1502,1500,1505,-0.9714,-0.9338,0.4734,-0.0141,-0.0383,0.9893,0.4795,0.1801,-0.1942,0.1186,0.4430,0.1806,0.0876,0.4430,0.1806,0.0876,0.3000,0.0600,0.0002,0,-0.3000,-100.0000,-0.0010,-0.3000,-100.0000,-0.0010,24.7352,57.6959,0.0200,0.0000
-24.0190,33.7011,-6.9594,0.0000,-0.0821,0.1200,0.0000,0.0000,0.1460,0.1520,-0.1859,-0.0027,1146,1502,1500,1500,1000,1000,1505,1000,1000,1505,1502,1500,1505,0.0816,0.8701,0.2694,-0.0218,-0.0170,1.0090,0.4813,0.1825,-0.1946,0.1148,0.4430,0.1806,0.0876,0.4430,0.1806,0.0876,0.3000,0.0600,0.0002,0,-0.3000,-100.0000,-0.0010,-0.3000,-100.0000,-0.0010,24.7799,57.7320,0.0200,0.0000
-23.9933,33.6766,-6.9411,0.0000,-0.0821,0.1200,0.0000,0.0000,0.1460,0.1528,-0.1852,-0.0029,1148,1504,1501,1501,1000,1000,1505,1000,1000,1505,1502,1500,1505,-0.9546,-0.5608,0.2947,-0.0374,-0.0145,1.0027,0.4811,0.1812,-0.1948,0.1165,0.4430,0.1806,0.0876,0.4430,0.1806,0.0876,0.3000,0.0600,0.0002,0,-0.3000,-100.0000,-0.0010,-0.3000,-100.0000,-0.0010,24.8245,57.7680,0.0200,0.0000
-23.9669,33.6436,-6.9216,0.0000,-0.0000,0.1200,0.0000,0.0000,0.1460,0.1517,-0.1866,-0.0029,1146,1502,1500,1500,1000,1000,1505,1000,1000,1505,1502,1500,1505,0.2092,0.4488,0.2945,-0.0053,-0.0346,0.9939,0.4813,0.1838,-0.1951,0.1140,0.4430,0.1806,0.0876,0.4430,0.1806,0.0876,0.3000,0.0600,0.0002,0,-0.3000,-100.0000,-0.0010,-0.3000,-100.0000,-0.0010,24.8693,57.8041,0.0200,0.0000
-23.9394,33.6197,-6.9044,0.0000,-0.0821,0.1200,0.0000,0.0000,0.1460,0.1525,-0.1867,-0.0027,1146,1502,1500,1500,1000,1000,1505,1000,1000,1505,1502,1500,1505,-0.9109,-0.0490,0.3059,-0.0502,-0.0175,1.0256,0.4824,0.1829,-0.1959,0.1146,0.4430,0.1806,0.0876,0.4430,0.1806,0.0876,0.3000,0.0600,0.0002,0,-0.3000,-100.0000,-0.0010,-0.3000,-100.0000,-0.0010,24.9140,57.8402,0.0200,0.0000
-23.9130,33.5854,-6.8841,-0.0829,-0.2462,0.1200,0.0000,0.0000,0.1460,0.1511,-0.1871,-0.0020,1146,1502,1500,1500,1000,1000,1505,1000,1000,1505,1502,1500,1505,0.5629,-0.0952,0.0391,-0.0028,-0.0364,0.9742,0.4822,0.1840,-0.1942,0.1120,0.4430,0.1806,0.0876,0.4430,0.1806,0.0876,0.3000,0.0600,0.0002,0,-0.3000,-100.0000,-0.0010,-0.3000,-100.0000,-0.0010,24.9588,57.8762,0.0200,0.0000
-23.8833,33.5600,-6.8701,0.0000,-0.0000,0.1200,0.0000,0.0000,0.1460,0.1522,-0.1879,-0.0024,1146,1502,1500,1500,1000,1000,1505,1000,1000,1505,1502,1500,1505,-0.8170,0.2462,0.1197,-0.0412,-0.0130,1.0499,0.4837,0.1841,-0.1965,0.1127,0.4430,0.1806,0.0876,0.4430,0.1806,0.0876,0.3000,0.0600,0.0002,0,-0.3000,-100.0000,-0.0010,-0.3000,-100.0000,-0.0010,25.0035,57.9123,0.0200,0.0000
-23.8616,33.5242,-6.8500,-0.0829,-0.1642,0.1200,0.0000,0.0000,0.1460,0.1517,-0.1878,-0.0022,1146,1502,1500,1500,1000,1000,1505,1000,1000,1505,1502,1500,1505,-0.3900,-0.3993,0.0977,-0.0115,-0.0562,0.9655,0.4834,0.1843,-0.1958,0.1121,0.4430,0.1806,0.0876,0.4430,0.1806,0.0876,0.3000,0.0600,0.0002,0,-0.3000,-100.0000,-0.0010,-0.3000,-100.0000,-0.0010,25.0483,57.9483,0.0200,0.0000
-23.8290,33.4965,-6.8343,0.0000,-0.1642,0.1200,0.0000,0.0000,0.1460,0.1509,-0.1891,-0.0022,1148,1504,1501,1501,1000,1000,1505,1000,1000,1505,1502,1500,1505,0.3988,0.4441,0.1158,-0.0269,0.0083,1.0341,0.4837,0.1864,-0.1962,0.1101,0.4430,0.1806,0.0876,0.4430,0.1806,0.0876,0.3000,0.0600,0.0002,0,-0.3000,-100.0000,-0.0010,-0.3000,-100.0000,-0.0010,25.0930,57.9843,0.0200,0.0000
-23.8060,33.4634,-6.8170,0.0000,-0.1642,0.1200,0.0000,0.0000,0.1460,0.1519,-0.1885,-0.0012,1146,1502,1500,1500,1000,1000,1505,1000,1000,1505,1502,1500,1505,-0.8099,-0.7487,-0.1898,-0.0187,-0.0352,0.9873,0.4851,0.1839,-0.1956,0.1106,0.4430,0.1806,0.0876,0.4430,0.1806,0.0876,0.3000,0.0600,0.0002,0,-0.3000,-100.0000,-0.0010,-0.3000,-100.0000,-0.0010,25.1379,58.0204,0.0200,0.0000
-23.7770,33.4305,-6.8015,0.0000,-0.0000,0.1200,0.0000,0.0000,0.1460,0.1508,-0.1901,-0.0023,1146,1502,1500,1500,1000,1000,1505,1000,1000,1505,1502,1500,1505,0.2489,0.5273,0.0907,-0.0205,-0.0153,1.0099,0.4847,0.1876,-0.1972,0.1089,0.4430,0.1806,0.0876,0.4430,0.1806,0.0876,0.3000,0.0600,0.0002,0,-0.3000,-100.0000,-0.0010,-0.3000,-100.0000,-0.0010,25.1827,58.0564,0.0200,0.0000
-23.7528,33.4011,-6.7831,0.0000,-0.0821,0.1200,0.0000,0.0000,0.1460,0.1518,-0.1896,-0.0025,1146,1502,1500,1500,1000,1000,1505,1000,1000,1505,1502,1500,1505,-0.9814,-0.6636,0.1850,-0.0315,-0.0278,1.0061,0.4848,0.1863,-0.1979,0.1107,0.4430,0.1806,0.0876,0.4430,0.1806,0.0876,0.3000,0.0600,0.0002,0,-0.3000,-100.0000,-0.0010,-0.3000,-100.0000,-0.0010,25.2276,58.0925,0.0200,0.0000
-23.7256,33.3669,-6.7668,0.0000,-0.0821,0.1200,0.0000,0.0000,0.1460,0.1503,-0.1909,-0.0019,1146,1502,1500,1500,1000,1000,1505,1000,1000,1505,1502,1500,1505,0.5408,0.3350,0.0014,-0.0161,-0.0227,1.0058,0.4853,0.1886,-0.1972,0.1073,0.4430,0.1806,0.0876,0.4430,0.1806,0.0876,0.3000,0.0600,0.0002,0,-0.3000,-100.0000,-0.0010,-0.3000,-100.0000,-0.0010,25.2725,58.1285,0.0200,0.0000
-23.6999,33.3386,-6.7498,0.0000,-0.0821,0.1200,0.0000,0.0000,0.1460,0.1517,-0.1905,-0.0025,1146,1502,1500,1500,1000,1000,1505,1000,1000,1505,1502,1500,1505,-1.2027,-0.7102,0.1974,-0.0352,-0.0140,1.0147,0.4857,0.1873,-0.1988,0.1097,0.4430,0.1806,0.0876,0.4430,0.1806,0.0876,0.3000,0.0600,0.0002,0,-0.3000,-100.0000,-0.0010,-0.3000,-100.0000,-0.0010,25.3175,58.1646,0.0200,0.0000
-23.6759,33.3031,-6.7299,0.0000,-0.0821,0.1200,0.0000,0.0000,0.1460,0.1502,-0.1919,-0.0028,1148,1504,1501,1501,1000,1000,1505,1000,1000,1505,1502,1500,1505,0.4442,0.2459,0.2926,-0.0069,-0.0354,0.9944,0.4852,0.1905,-0.1989,0.1071,0.4430,0.1806,0.0876,0.4430,0.1806,0.0876,0.3000,0.0600,0.0002,0,-0.3000,-100.0000,-0.0010,-0.3000,-100.0000,-0.0010,25.3623,58.2006,0.0200,0.0000
-23.6464,33.2771,-6.7126,0.0829,-0.0821,0.1200,0.0000,0.0000,0.1460,0.1516,-0.1920,-0.0022,1146,1502,1500,1500,1000,1000,1505,1000,1000,1505,1502,1500,1505,-1.3761,-0.1616,0.1078,-0.0491,-0.0065,1.0268,0.4875,0.1886,-0.1999,0.1078,0.4430,0.1806,0.0876,0.4430,0.1806,0.0876,0.3000,0.0600,0.0002,0,-0.3000,-100.0000,-0.0010,-0.3000,-100.0000,-0.0010,25.4072,58.2365,0.0200,0.0000
-23.6263,33.2409,-6.6943,0.0000,-0.0000,0.1200,0.0000,0.0000,0.1460,0.1502,-0.1922,-0.0021,1146,1502,1500,1500,1000,1000,1505,1000,1000,1505,1502,1500,1505,0.2100,-0.2315,0.0164,-0.0126,-0.0429,0.9773,0.4863,0.1901,-0.1984,0.1060,0.4430,0.1806,0.0876,0.4430,0.1806,0.0876,0.3000,0.0600,0.0002,0,-0.3000,-100.0000,-0.0010,-0.3000,-100.0000,-0.0010,25.4521,58.2724,0.0200,0.0000
-23.5933,33.2129,-6.6769,0.0829,-0.0821,0.1200,0.0000,0.0000,0.1460,0.1509,-0.1922,-0.0030,1146,1502,1500,1500,1000,1000,1505,1000,1000,1505,1502,1500,1505,-0.7426,-0.1399,0.3646,-0.0437,-0.0059,1.0428,0.4860,0.1903,-0.2000,0.1077,0.4430,0.1806,0.0876,0.4430,0.1806,0.0876,0.3000,0.0600,0.0002,0,-0.3000,-100.0000,-0.0010,-0.3000,-100.0000,-0.0010,25.4970,58.3083,0.0200,0.0000
-23.5741,33.1778,-6.6571,0.0000,-0.0821,0.1200,0.0000,0.0000,0.1460,0.1503,-0.1919,-0.0016,1146,1502,1500,1500,1000,1000,1505,1000,1000,1505,1502,1500,1505,-0.2242,-0.2558,-0.1087,-0.0065,-0.0543,0.9647,0.4866,0.1892,-0.1978,0.1060,0.4430,0.1806,0.0876,0.4430,0.1806,0.0876,0.3000,0.0600,0.0002,0,-0.3000,-100.0000,-0.0010,-0.3000,-100.0000,-0.0010,25.5419,58.3442,0.0200,0.0000
-23.5407,33.1495,-6.6425,0.0829,-0.0821,0.1200,0.0000,0.0000,0.1460,0.1500,-0.1922,-0.0025,1146,1502,1500,1500,1000,1000,1505,1000,1000,1505,1502,1500,1505,-0.0042,0.2093,0.1902,-0.0331,0.0027,1.0508,0.4856,0.1907,-0.1987,0.1063,0.4430,0.1806,0.0876,0.4430,0.1806,0.0876,0.3000,0.0600,0.0002,0,-0.3000,-100.0000,-0.0010,-0.3000,-100.0000,-0.0010,25.5868,58.3801,0.0200,0.0000
-23.5214,33.1140,-6.6233,-0.0829,-0.0821,0.1200,0.0000,0.0000,0.1460,0.1507,-0.1915,-0.0016,1148,1504,1501,1501,1000,1000,1505,1000,1000,1505,1502,1500,1505,-0.9372,-0.3940,-0.1086,-0.0079,-0.0597,0.9644,0.4866,0.1884,-0.1978,0.1068,0.4430,0.1806,0.0876,0.4430,0.1806,0.0876,0.3000,0.0600,0.0002,0,-0.3000,-100.0000,-0.0010,-0.3000,-100.0000,-0.0010,25.6318,58.4160,0.0200,0.0000
-23.4916,33.0850,-6.6087,0.0000,-0.0821,0.1200,0.0000,0.0000,0.1460,0.1493,-0.1921,-0.0027,1146,1502,1500,1500,1000,1000,1505,1000,1000,1505,1502,1500,1505,0.5196,0.4577,0.2239,-0.0300,-0.0031,1.0375,0.4847,0.1916,-0.1982,0.1059,0.4430,0.1806,0.0876,0.4430,0.1806,0.0876,0.3000,0.0600,0.0002,0,-0.3000,-100.0000,-0.0010,-0.3000,-100.0000,-0.0010,25.6767,58.4519,0.0200,0.0000
-23.4685,33.0522,-6.5887,0.0000,-0.0821,0.1200,0.0000,0.0000,0.1460,0.1509,-0.1909,-0.0017,1146,1502,1500,1500,1000,1000,1505,1000,1000,1505,1502,1500,1505,-1.3793,-0.7411,-0.0363,-0.0128,-0.0342,0.9776,0.4861,0.1877,-0.1974,0.1076,0.4430,0.1806,0.0876,0.4430,0.1806,0.0876,0.3000,0.0600,0.0002,0,-0.3000,-100.0000,-0.0010,-0.3000,-100.0000,-0.0010,25.7218,58.4879,0.0200,0.0000
-23.4434,33.0204,-6.5767,0.0000,-0.0821,0.1200,0.0000,0.0000,0.1460,0.1489,-0.1919,-0.0018,1146,1502,1500,1500,1000,1000,1505,1000,1000,1505,1502,1500,1505,0.7313,0.4842,-0.0957,-0.0290,-0.0199,1.0137,0.4850,0.1907,-0.1965,0.1048,0.4430,0.1806,0.0876,0.4430,0.1806,0.0876,0.3000,0.0600,0.0002,0,-0.3000,-100.0000,-0.0010,-0.3000,-100.0000,-0.0010,25.7669,58.5238,0.0200,0.0000
-23.4174,32.9870,-6.5569,-0.0829,-0.0821,0.1200,0.0000,0.0000,0.1460,0.1506,-0.1904,-0.0026,1146,1502,1500,1500,1000,1000,1505,1000,1000,1505,1502,1500,1505,-1.3701,-0.9624,0.2211,-0.0188,-0.0179,0.9946,0.4845,0.1884,-0.1977,0.1088,0.4430,0.1806,0.0876,0.4430,0.1806,0.0876,0.3000,0.0600,0.0002,0,-0.3000,-100.0000,-0.0010,-0.3000,-100.0000,-0.0010,25.8119,58.5598,0.0200,0.0000
-23.3921,32.9540,-6.5420,0.0829,-0.0821,0.1200,0.0000,0.0000,0.1460,0.1484,-0.1917,-0.0017,1146,1502,1500,1500,1000,1000,1505,1000,1000,1505,1502,1500,1505,1.0937,0.6497,-0.0656,-0.0176,-0.0340,1.0054,0.4844,0.1910,-0.1957,0.1043,0.4430,0.1806,0.0876,0.4430,0.1806,0.0876,0.3000,0.0600,0.0002,0,-0.3000,-100.0000,-0.0010,-0.3000,-100.0000,-0.0010,25.8570,58.5957,0.0200,0.0000
-23.3608,32.9243,-6.5259,0.0000,-0.1642,0.1200,0.0000,0.0000,0.1460,0.1501,-0.1904,-0.0021,1148,1504,1501,1501,1000,1000,1505,1000,1000,1505,1502,1500,1505,-1.0609,-0.7167,0.0344,-0.0276,-0.0061,1.0106,0.4844,0.1883,-0.1965,0.1078,0.4430,0.1806,0.0876,0.4430,0.1806,0.0876,0.3000,0.0600,0.0002,0,-0.3000,-100.0000,-0.0010,-0.3000,-100.0000,-0.0010,25.9021,58.6316,0.0200,0.0000
-23.3369,32.8900,-6.5098,0.0000,-0.0821,0.1200,0.0000,0.0000,0.1460,0.1482,-0.1913,-0.0026,1146,1502,1500,1500,1000,1000,1505,1000,1000,1505,1502,1500,1505,0.9769,0.4756,0.1675,-0.0013,-0.0449,0.9928,0.4829,0.1916,-0.1960,0.1055,0.4430,0.1806,0.0876,0.4430,0.1806,0.0876,0.3000,0.0600,0.0002,0,-0.3000,-100.0000,-0.0010,-0.3000,-100.0000,-0.0010,25.9472,58.6675,0.0200,0.0000
-23.2999,32.8631,-6.4922,-0.0829,-0.1642,0.1200,0.0000,0.0000,0.1460,0.1494,-0.1903,-0.0029,1146,1502,1500,1500,1000,1000,1505,1000,1000,1505,1502,1500,1505,-0.6206,-0.4920,0.2879,-0.0450,-0.0084,1.0343,0.4829,0.1897,-0.1966,0.1080,0.4430,0.1806,0.0876,0.4430,0.1806,0.0876,0.3000,0.0600,0.0002,0,-0.3000,-100.0000,-0.0010,-0.3000,-100.0000,-0.0010,25.9923,58.7034,0.0200,0.0000
-23.2748,32.8286,-6.4749,0.0000,-0.0821,0.1200,0.0000,0.0000,0.1460,0.1481,-0.1909,-0.0018,1146,1502,1500,1500,1000,1000,1505,1000,1000,1505,1502,1500,1505,0.8269,0.3810,-0.0786,-0.0058,-0.0363,0.9672,0.4832,0.1906,-0.1948,0.1049,0.4430,0.1806,0.0876,0.4430,0.1806,0.0876,0.3000,0.0600,0.0002,0,-0.3000,-100.0000,-0.0010,-0.3000,-100.0000,-0.0010,26.0375,58.7393,0.0200,0.0000
-23.2364,32.8011,-6.4604,0.0000,-0.0821,0.1200,0.0000,0.0000,0.1460,0.1488,-0.1899,-0.0025,1146,1502,1500,1500,1000,1000,1505,1000,1000,1505,1502,1500,1505,-0.1816,-0.6047,0.1733,-0.0565,-0.0058,1.0406,0.4822,0.1896,-0.1952,0.1073,0.4430,0.1806,0.0876,0.4430,0.1806,0.0876,0.3000,0.0600,0.0002,0,-0.3000,-100.0000,-0.0010,-0.3000,-100.0000,-0.0010,26.0827,58.7753,0.0200,0.0000
-23.2127,32.7631,-6.4400,0.0829,-0.0000,0.1200,0.0000,0.0000,0.1460,0.1485,-0.1903,-0.0021,1146,1502,1500,1500,1000,1000,1505,1000,1000,1505,1502,1500,1505,-0.0148,0.0625,0.0210,-0.0001,-0.0457,0.9639,0.4827,0.1900,-0.1950,0.1063,0.4430,0.1806,0.0876,0.4430,0.1806,0.0876,0.3000,0.0600,0.0002,0,-0.3000,-100.0000,-0.0010,-0.3000,-100.0000,-0.0010,26.1279,58.8112,0.0200,0.0000
-23.1749,32.7375,-6.4259,0.0000,-0.0821,0.1200,0.0000,0.0000,0.1460,0.1478,-0.1902,-0.0026,1148,1504,1501,1501,1000,1000,1505,1000,1000,1505,1502,1500,1505,0.6003,-0.0194,0.2188,-0.0497,0.0030,1.0503,0.4814,0.1910,-0.1946,0.1063,0.4430,0.1806,0.0876,0.4430,0.1806,0.0876,0.3000,0.0600,0.0002,0,-0.3000,-100.0000,-0.0010,-0.3000,-100.0000,-0.0010,26.1731,58.8471,0.0200,0.0000
-23.1513,32.7007,-6.4063,0.0829,-0.0821,0.1200,0.0000,0.0000,0.1460,0.1489,-0.1899,-0.0012,1146,1502,1500,1500,1000,1000,1505,1000,1000,1505,1502,1500,1505,-0.7774,-0.0978,-0.2307,-0.0011,-0.0557,0.9581,0.4836,0.1882,-0.1941,0.1062,0.4430,0.1806,0.0876,0.4430,0.1806,0.0876,0.3000,0.0600,0.0002,0,-0.3000,-100.0000,-0.0010,-0.3000,-100.0000,-0.0010,26.2182,58.8829,0.0200,0.0000
-23.1200,32.6727,-6.3944,0.0829,-0.0000,0.1200,0.0000,0.0000,0.1460,0.1475,-0.1899,-0.0023,1146,1502,1500,1500,1000,1000,1505,1000,1000,1505,1502,1500,1505,0.6622,0.0515,0.0955,-0.0371,-0.0049,1.0491,0.4812,0.1907,-0.1938,0.1059,0.4430,0.1806,0.0876,0.4430,0.1806,0.0876,0.3000,0.0600,0.0002,0,-0.3000,-100.0000,-0.0010,-0.3000,-100.0000,-0.0010,26.2634,58.9187,0.0200,0.0000
-23.0944,32.6374,-6.3730,-0.0829,-0.0821,0.1200,0.0000,0.0000,0.1460,0.1489,-0.1894,-0.0025,1146,1502,1500,1500,1000,1000,1505,1000,1000,1505,1502,1500,1505,-1.0292,-0.3847,0.1992,-0.0053,-0.0467,0.9628,0.4818,0.1890,-0.1948,0.1080,0.4430,0.1806,0.0876,0.4430,0.1806,0.0876,0.3000,0.0600,0.0002,0,-0.3000,-100.0000,-0.0010,-0.3000,-100.0000,-0.0010,26.3087,58.9546,0.0200,0.0000
-23.0646,32.6105,-6.3606,0.0000,-0.0821,0.1200,0.0000,0.0000,0.1460,0.1471,-0.1902,-0.0018,1146,1502,1500,1500,1000,1000,1505,1000,1000,1505,1502,1500,1505,0.8415,0.6735,-0.0855,-0.0413,-0.0100,1.0365,0.4815,0.1909,-0.1931,0.1047,0.4430,0.1806,0.0876,0.4430,0.1806,0.0876,0.3000,0.0600,0.0002,0,-0.3000,-100.0000,-0.0010,-0.3000,-100.0000,-0.0010,26.3540,58.9904,0.0200,0.0000
-23.0371,32.5764,-6.3414,0.0829,-0.0821,0.1200,0.0000,0.0000,0.1460,0.1486,-0.1887,-0.0025,1146,1502,1500,1500,1000,1000,1505,1000,1000,1505,1502,1500,1505,-1.0362,-0.8359,0.1630,-0.0138,-0.0307,0.9696,0.4809,0.1885,-0.1938,0.1084,0.4430,0.1806,0.0876,0.4430,0.1806,0.0876,0.3000,0.0600,0.0002,0,-0.3000,-100.0000,-0.0010,-0.3000,-100.0000,-0.0010,26.3993,59.0263,0.0200,0.0000
-23.0088,32.5469,-6.3271,-0.0829,-0.0821,0.1200,0.0000,0.0000,0.1460,0.1466,-0.1901,-0.0023,1148,1504,1501,1501,1000,1000,1505,1000,1000,1505,1502,1500,1505,1.1004,0.8694,0.1051,-0.0308,-0.0271,1.0241,0.4804,0.1917,-0.1930,0.1048,0.4430,0.1806,0.0876,0.4430,0.1806,0.0876,0.3000,0.0600,0.0002,0,-0.3000,-100.0000,-0.0010,-0.3000,-100.0000,-0.0010,26.4446,59.0621,0.0200,0.0000
-22.9747,32.5170,-6.3074,0.0829,-0.0821,0.1200,0.0000,0.0000,0.1460,0.1479,-0.1884,-0.0030,1146,1502,1500,1500,1000,1000,1505,1000,1000,1505,1502,1500,1505,-0.5416,-0.9714,0.3561,-0.0203,-0.0140,0.9888,0.4792,0.1895,-0.1933,0.1086,0.4430,0.1806,0.0876,0.4430,0.1806,0.0876,0.3000,0.0600,0.0002,0,-0.3000,-100.0000,-0.0010,-0.3000,-100.0000,-0.0010,26.4899,59.0980,0.0200,0.0000
-22.9452,32.4851,-6.2920,0.0829,-0.0821,0.1200,0.0000,0.0000,0.1460,0.1463,-0.1898,-0.0019,1146,1502,1500,1500,1000,1000,1505,1000,1000,1505,1502,1500,1505,1.2084,0.8899,0.0046,-0.0209,-0.0362,1.0159,0.4802,0.1915,-0.1920,0.1043,0.4430,0.1806,0.0876,0.4430,0.1806,0.0876,0.3000,0.0600,0.0002,0,-0.3000,-100.0000,-0.0010,-0.3000,-100.0000,-0.0010,26.5353,59.1338,0.0200,0.0000
-22.9079,32.4553,-6.2748,0.0000,-0.0821,0.1200,0.0000,0.0000,0.1460,0.1475,-0.1881,-0.0031,1146,1502,1500,1500,1000,1000,1505,1000,1000,1505,1502,1500,1505,-0.3350,-0.9926,0.3518,-0.0292,-0.0094,1.0060,0.4784,0.1897,-0.1926,0.1085,0.4430,0.1806,0.0876,0.4430,0.1806,0.0876,0.3000,0.0600,0.0002,0,-0.3000,-100.0000,-0.0010,-0.3000,-100.0000,-0.0010,26.5805,59.1696,0.0200,0.0000
-22.8774,32.4213,-6.2565,0.0829,-0.0821,0.1200,0.0000,0.0000,0.1460,0.1458,-0.1895,-0.0024,1146,1502,1500,1500,1000,1000,1505,1000,1000,1505,1502,1500,1505,1.4225,0.8304,0.1537,-0.0019,-0.0427,0.9968,0.4789,0.1922,-0.1917,0.1047,0.4430,0.1806,0.0876,0.4430,0.1806,0.0876,0.3000,0.0600,0.0002,0,-0.3000,-100.0000,-0.0010,-0.3000,-100.0000,-0.0010,26.6259,59.2054,0.0200,0.0000
-22.8361,32.3956,-6.2416,0.0000,-0.0821,0.1200,0.0000,0.0000,0.1460,0.1469,-0.1880,-0.0021,1146,1502,1500,1500,1000,1000,1505,1000,1000,1505,1502,1500,1505,-0.1127,-0.7270,0.0486,-0.0509,-0.0051,1.0326,0.4789,0.1892,-0.1911,0.1070,0.4430,0.1806,0.0876,0.4430,0.1806,0.0876,0.3000,0.0600,0.0002,0,-0.3000,-100.0000,-0.0010,-0.3000,-100.0000,-0.0010,26.6712,59.2412,0.0200,0.0000
-22.8079,32.3593,-6.2253,0.0000,-0.0821,0.1200,0.0000,0.0000,0.1460,0.1459,-0.1889,-0.0016,1148,1504,1501,1501,1000,1000,1505,1000,1000,1505,1502,1500,1505,0.9792,0.5042,-0.1529,0.0005,-0.0398,0.9680,0.4792,0.1906,-0.1904,0.1045,0.4430,0.1806,0.0876,0.4430,0.1806,0.0876,0.3000,0.0600,0.0002,0,-0.3000,-100.0000,-0.0010,-0.3000,-100.0000,-0.0010,26.7166,59.2769,0.0200,0.0000
-22.7689,32.3326,-6.2123,-0.1657,-0.1642,0.1200,0.0000,0.0000,0.1460,0.1465,-0.1881,-0.0024,1146,1502,1500,1500,1000,1000,1505,1000,1000,1505,1502,1500,1505,0.0528,-0.3735,0.1424,-0.0577,-0.0079,1.0495,0.4782,0.1900,-0.1910,0.1068,0.4430,0.1806,0.0876,0.4430,0.1806,0.0876,0.3000,0.0600,0.0002,0,-0.3000,-100.0000,-0.0010,-0.3000,-100.0000,-0.0010,26.7620,59.3127,0.0200,0.0000
-22.7420,32.2962,-6.1935,0.0829,-0.0821,0.1200,0.0000,0.0000,0.1460,0.1460,-0.1885,-0.0020,1146,1502,1500,1500,1000,1000,1505,1000,1000,1505,1502,1500,1505,0.5046,0.2770,-0.0086,-0.0002,-0.0413,0.9552,0.4785,0.1905,-0.1904,0.1055,0.4430,0.1806,0.0876,0.4430,0.1806,0.0876,0.3000,0.0600,0.0002,0,-0.3000,-100.0000,-0.0010,-0.3000,-100.0000,-0.0010,26.8073,59.3484,0.0200,0.0000
-22.7043,32.2715,-6.1819,-0.0829,-0.1642,0.1200,0.0000,0.0000,0.1460,0.1459,-0.1882,-0.0020,1146,1502,1500,1500,1000,1000,1505,1000,1000,1505,1502,1500,1505,0.4335,0.0700,0.0218,-0.0526,0.0020,1.0639,0.4781,0.1903,-0.1901,0.1057,0.4430,0.1806,0.0876,0.4430,0.1806,0.0876,0.3000,0.0600,0.0002,0,-0.3000,-100.0000,-0.0010,-0.3000,-100.0000,-0.0010,26.8528,59.3842,0.0200,0.0000
-22.6793,32.2339,-6.1638,0.0000,-0.0821,0.1200,0.0000,0.0000,0.1460,0.1463,-0.1877,-0.0019,1146,1502,1500,1500,1000,1000,1505,1000,1000,1505,1502,1500,1505,-0.1877,-0.2265,-0.0445,0.0012,-0.0536,0.9439,0.4782,0.1893,-0.1899,0.1064,0.4430,0.1806,0.0876,0.4430,0.1806,0.0876,0.3000,0.0600,0.0002,0,-0.3000,-100.0000,-0.0010,-0.3000,-100.0000,-0.0010,26.8982,59.4200,0.0200,0.0000
-22.6415,32.2082,-6.1506,-0.0829,-0.0821,0.1200,0.0000,0.0000,0.1460,0.1450,-0.1882,-0.0028,1146,1502,1500,1500,1000,1000,1505,1000,1000,1505,1502,1500,1505,1.1466,0.4307,0.2474,-0.0403,-0.0032,1.0587,0.4764,0.1920,-0.1900,0.1056,0.4430,0.1806,0.0876,0.4430,0.1806,0.0876,0.3000,0.0600,0.0002,0,-0.3000,-100.0000,-0.0010,-0.3000,-100.0000,-0.0010,26.9437,59.4558,0.0200,0.0000
-22.6104,32.1720,-6.1299,0.0000,-0.0821,0.1200,0.0000,0.0000,0.1460,0.1461,-0.1871,-0.0016,1148,1504,1501,1501,1000,1000,1505,1000,1000,1505,1502,1500,1505,-0.2495,-0.6586,-0.0697,-0.0068,-0.0483,0.9476,0.4775,0.1886,-0.1888,0.1066,0.4430,0.1806,0.0876,0.4430,0.1806,0.0876,0.3000,0.0600,0.0002,0,-0.3000,-100.0000,-0.0010,-0.3000,-100.0000,-0.0010,26.9892,59.4916,0.0200,0.0000
-22.5745,32.1442,-6.1194,0.0829,-0.1642,0.1200,0.0000,0.0000,0.1460,0.1444,-0.1882,-0.0018,1146,1502,1500,1500,1000,1000,1505,1000,1000,1505,1502,1500,1505,1.4834,0.7606,-0.0910,-0.0362,-0.0082,1.0395,0.4768,0.1916,-0.1884,0.1040,0.4430,0.1806,0.0876,0.4430,0.1806,0.0876,0.3000,0.0600,0.0002,0,-0.3000,-100.0000,-0.0010,-0.3000,-100.0000,-0.0010,27.0348,59.5273,0.0200,0.0000
-22.5410,32.1085,-6.0995,0.0000,-0.0000,0.1200,0.0000,0.0000,0.1460,0.1460,-0.1865,-0.0027,1146,1502,1500,1500,1000,1000,1505,1000,1000,1505,1502,1500,1505,-0.5148,-1.0405,0.2461,-0.0088,-0.0350,0.9731,0.4758,0.1892,-0.1892,0.1082,0.4430,0.1806,0.0876,0.4430,0.1806,0.0876,0.3000,0.0600,0.0002,0,-0.3000,-100.0000,-0.0010,-0.3000,-100.0000,-0.0010,27.0803,59.5631,0.0200,0.0000
-22.5054,32.0810,-6.0857,0.0000,-0.0821,0.1200,0.0000,0.0000,0.1210,0.1437,-0.1883,-0.0024,1121,1502,1500,1500,1000,1000,1505,1000,1000,1505,1502,1500,1505,1.8997,1.2161,0.1500,-0.0297,-0.0206,1.0267,0.4506,0.1680,-0.2135,0.0788,0.4430,0.1806,0.0876,0.4430,0.1806,0.0876,0.3000,0.0600,0.0002,0,-0.3000,-100.0000,-0.0010,-0.3000,-100.0000,-0.0010,27.1259,59.5989,0.0200,0.0000
-22.4667,32.0506,-6.0654,0.0829,-0.0821,0.1200,0.0000,0.0000,0.1140,0.1456,-0.1862,-0.0032,1114,1502,1500,1500,1000,1000,1505,1000,1000,1505,1502,1500,1505,-0.4588,-1.0524,0.4190,-0.0191,-0.0049,0.9928,0.4426,0.1578,-0.2211,0.0766,0.4430,0.1806,0.0876,0.4430,0.1806,0.0876,0.3000,0.0600,0.0002,0,-0.3000,-100.0000,-0.0010,-0.3000,-100.0000,-0.0010,27.1714,59.6347,0.0200,0.0000
-22.4327,32.0203,-6.0449,0.0000,-0.0000,0.1200,0.0000,0.0000,0.0660,0.1438,-0.1877,-0.0050,1066,1502,1500,1500,1000,1000,1505,1000,1000,1505,1502,1500,1505,1.3938,0.7827,0.9839,-0.0209,-0.0274,1.0025,0.3925,0.1149,-0.2706,0.0272,0.4430,0.1806,0.0876,0.4430,0.1806,0.0876,0.3000,0.0600,0.0002,0,-0.3000,-100.0000,-0.0010,-0.3000,-100.0000,-0.0010,27.2170,59.6704,0.0200,0.0000
-22.3861,31.9957,-6.0094,0.0829,-0.0821,0.1200,0.0000,0.0000,0.0540,0.1452,-0.1408,-0.0091,1016,1504,1501,1501,1000,1000,1505,1000,1000,1505,1502,1500,1505,-0.4343,-1.1176,2.3310,-0.0259,0.0068,1.0035,0.3309,0.0586,-0.2411,0.0676,0.4430,0.1806,0.0876,0.4430,0.1806,0.0876,0.3000,0.0600,0.0002,0,-0.3000,-100.0000,-0.0010,-0.3000,-100.0000,-0.0010,27.2625,59.7060,0.0200,0.0000
-22.3419,31.9741,-5.9625,0.0829,-0.0000,0.1200,0.0000,0.0000,0.0020,0.1433,-0.1423,-0.0129,1001,1502,1500,1500,1000,1000,1505,1000,1000,1505,1502,1500,1505,1.5280,0.7985,3.5354,-0.0104,-0.0428,0.9898,0.2747,0.0139,-0.2966,0.0159,0.4430,0.1806,0.0876,0.4430,0.1806,0.0876,0.3000,0.0600,0.0002,0,-0.3000,-100.0000,-0.0010,-0.3000,-100.0000,-0.0010,27.3081,59.7417,0.0200,0.0000
-22.2752,31.9666,-5.9029,0.0000,-0.0000,0.1200,0.0000,0.0000,0.0000,0.1444,-0.1420,-0.0164,1000,1502,1500,1500,1000,1000,1505,1000,1000,1505,1502,1500,1505,0.0095,0.4358,4.7648,-0.0296,0.0142,1.0236,0.2699,0.0141,-0.3028,0.0188,0.4430,0.1806,0.0876,0.4430,0.1806,0.0876,0.3000,0.0600,0.0002,0,-0.3000,-100.0000,-0.0010,-0.3000,-100.0000,-0.0010,27.3536,59.7773,0.0200,0.0000
-22.2176,31.9606,-5.8338,0.0829,-0.0821,0.1200,0.0000,0.0000,0.0000,0.1431,-0.1423,-0.0168,1000,1502,1500,1500,1000,1000,1505,1000,1000,1505,1502,1500,1505,1.1523,0.8450,4.9312,-0.0231,-0.0593,0.9964,0.2687,0.0160,-0.3022,0.0175,0.4430,0.1806,0.0876,0.4430,0.1806,0.0876,0.3000,0.0600,0.0002,0,-0.3000,-100.0000,-0.0010,-0.3000,-100.0000,-0.0010,27.3993,59.8130,0.0200,0.0000
-22.1474,31.9518,-5.7722,0.0000,-0.0821,0.1200,0.0000,0.0000,0.0000,0.1430,-0.1419,-0.0130,1000,1502,1500,1500,1000,1000,1505,1000,1000,1505,1502,1500,1505,0.9346,0.4120,3.7082,-0.0284,-0.0101,1.0183,0.2718,0.0120,-0.2979,0.0141,0.4430,0.1806,0.0876,0.4430,0.1806,0.0876,0.3000,0.0600,0.0002,0,-0.3000,-100.0000,-0.0010,-0.3000,-100.0000,-0.0010,27.4449,59.8487,0.0200,0.0000
-22.0982,31.9368,-5.7236,0.0000,-0.0821,0.1200,0.0000,0.0000,0.0000,0.1431,-0.1419,-0.0098,1000,1502,1500,1500,1000,1000,1505,1000,1000,1505,1502,1500,1505,0.5909,0.4279,2.6202,-0.0299,-0.0430,1.0012,0.2751,0.0086,-0.2948,0.0110,0.4430,0.1806,0.0876,0.4430,0.1806,0.0876,0.3000,0.0600,0.0002,0,-0.3000,-100.0000,-0.0010,-0.3000,-100.0000,-0.0010,27.4906,59.8844,0.0200,0.0000
-22.0496,31.9108,-5.6875,0.0000,-0.0000,0.1200,0.0000,0.0000,0.0000,0.1427,-0.1409,-0.0045,1000,1504,1501,1501,1000,1000,1505,1000,1000,1505,1502,1500,1505,0.7494,-0.4829,0.8899,-0.0294,-0.0241,1.0132,0.2792,0.0027,-0.2881,0.0063,0.4430,0.1806,0.0876,0.4430,0.1806,0.0876,0.3000,0.0600,0.0002,0,-0.3000,-100.0000,-0.0010,-0.3000,-100.0000,-0.0010,27.5363,59.9201,0.0200,0.0000
-22.0244,31.8754,-5.6753,0.0829,-0.1642,0.1200,0.0000,0.0000,0.0000,0.1435,-0.1412,0.0021,1000,1502,1500,1500,1000,1000,1505,1000,1000,1505,1502,1500,1505,-0.3371,0.0162,-1.3240,-0.0192,-0.0401,0.9951,0.2869,-0.0044,-0.2827,0.0002,0.4430,0.1806,0.0876,0.4430,0.1806,0.0876,0.3000,0.0600,0.0002,0,-0.3000,-100.0000,-0.0010,-0.3000,-100.0000,-0.0010,27.5820,59.9558,0.0200,0.0000
-22.0043,31.8347,-5.6824,0.0000,-0.1642,0.1200,0.0000,0.0000,0.0000,0.1424,-0.1408,0.0051,1000,1502,1500,1500,1000,1000,1505,1000,1000,1505,1502,1500,1505,0.8222,-0.2526,-2.3721,-0.0273,-0.0224,1.0086,0.2883,-0.0067,-0.2782,-0.0035,0.4430,0.1806,0.0876,0.4430,0.1806,0.0876,0.3000,0.0600,0.0002,0,-0.3000,-100.0000,-0.0010,-0.3000,-100.0000,-0.0010,27.6277,59.9915,0.0200,0.0000
-21.9873,31.7926,-5.6992,0.0000,-0.0000,0.1200,0.0000,0.0000,0.0000,0.1425,-0.1413,0.0069,1000,1502,1500,1500,1000,1000,1505,1000,1000,1505,1502,1500,1505,0.6235,0.4763,-2.9927,-0.0116,-0.0301,0.9951,0.2907,-0.0082,-0.2769,-0.0057,0.4430,0.1806,0.0876,0.4430,0.1806,0.0876,0.3000,0.0600,0.0002,0,-0.3000,-100.0000,-0.0010,-0.3000,-100.0000,-0.0010,27.6734,60.0272,0.0200,0.0000
-21.9670,31.7550,-5.7222,-0.1657,-0.1642,0.1200,0.0000,0.0000,0.0000,0.1418,-0.1412,0.0068,1000,1502,1500,1500,1000,1000,1505,1000,1000,1505,1502,1500,1505,1.3243,0.5478,-2.9834,-0.0271,-0.0084,1.0070,0.2898,-0.0075,-0.2762,-0.0061,0.4430,0.1806,0.0876,0.4430,0.1806,0.0876,0.3000,0.0600,0.0002,0,-0.3000,-100.0000,-0.0010,-0.3000,-100.0000,-0.0010,27.7192,60.0629,0.0200,0.0000
-21.9424,31.7183,-5.7395,0.0000,-0.0821,0.1200,0.0000,0.0000,0.0000,0.1417,-0.1410,0.0048,1000,1502,1500,1500,1000,1000,1505,1000,1000,1505,1502,1500,1505,1.3099,0.5376,-2.3156,-0.0263,-0.0088,1.0028,0.2875,-0.0055,-0.2779,-0.0040,0.4430,0.1806,0.0876,0.4430,0.1806,0.0876,0.3000,0.0600,0.0002,0,-0.3000,-100.0000,-0.0010,-0.3000,-100.0000,-0.0010,27.7649,60.0986,0.0200,0.0000
-21.9081,31.6821,-5.7483,-0.1657,-0.1642,0.1200,0.0000,0.0000,0.0000,0.1411,-0.1405,0.0027,1000,1504,1501,1501,1000,1000,1505,1000,1000,1505,1502,1500,1505,1.8256,0.1362,-1.6215,-0.0265,-0.0103,1.0123,0.2844,-0.0034,-0.2789,-0.0021,0.4430,0.1806,0.0876,0.4430,0.1806,0.0876,0.3000,0.0600,0.0002,0,-0.3000,-100.0000,-0.0010,-0.3000,-100.0000,-0.0010,27.8107,60.1343,0.0200,0.0000
-21.8737,31.6463,-5.7473,0.0000,-0.1642,0.1200,0.0000,0.0000,0.0000,0.1420,-0.1402,0.0004,1000,1502,1500,1500,1000,1000,1505,1000,1000,1505,1502,1500,1505,0.6787,-0.0192,-0.8524,-0.0229,-0.0141,1.0091,0.2826,-0.0022,-0.2818,0.0014,0.4430,0.1806,0.0876,0.4430,0.1806,0.0876,0.3000,0.0600,0.0002,0,-0.3000,-100.0000,-0.0010,-0.3000,-100.0000,-0.0010,27.8565,60.1701,0.0200,0.0000
-21.8394,31.6122,-5.7363,0.0000,-0.0821,0.1200,0.0000,0.0000,0.0000,0.1416,-0.1398,-0.0022,1000,1502,1500,1500,1000,1000,1505,1000,1000,1505,1502,1500,1505,0.9331,-0.3101,0.0083,-0.0271,-0.0200,1.0065,0.2792,0.0003,-0.2836,0.0040,0.4430,0.1806,0.0876,0.4430,0.1806,0.0876,0.3000,0.0600,0.0002,0,-0.3000,-100.0000,-0.0010,-0.3000,-100.0000,-0.0010,27.9024,60.2058,0.0200,0.0000
-21.8032,31.5792,-5.7162,0.0000,-0.0821,0.1200,0.0000,0.0000,0.0000,0.1423,-0.1398,-0.0041,1000,1502,1500,1500,1000,1000,1505,1000,1000,1505,1502,1500,1505,-0.0707,-0.1085,0.6597,-0.0177,-0.0134,0.9976,0.2780,0.0016,-0.2862,0.0066,0.4430,0.1806,0.0876,0.4430,0.1806,0.0876,0.3000,0.0600,0.0002,0,-0.3000,-100.0000,-0.0010,-0.3000,-100.0000,-0.0010,27.9483,60.2416,0.0200,0.0000
-21.7732,31.5522,-5.6927,0.0000,-0.0821,0.1200,0.0000,0.0000,0.0000,0.1422,-0.1401,-0.0049,1000,1502,1500,1500,1000,1000,1505,1000,1000,1505,1502,1500,1505,-0.0614,0.3744,0.9518,-0.0273,-0.0253,1.0019,0.2774,0.0028,-0.2872,0.0070,0.4430,0.1806,0.0876,0.4430,0.1806,0.0876,0.3000,0.0600,0.0002,0,-0.3000,-100.0000,-0.0010,-0.3000,-100.0000,-0.0010,27.9942,60.2773,0.0200,0.0000
-21.7380,31.5279,-5.6673,0.0000,-0.0000,0.1200,0.0000,0.0000,0.0000,0.1420,-0.1399,-0.0053,1000,1502,1500,1500,1000,1000,1505,1000,1000,1505,1502,1500,1505,0.0349,0.2885,1.0765,-0.0250,-0.0168,0.9995,0.2766,0.0032,-0.2871,0.0073,0.4430,0.1806,0.0876,0.4430,0.1806,0.0876,0.3000,0.0600,0.0002,0,-0.3000,-100.0000,-0.0010,-0.3000,-100.0000,-0.0010,28.0401,60.3130,0.0200,0.0000
-21.7043,31.5027,-5.6424,0.0000,-0.0821,0.1200,0.0000,0.0000,0.0000,0.1416,-0.1399,-0.0046,1000,1504,1501,1501,1000,1000,1505,1000,1000,1505,1502,1500,1505,0.2113,0.3351,0.8614,-0.0201,-0.0244,1.0038,0.2769,0.0028,-0.2861,0.0064,0.4430,0.1806,0.0876,0.4430,0.1806,0.0876,0.3000,0.0600,0.0002,0,-0.3000,-100.0000,-0.0010,-0.3000,-100.0000,-0.0010,28.0860,60.3486,0.0200,0.0000
-21.6679,31.4755,-5.6221,-0.0829,-0.0000,0.1200,0.0000,0.0000,0.0000,0.1411,-0.1393,-0.0032,1000,1502,1500,1500,1000,1000,1505,1000,1000,1505,1502,1500,1505,0.6428,-0.1201,0.4088,-0.0320,-0.0199,1.0055,0.2772,0.0014,-0.2837,0.0050,0.4430,0.1806,0.0876,0.4430,0.1806,0.0876,0.3000,0.0600,0.0002,0,-0.3000,-100.0000,-0.0010,-0.3000,-100.0000,-0.0010,28.1319,60.3843,0.0200,0.0000
