roll_imu,pitch_imu,yaw_imu,alpha,beta,roll_des,pitch_des,yaw_des,throttle_des,roll_pid,pitch_pid,yaw_pid,radio_ch1,radio_ch2,radio_ch3,radio_ch4,radio_ch5,radio_ch6,radio_ch7,radio_ch8,radio_ch9,radio_ch10,radio_ch11,radio_ch12,radio_ch13,GyroX,GyroY,GyroZ,AccX,AccY,AccZ,s1_command,s2_command,s3_command,s4_command,kp_roll,ki_roll,kd_roll,kp_pitch,ki_pitch,kd_pitch,kp_yaw,ki_yaw,kd_yaw,failsafeTriggered,kp_alphaRoll,ki_alphaRoll,kd_alphaRoll,kp_betaPitch,ki_betaPitch,kd_betaPitch,ripIMU_roll,ripIMU_pitch,ripRoll_des,ripPitch_des
0.0000,0.0000,0.0000,-28.9227,-3.0780,0.0000,0.0000,0.0000,0.0000,0.0000,0.0000,0.0000,1000,1500,1500,1500,2000,1000,1000,1000,1500,1500,1500,1500,1500,0.0000,0.0000,0.0000,0.0000,0.0000,0.0000,0.0000,0.0000,0.0000,0.0000,0.3000,0.0100,0.0700,0.3000,0.0100,0.0700,0.3000,0.0600,0.0002,0,-0.3000,-100.0000,-0.0010,-0.3000,-100.0000,-0.0010,0.0000,0.0000,0.0000,0.0000
-30.1935,-1.7882,0.4653,-0.0829,0.0000,0.0000,-8.0400,-42.8800,0.0000,0.2562,-0.0304,-0.1286,910,1369,1366,1366,2008,1000,1505,1505,1505,1311,1854,1299,1014,-0.0054,-0.0392,-0.0941,0.0559,-0.9158,-0.2233,0.1580,-0.0973,-0.4151,0.3544,0.4866,0.4370,0.1746,0.4866,0.4370,0.1746,0.3000,0.0600,0.0002,0,-0.3000,-100.0000,-0.0010,-0.3000,-100.0000,-0.0010,7.1278,29.7079,-1.3100,-1.3400
-30.2380,-1.7905,0.4663,-0.0829,0.0000,0.0000,-2.3400,-12.4800,0.0000,0.2565,-0.0028,-0.0377,971,1461,1461,1461,2008,1000,1505,1505,1505,1311,1854,1299,1014,-0.0547,0.0546,-0.0513,0.0580,-0.9709,-0.2420,0.2216,-0.2160,-0.2969,0.2914,0.4866,0.4370,0.1746,0.4866,0.4370,0.1746,0.3000,0.0600,0.0002,0,-0.3000,-100.0000,-0.0010,-0.3000,-100.0000,-0.0010,7.1608,29.7508,-0.3800,-0.3900
-30.2834,-1.7933,0.4671,-0.0000,-0.0821,0.0000,-0.7800,-4.1600,0.0000,0.2567,0.0050,-0.0129,991,1490,1487,1487,2008,1000,1505,1505,1505,1311,1854,1299,1014,-0.0291,-0.0457,-0.0551,0.0585,-0.9706,-0.2411,0.2388,-0.2488,-0.2645,0.2745,0.4866,0.4370,0.1746,0.4866,0.4370,0.1746,0.3000,0.0600,0.0002,0,-0.3000,-100.0000,-0.0010,-0.3000,-100.0000,-0.0010,7.1950,29.7938,-0.1000,-0.1300
-30.3282,-1.7963,0.4683,-0.0000,-0.0821,0.0000,-0.1800,-0.9600,0.0000,0.2570,0.0079,-0.0033,996,1500,1497,1497,2008,1000,1505,1505,1505,1311,1854,1299,1014,-0.0961,-0.0230,-0.0425,0.0576,-0.9730,-0.2420,0.2458,-0.2616,-0.2524,0.2682,0.4866,0.4370,0.1746,0.4866,0.4370,0.1746,0.3000,0.0600,0.0002,0,-0.3000,-100.0000,-0.0010,-0.3000,-100.0000,-0.0010,7.2293,29.8367,0.0000,-0.0300
-30.3733,-1.7994,0.4690,-0.0000,-0.0821,0.0000,0.0000,0.0000,0.0000,0.2571,0.0088,-0.0003,996,1502,1500,1500,2008,1000,1505,1505,1505,1311,1854,1299,1014,-0.0153,-0.0347,-0.0994,0.0601,-0.9720,-0.2433,0.2480,-0.2656,-0.2485,0.2662,0.4866,0.4370,0.1746,0.4866,0.4370,0.1746,0.3000,0.0600,0.0002,0,-0.3000,-100.0000,-0.0010,-0.3000,-100.0000,-0.0010,7.2637,29.8797,0.0200,0.0000
-30.4181,-1.8029,0.4702,-0.0000,-0.0821,0.0000,0.0000,0.0000,0.0000,0.2574,0.0090,-0.0003,996,1502,1500,1500,2008,1000,1505,1505,1505,1311,1854,1299,1014,-0.0625,-0.1230,-0.0633,0.0610,-0.9706,-0.2371,0.2481,-0.2660,-0.2487,0.2667,0.4866,0.4370,0.1746,0.4866,0.4370,0.1746,0.3000,0.0600,0.0002,0,-0.3000,-100.0000,-0.0010,-0.3000,-100.0000,-0.0010,7.2980,29.9226,0.0200,0.0000
-30.4630,-1.8062,0.4718,-0.0000,-0.0821,0.0000,0.0000,0.0000,0.0000,0.2575,0.0089,-0.0004,998,1504,1501,1501,2008,1000,1505,1505,1505,1311,1854,1299,1014,0.0074,-0.0774,-0.0267,0.0592,-0.9710,-0.2432,0.2481,-0.2660,-0.2490,0.2668,0.4866,0.4370,0.1746,0.4866,0.4370,0.1746,0.3000,0.0600,0.0002,0,-0.3000,-100.0000,-0.0010,-0.3000,-100.0000,-0.0010,7.3323,29.9656,0.0200,0.0000
-30.5071,-1.8091,0.4728,-0.0000,0.0000,0.0000,0.0000,0.0000,0.0000,0.2575,0.0087,-0.0005,996,1502,1500,1500,2008,1000,1505,1505,1505,1311,1854,1299,1014,0.0848,0.0493,-0.0375,0.0608,-0.9745,-0.2375,0.2484,-0.2658,-0.2493,0.2667,0.4866,0.4370,0.1746,0.4866,0.4370,0.1746,0.3000,0.0600,0.0002,0,-0.3000,-100.0000,-0.0010,-0.3000,-100.0000,-0.0010,7.3667,30.0085,0.0200,0.0000
-30.5509,-1.8118,0.4744,-0.0000,-0.0821,0.0000,0.0000,0.0000,0.0000,0.2578,0.0089,-0.0004,996,1502,1500,1500,2008,1000,1505,1505,1505,1311,1854,1299,1014,0.0644,-0.0754,-0.0396,0.0582,-0.9716,-0.2361,0.2485,-0.2664,-0.2492,0.2671,0.4866,0.4370,0.1746,0.4866,0.4370,0.1746,0.3000,0.0600,0.0002,0,-0.3000,-100.0000,-0.0010,-0.3000,-100.0000,-0.0010,7.4010,30.0513,0.0200,0.0000
-30.5953,-1.8146,0.4756,-0.0000,-0.1642,0.0000,0.0000,0.0000,0.0000,0.2581,0.0088,-0.0004,996,1502,1500,1500,2008,1000,1505,1505,1505,1311,1854,1299,1014,0.0396,0.0150,-0.0537,0.0595,-0.9737,-0.2378,0.2489,-0.2665,-0.2496,0.2672,0.4866,0.4370,0.1746,0.4866,0.4370,0.1746,0.3000,0.0600,0.0002,0,-0.3000,-100.0000,-0.0010,-0.3000,-100.0000,-0.0010,7.4354,30.0941,0.0200,0.0000
-30.6395,-1.8176,0.4765,-0.0000,0.0000,0.0000,0.0000,0.0000,0.0000,0.2583,0.0090,-0.0002,996,1502,1500,1500,2008,1000,1505,1505,1505,1311,1854,1299,1014,0.0040,-0.0685,-0.0994,0.0594,-0.9722,-0.2406,0.2492,-0.2671,-0.2496,0.2675,0.4866,0.4370,0.1746,0.4866,0.4370,0.1746,0.3000,0.0600,0.0002,0,-0.3000,-100.0000,-0.0010,-0.3000,-100.0000,-0.0010,7.4697,30.1369,0.0200,0.0000
-30.6841,-1.8205,0.4776,-0.0000,-0.0821,0.0000,0.0000,0.0000,0.0000,0.2586,0.0088,-0.0005,996,1502,1500,1500,2008,1000,1505,1505,1505,1311,1854,1299,1014,-0.0478,0.0218,-0.0156,0.0592,-0.9712,-0.2397,0.2493,-0.2670,-0.2503,0.2679,0.4866,0.4370,0.1746,0.4866,0.4370,0.1746,0.3000,0.0600,0.0002,0,-0.3000,-100.0000,-0.0010,-0.3000,-100.0000,-0.0010,7.5041,30.1797,0.0200,0.0000
-30.7289,-1.8230,0.4783,-0.0000,0.0821,0.0000,0.0000,0.0000,0.0000,0.2588,0.0090,-0.0004,998,1504,1501,1501,2008,1000,1505,1505,1505,1311,1854,1299,1014,0.0117,-0.0539,-0.0669,0.0577,-0.9703,-0.2434,0.2494,-0.2674,-0.2501,0.2681,0.4866,0.4370,0.1746,0.4866,0.4370,0.1746,0.3000,0.0600,0.0002,0,-0.3000,-100.0000,-0.0010,-0.3000,-100.0000,-0.0010,7.5385,30.2225,0.0200,0.0000
-30.7737,-1.8255,0.4794,-0.0000,-0.0821,0.0000,0.0000,0.0000,0.0000,0.2590,0.0089,-0.0007,996,1502,1500,1500,2008,1000,1505,1505,1505,1311,1854,1299,1014,-0.0109,-0.0320,0.0425,0.0614,-0.9695,-0.2381,0.2494,-0.2673,-0.2507,0.2686,0.4866,0.4370,0.1746,0.4866,0.4370,0.1746,0.3000,0.0600,0.0002,0,-0.3000,-100.0000,-0.0010,-0.3000,-100.0000,-0.0010,7.5728,30.2653,0.0200,0.0000
-30.8185,-1.8283,0.4809,-0.0000,-0.0821,0.0000,0.0000,0.0000,0.0000,0.2593,0.0090,-0.0005,996,1502,1500,1500,2008,1000,1505,1505,1505,1311,1854,1299,1014,-0.0386,-0.0858,-0.0238,0.0599,-0.9701,-0.2453,0.2497,-0.2678,-0.2507,0.2688,0.4866,0.4370,0.1746,0.4866,0.4370,0.1746,0.3000,0.0600,0.0002,0,-0.3000,-100.0000,-0.0010,-0.3000,-100.0000,-0.0010,7.6072,30.3080,0.0200,0.0000
-30.8629,-1.8315,0.4820,-0.0829,-0.0821,0.0000,0.0000,0.0000,0.0000,0.2595,0.0091,-0.0004,996,1502,1500,1500,2008,1000,1505,1505,1505,1311,1854,1299,1014,-0.0171,-0.0809,-0.0375,0.0598,-0.9692,-0.2405,0.2500,-0.2681,-0.2509,0.2690,0.4866,0.4370,0.1746,0.4866,0.4370,0.1746,0.3000,0.0600,0.0002,0,-0.3000,-100.0000,-0.0010,-0.3000,-100.0000,-0.0010,7.6416,30.3508,0.0200,0.0000
-30.9073,-1.8349,0.4832,-0.0000,-0.0821,0.0000,0.0000,0.0000,0.0000,0.2597,0.0090,-0.0002,996,1502,1500,1500,2008,1000,1505,1505,1505,1311,1854,1299,1014,-0.0053,-0.0635,-0.1122,0.0597,-0.9721,-0.2404,0.2505,-0.2685,-0.2508,0.2688,0.4866,0.4370,0.1746,0.4866,0.4370,0.1746,0.3000,0.0600,0.0002,0,-0.3000,-100.0000,-0.0010,-0.3000,-100.0000,-0.0010,7.6760,30.3936,0.0200,0.0000
-30.9518,-1.8385,0.4841,-0.0829,-0.0821,0.0000,0.0000,0.0000,0.0000,0.2599,0.0090,-0.0002,996,1502,1500,1500,2008,1000,1505,1505,1505,1311,1854,1299,1014,-0.0000,-0.0140,-0.0929,0.0600,-0.9713,-0.2415,0.2507,-0.2686,-0.2511,0.2691,0.4866,0.4370,0.1746,0.4866,0.4370,0.1746,0.3000,0.0600,0.0002,0,-0.3000,-100.0000,-0.0010,-0.3000,-100.0000,-0.0010,7.7103,30.4363,0.0200,0.0000
-30.9962,-1.8416,0.4851,-0.0000,-0.0821,0.0000,0.0000,0.0000,0.0000,0.2602,0.0090,-0.0005,998,1504,1501,1501,2008,1000,1505,1505,1505,1311,1854,1299,1014,-0.0415,-0.0167,-0.0031,0.0595,-0.9721,-0.2409,0.2506,-0.2686,-0.2517,0.2697,0.4866,0.4370,0.1746,0.4866,0.4370,0.1746,0.3000,0.0600,0.0002,0,-0.3000,-100.0000,-0.0010,-0.3000,-100.0000,-0.0010,7.7447,30.4790,0.0200,0.0000
-31.0409,-1.8442,0.4863,-0.0829,0.0000,0.0000,0.0000,0.0000,0.0000,0.2603,0.0090,-0.0004,996,1502,1500,1500,2008,1000,1505,1505,1505,1311,1854,1299,1014,0.0056,-0.0233,-0.0278,0.0586,-0.9716,-0.2370,0.2508,-0.2689,-0.2517,0.2697,0.4866,0.4370,0.1746,0.4866,0.4370,0.1746,0.3000,0.0600,0.0002,0,-0.3000,-100.0000,-0.0010,-0.3000,-100.0000,-0.0010,7.7791,30.5217,0.0200,0.0000
-31.0851,-1.8466,0.4876,-0.0000,-0.0821,0.0000,0.0000,0.0000,0.0000,0.2604,0.0090,-0.0005,996,1502,1500,1500,2008,1000,1505,1505,1505,1311,1854,1299,1014,0.0409,-0.0166,-0.0166,0.0605,-0.9685,-0.2389,0.2509,-0.2689,-0.2519,0.2700,0.4866,0.4370,0.1746,0.4866,0.4370,0.1746,0.3000,0.0600,0.0002,0,-0.3000,-100.0000,-0.0010,-0.3000,-100.0000,-0.0010,7.8135,30.5644,0.0200,0.0000
-31.1290,-1.8498,0.4895,-0.0000,-0.0821,0.0000,0.0000,0.0000,0.0000,0.2606,0.0092,-0.0006,996,1502,1500,1500,2008,1000,1505,1505,1505,1311,1854,1299,1014,0.0790,-0.1034,0.0114,0.0591,-0.9685,-0.2405,0.2509,-0.2692,-0.2520,0.2703,0.4866,0.4370,0.1746,0.4866,0.4370,0.1746,0.3000,0.0600,0.0002,0,-0.3000,-100.0000,-0.0010,-0.3000,-100.0000,-0.0010,7.8479,30.6071,0.0200,0.0000
-31.1728,-1.8525,0.4911,-0.0000,-0.0821,0.0000,0.0000,0.0000,0.0000,0.2608,0.0091,-0.0005,996,1502,1500,1500,2008,1000,1505,1505,1505,1311,1854,1299,1014,0.0907,-0.0608,-0.0035,0.0571,-0.9681,-0.2406,0.2512,-0.2694,-0.2522,0.2704,0.4866,0.4370,0.1746,0.4866,0.4370,0.1746,0.3000,0.0600,0.0002,0,-0.3000,-100.0000,-0.0010,-0.3000,-100.0000,-0.0010,7.8824,30.6498,0.0200,0.0000
-31.2164,-1.8553,0.4923,-0.0829,0.0000,0.0000,0.0000,0.0000,0.0000,0.2610,0.0091,-0.0004,996,1502,1500,1500,2008,1000,1505,1505,1505,1311,1854,1299,1014,0.0722,-0.0568,-0.0291,0.0578,-0.9725,-0.2406,0.2515,-0.2697,-0.2523,0.2706,0.4866,0.4370,0.1746,0.4866,0.4370,0.1746,0.3000,0.0600,0.0002,0,-0.3000,-100.0000,-0.0010,-0.3000,-100.0000,-0.0010,7.9168,30.6925,0.0200,0.0000
-31.2604,-1.8584,0.4937,-0.0000,-0.0821,0.0000,0.0000,0.0000,0.0000,0.2614,0.0093,-0.0003,998,1504,1501,1501,2008,1000,1505,1505,1505,1311,1854,1299,1014,-0.0164,-0.1399,-0.0703,0.0610,-0.9722,-0.2367,0.2518,-0.2704,-0.2524,0.2710,0.4866,0.4370,0.1746,0.4866,0.4370,0.1746,0.3000,0.0600,0.0002,0,-0.3000,-100.0000,-0.0010,-0.3000,-100.0000,-0.0010,7.9512,30.7352,0.0200,0.0000
-31.3055,-1.8616,0.4947,-0.0000,-0.0821,0.0000,0.0000,0.0000,0.0000,0.2618,0.0090,-0.0002,996,1502,1500,1500,2008,1000,1505,1505,1505,1311,1854,1299,1014,-0.1010,0.0271,-0.1145,0.0579,-0.9722,-0.2383,0.2526,-0.2706,-0.2529,0.2709,0.4866,0.4370,0.1746,0.4866,0.4370,0.1746,0.3000,0.0600,0.0002,0,-0.3000,-100.0000,-0.0010,-0.3000,-100.0000,-0.0010,7.9856,30.7779,0.0200,0.0000
-31.3506,-1.8644,0.4958,-0.0000,-0.1642,0.0000,0.0000,0.0000,0.0000,0.2619,0.0093,-0.0005,996,1502,1500,1500,2008,1000,1505,1505,1505,1311,1854,1299,1014,-0.0430,-0.1031,-0.0302,0.0568,-0.9700,-0.2383,0.2522,-0.2707,-0.2531,0.2716,0.4866,0.4370,0.1746,0.4866,0.4370,0.1746,0.3000,0.0600,0.0002,0,-0.3000,-100.0000,-0.0010,-0.3000,-100.0000,-0.0010,8.0201,30.8205,0.0200,0.0000
-31.3953,-1.8673,0.4976,-0.0000,-0.0821,0.0000,0.0000,0.0000,0.0000,0.2620,0.0092,-0.0005,996,1502,1500,1500,2008,1000,1505,1505,1505,1311,1854,1299,1014,-0.0067,-0.0599,-0.0076,0.0553,-0.9688,-0.2401,0.2523,-0.2707,-0.2533,0.2717,0.4866,0.4370,0.1746,0.4866,0.4370,0.1746,0.3000,0.0600,0.0002,0,-0.3000,-100.0000,-0.0010,-0.3000,-100.0000,-0.0010,8.0545,30.8631,0.0200,0.0000
-31.4398,-1.8699,0.4987,-0.0000,0.0000,0.0000,0.0000,0.0000,0.0000,0.2623,0.0091,-0.0004,996,1502,1500,1500,2008,1000,1505,1505,1505,1311,1854,1299,1014,-0.0265,-0.0260,-0.0673,0.0567,-0.9717,-0.2379,0.2528,-0.2711,-0.2535,0.2718,0.4866,0.4370,0.1746,0.4866,0.4370,0.1746,0.3000,0.0600,0.0002,0,-0.3000,-100.0000,-0.0010,-0.3000,-100.0000,-0.0010,8.0889,30.9057,0.0200,0.0000
-31.4836,-1.8723,0.5003,-0.0829,-0.0821,0.0000,0.0000,0.0000,0.0000,0.2623,0.0092,-0.0005,996,1502,1500,1500,2008,1000,1505,1505,1505,1311,1854,1299,1014,0.0833,-0.0654,-0.0116,0.0591,-0.9716,-0.2431,0.2526,-0.2711,-0.2535,0.2720,0.4866,0.4370,0.1746,0.4866,0.4370,0.1746,0.3000,0.0600,0.0002,0,-0.3000,-100.0000,-0.0010,-0.3000,-100.0000,-0.0010,8.1234,30.9483,0.0200,0.0000
-31.5275,-1.8752,0.5020,-0.0000,-0.0821,0.0000,0.0000,0.0000,0.0000,0.2626,0.0092,-0.0004,998,1504,1501,1501,2008,1000,1505,1505,1505,1311,1854,1299,1014,0.0502,-0.0519,-0.0403,0.0564,-0.9704,-0.2409,0.2529,-0.2714,-0.2538,0.2722,0.4866,0.4370,0.1746,0.4866,0.4370,0.1746,0.3000,0.0600,0.0002,0,-0.3000,-100.0000,-0.0010,-0.3000,-100.0000,-0.0010,8.1579,30.9910,0.0200,0.0000
-31.5714,-1.8780,0.5033,-0.0000,0.0000,0.0000,0.0000,0.0000,0.0000,0.2628,0.0093,-0.0003,996,1502,1500,1500,2008,1000,1505,1505,1505,1311,1854,1299,1014,0.0642,-0.0758,-0.0766,0.0617,-0.9700,-0.2385,0.2532,-0.2717,-0.2538,0.2724,0.4866,0.4370,0.1746,0.4866,0.4370,0.1746,0.3000,0.0600,0.0002,0,-0.3000,-100.0000,-0.0010,-0.3000,-100.0000,-0.0010,8.1923,31.0336,0.0200,0.0000
-31.6157,-1.8804,0.5043,-0.0000,0.0000,0.0000,0.0000,0.0000,0.0000,0.2631,0.0092,-0.0004,996,1502,1500,1500,2008,1000,1505,1505,1505,1311,1854,1299,1014,-0.0326,-0.0093,-0.0473,0.0594,-0.9712,-0.2353,0.2536,-0.2719,-0.2544,0.2727,0.4866,0.4370,0.1746,0.4866,0.4370,0.1746,0.3000,0.0600,0.0002,0,-0.3000,-100.0000,-0.0010,-0.3000,-100.0000,-0.0010,8.2268,31.0762,0.0200,0.0000
-31.6604,-1.8838,0.5052,-0.0000,0.0000,0.0000,0.0000,0.0000,0.0000,0.2634,0.0092,-0.0001,996,1502,1500,1500,2008,1000,1505,1505,1505,1311,1854,1299,1014,-0.0238,-0.0168,-0.1474,0.0575,-0.9700,-0.2389,0.2541,-0.2724,-0.2543,0.2726,0.4866,0.4370,0.1746,0.4866,0.4370,0.1746,0.3000,0.0600,0.0002,0,-0.3000,-100.0000,-0.0010,-0.3000,-100.0000,-0.0010,8.2613,31.1189,0.0200,0.0000
-31.7047,-1.8865,0.5063,-0.0829,-0.0821,0.0000,0.0000,0.0000,0.0000,0.2635,0.0092,-0.0006,996,1502,1500,1500,2008,1000,1505,1505,1505,1311,1854,1299,1014,-0.0005,-0.0214,-0.0065,0.0581,-0.9716,-0.2456,0.2538,-0.2722,-0.2549,0.2733,0.4866,0.4370,0.1746,0.4866,0.4370,0.1746,0.3000,0.0600,0.0002,0,-0.3000,-100.0000,-0.0010,-0.3000,-100.0000,-0.0010,8.2958,31.1615,0.0200,0.0000
-31.7490,-1.8892,0.5082,-0.0000,0.0000,0.0000,0.0000,0.0000,0.0000,0.2637,0.0093,-0.0003,996,1502,1500,1500,2008,1000,1505,1505,1505,1311,1854,1299,1014,0.0117,-0.0638,-0.0487,0.0593,-0.9682,-0.2384,0.2541,-0.2727,-0.2548,0.2734,0.4866,0.4370,0.1746,0.4866,0.4370,0.1746,0.3000,0.0600,0.0002,0,-0.3000,-100.0000,-0.0010,-0.3000,-100.0000,-0.0010,8.3302,31.2041,0.0200,0.0000
-31.7937,-1.8926,0.5094,-0.0000,-0.0821,0.0000,0.0000,0.0000,0.0000,0.2639,0.0093,-0.0005,998,1504,1501,1501,2008,1000,1505,1505,1505,1311,1854,1299,1014,0.0284,-0.0252,-0.0174,0.0601,-0.9729,-0.2383,0.2541,-0.2726,-0.2552,0.2737,0.4866,0.4370,0.1746,0.4866,0.4370,0.1746,0.3000,0.0600,0.0002,0,-0.3000,-100.0000,-0.0010,-0.3000,-100.0000,-0.0010,8.3647,31.2467,0.0200,0.0000
-31.8377,-1.8952,0.5108,-0.0829,-0.0821,0.0000,0.0000,0.0000,0.0000,0.2642,0.0094,-0.0005,996,1502,1500,1500,2008,1000,1505,1505,1505,1311,1854,1299,1014,-0.0145,-0.0738,-0.0268,0.0593,-0.9717,-0.2420,0.2543,-0.2730,-0.2553,0.2740,0.4866,0.4370,0.1746,0.4866,0.4370,0.1746,0.3000,0.0600,0.0002,0,-0.3000,-100.0000,-0.0010,-0.3000,-100.0000,-0.0010,8.3992,31.2892,0.0200,0.0000
-31.8820,-1.8975,0.5119,-0.0000,-0.0821,0.0000,0.0000,0.0000,0.0000,0.2644,0.0092,-0.0001,996,1502,1500,1500,2008,1000,1505,1505,1505,1311,1854,1299,1014,0.0127,0.0003,-0.1393,0.0592,-0.9730,-0.2367,0.2550,-0.2735,-0.2552,0.2737,0.4866,0.4370,0.1746,0.4866,0.4370,0.1746,0.3000,0.0600,0.0002,0,-0.3000,-100.0000,-0.0010,-0.3000,-100.0000,-0.0010,8.4337,31.3318,0.0200,0.0000
-31.9264,-1.9001,0.5121,0.0829,-0.1642,0.0000,0.0000,0.0000,0.0000,0.2646,0.0092,-0.0001,996,1502,1500,1500,2008,1000,1505,1505,1505,1311,1854,1299,1014,0.0043,0.0261,-0.1332,0.0562,-0.9751,-0.2378,0.2553,-0.2737,-0.2555,0.2739,0.4866,0.4370,0.1746,0.4866,0.4370,0.1746,0.3000,0.0600,0.0002,0,-0.3000,-100.0000,-0.0010,-0.3000,-100.0000,-0.0010,8.4682,31.3743,0.0200,0.0000
-31.9709,-1.9029,0.5134,-0.0000,-0.0821,0.0000,0.0000,0.0000,0.0000,0.2648,0.0093,-0.0004,996,1502,1500,1500,2008,1000,1505,1505,1505,1311,1854,1299,1014,-0.0001,-0.0333,-0.0584,0.0579,-0.9696,-0.2385,0.2552,-0.2738,-0.2559,0.2745,0.4866,0.4370,0.1746,0.4866,0.4370,0.1746,0.3000,0.0600,0.0002,0,-0.3000,-100.0000,-0.0010,-0.3000,-100.0000,-0.0010,8.5027,31.4168,0.0200,0.0000
-32.0145,-1.9054,0.5143,-0.0000,-0.0821,0.0000,0.0000,0.0000,0.0000,0.2649,0.0094,-0.0004,996,1502,1500,1500,2008,1000,1505,1505,1505,1311,1854,1299,1014,0.1017,-0.0543,-0.0209,0.0599,-0.9693,-0.2387,0.2551,-0.2738,-0.2559,0.2747,0.4866,0.4370,0.1746,0.4866,0.4370,0.1746,0.3000,0.0600,0.0002,0,-0.3000,-100.0000,-0.0010,-0.3000,-100.0000,-0.0010,8.5372,31.4593,0.0200,0.0000
-32.0583,-1.9082,0.5158,-0.0829,-0.0821,0.0000,0.0000,0.0000,0.0000,0.2652,0.0095,-0.0006,998,1504,1501,1501,2008,1000,1505,1505,1505,1311,1854,1299,1014,0.0248,-0.0976,0.0202,0.0594,-0.9709,-0.2376,0.2552,-0.2741,-0.2563,0.2752,0.4866,0.4370,0.1746,0.4866,0.4370,0.1746,0.3000,0.0600,0.0002,0,-0.3000,-100.0000,-0.0010,-0.3000,-100.0000,-0.0010,8.5717,31.5018,0.0200,0.0000
-32.1025,-1.9114,0.5176,-0.0000,-0.0821,0.0000,0.0000,0.0000,0.0000,0.2655,0.0095,-0.0005,996,1502,1500,1500,2008,1000,1505,1505,1505,1311,1854,1299,1014,-0.0150,-0.0856,-0.0272,0.0583,-0.9692,-0.2390,0.2556,-0.2745,-0.2565,0.2754,0.4866,0.4370,0.1746,0.4866,0.4370,0.1746,0.3000,0.0600,0.0002,0,-0.3000,-100.0000,-0.0010,-0.3000,-100.0000,-0.0010,8.6063,31.5443,0.0200,0.0000
-32.1463,-1.9150,0.5193,-0.0000,-0.0821,0.0000,0.0000,0.0000,0.0000,0.2656,0.0095,-0.0003,996,1502,1500,1500,2008,1000,1505,1505,1505,1311,1854,1299,1014,0.0458,-0.1199,-0.0709,0.0578,-0.9736,-0.2397,0.2558,-0.2749,-0.2563,0.2754,0.4866,0.4370,0.1746,0.4866,0.4370,0.1746,0.3000,0.0600,0.0002,0,-0.3000,-100.0000,-0.0010,-0.3000,-100.0000,-0.0010,8.6408,31.5868,0.0200,0.0000
-32.1905,-1.9178,0.5211,-0.0000,-0.0821,0.0000,0.0000,0.0000,0.0000,0.2659,0.0094,-0.0005,996,1502,1500,1500,2008,1000,1505,1505,1505,1311,1854,1299,1014,0.0055,-0.0441,0.0141,0.0577,-0.9712,-0.2372,0.2559,-0.2748,-0.2570,0.2758,0.4866,0.4370,0.1746,0.4866,0.4370,0.1746,0.3000,0.0600,0.0002,0,-0.3000,-100.0000,-0.0010,-0.3000,-100.0000,-0.0010,8.6753,31.6293,0.0200,0.0000
-32.2348,-1.9198,0.5227,-0.0829,0.0000,0.0000,0.0000,0.0000,0.0000,0.2660,0.0093,-0.0004,996,1502,1500,1500,2008,1000,1505,1505,1505,1311,1854,1299,1014,0.0394,0.0162,-0.0261,0.0562,-0.9692,-0.2435,0.2563,-0.2749,-0.2571,0.2758,0.4866,0.4370,0.1746,0.4866,0.4370,0.1746,0.3000,0.0600,0.0002,0,-0.3000,-100.0000,-0.0010,-0.3000,-100.0000,-0.0010,8.7098,31.6717,0.0200,0.0000
-32.2788,-1.9225,0.5239,-0.0829,-0.0821,0.0000,0.0000,0.0000,0.0000,0.2662,0.0094,-0.0003,996,1502,1500,1500,2008,1000,1505,1505,1505,1311,1854,1299,1014,0.0440,-0.0428,-0.0586,0.0588,-0.9712,-0.2414,0.2565,-0.2753,-0.2571,0.2760,0.4866,0.4370,0.1746,0.4866,0.4370,0.1746,0.3000,0.0600,0.0002,0,-0.3000,-100.0000,-0.0010,-0.3000,-100.0000,-0.0010,8.7444,31.7142,0.0200,0.0000
-32.3232,-1.9251,0.5252,-0.0000,-0.0821,0.0000,0.0000,0.0000,0.0000,0.2666,0.0094,-0.0003,998,1504,1501,1501,2008,1000,1505,1505,1505,1311,1854,1299,1014,-0.0236,-0.0386,-0.0873,0.0603,-0.9738,-0.2378,0.2569,-0.2757,-0.2574,0.2763,0.4866,0.4370,0.1746,0.4866,0.4370,0.1746,0.3000,0.0600,0.0002,0,-0.3000,-100.0000,-0.0010,-0.3000,-100.0000,-0.0010,8.7789,31.7566,0.0200,0.0000
-32.3676,-1.9277,0.5266,-0.0000,-0.0821,0.0000,0.0000,0.0000,0.0000,0.2667,0.0094,-0.0005,996,1502,1500,1500,2008,1000,1505,1505,1505,1311,1854,1299,1014,0.0314,0.0115,-0.0131,0.0605,-0.9706,-0.2420,0.2569,-0.2756,-0.2578,0.2765,0.4866,0.4370,0.1746,0.4866,0.4370,0.1746,0.3000,0.0600,0.0002,0,-0.3000,-100.0000,-0.0010,-0.3000,-100.0000,-0.0010,8.8135,31.7990,0.0200,0.0000
-32.4111,-1.9306,0.5282,0.0829,-0.1642,0.0000,0.0000,0.0000,0.0000,0.2669,0.0095,-0.0003,996,1502,1500,1500,2008,1000,1505,1505,1505,1311,1854,1299,1014,0.0572,-0.0631,-0.0641,0.0589,-0.9709,-0.2419,0.2570,-0.2761,-0.2577,0.2767,0.4866,0.4370,0.1746,0.4866,0.4370,0.1746,0.3000,0.0600,0.0002,0,-0.3000,-100.0000,-0.0010,-0.3000,-100.0000,-0.0010,8.8480,31.8415,0.0200,0.0000
-32.4546,-1.9342,0.5297,-0.0829,-0.0821,0.0000,0.0000,0.0000,0.0000,0.2671,0.0097,-0.0002,996,1502,1500,1500,2008,1000,1505,1505,1505,1311,1854,1299,1014,0.0206,-0.1519,-0.1044,0.0581,-0.9717,-0.2457,0.2573,-0.2766,-0.2576,0.2770,0.4866,0.4370,0.1746,0.4866,0.4370,0.1746,0.3000,0.0600,0.0002,0,-0.3000,-100.0000,-0.0010,-0.3000,-100.0000,-0.0010,8.8826,31.8839,0.0200,0.0000
-32.4985,-1.9375,0.5310,-0.0829,0.0000,0.0000,0.0000,0.0000,0.0000,0.2673,0.0095,-0.0005,996,1502,1500,1500,2008,1000,1505,1505,1505,1311,1854,1299,1014,0.0624,-0.0618,-0.0174,0.0600,-0.9717,-0.2342,0.2573,-0.2763,-0.2582,0.2773,0.4866,0.4370,0.1746,0.4866,0.4370,0.1746,0.3000,0.0600,0.0002,0,-0.3000,-100.0000,-0.0010,-0.3000,-100.0000,-0.0010,8.9171,31.9262,0.0200,0.0000
-32.5430,-1.9399,0.5323,-0.0000,-0.0821,0.0000,0.0000,0.0000,0.0000,0.2677,0.0093,-0.0004,996,1502,1500,1500,2008,1000,1505,1505,1505,1311,1854,1299,1014,-0.0318,0.0821,-0.0265,0.0594,-0.9725,-0.2417,0.2580,-0.2765,-0.2588,0.2774,0.4866,0.4370,0.1746,0.4866,0.4370,0.1746,0.3000,0.0600,0.0002,0,-0.3000,-100.0000,-0.0010,-0.3000,-100.0000,-0.0010,8.9517,31.9686,0.0200,0.0000
-32.5877,-1.9424,0.5333,-0.0829,0.0000,0.0000,0.0000,0.0000,0.0000,0.2679,0.0095,-0.0005,998,1504,1501,1501,2008,1000,1505,1505,1505,1311,1854,1299,1014,-0.0323,-0.0159,-0.0254,0.0583,-0.9725,-0.2415,0.2579,-0.2769,-0.2589,0.2778,0.4866,0.4370,0.1746,0.4866,0.4370,0.1746,0.3000,0.0600,0.0002,0,-0.3000,-100.0000,-0.0010,-0.3000,-100.0000,-0.0010,8.9863,32.0109,0.0200,0.0000
-32.6323,-1.9456,0.5349,-0.0000,-0.0821,0.0000,0.0000,0.0000,0.0000,0.2681,0.0096,-0.0003,996,1502,1500,1500,2008,1000,1505,1505,1505,1311,1854,1299,1014,-0.0538,-0.0868,-0.0749,0.0591,-0.9726,-0.2389,0.2582,-0.2775,-0.2588,0.2780,0.4866,0.4370,0.1746,0.4866,0.4370,0.1746,0.3000,0.0600,0.0002,0,-0.3000,-100.0000,-0.0010,-0.3000,-100.0000,-0.0010,9.0208,32.0532,0.0200,0.0000
-32.6770,-1.9485,0.5368,-0.0000,-0.0821,0.0000,0.0000,0.0000,0.0000,0.2682,0.0096,-0.0005,996,1502,1500,1500,2008,1000,1505,1505,1505,1311,1854,1299,1014,0.0564,-0.0536,-0.0033,0.0568,-0.9712,-0.2383,0.2581,-0.2773,-0.2591,0.2782,0.4866,0.4370,0.1746,0.4866,0.4370,0.1746,0.3000,0.0600,0.0002,0,-0.3000,-100.0000,-0.0010,-0.3000,-100.0000,-0.0010,9.0554,32.0955,0.0200,0.0000
-32.7210,-1.9515,0.5384,-0.0829,-0.0821,0.0000,0.0000,0.0000,0.0000,0.2684,0.0096,-0.0003,996,1502,1500,1500,2008,1000,1505,1505,1505,1311,1854,1299,1014,0.0374,-0.0706,-0.0641,0.0576,-0.9730,-0.2362,0.2585,-0.2777,-0.2591,0.2783,0.4866,0.4370,0.1746,0.4866,0.4370,0.1746,0.3000,0.0600,0.0002,0,-0.3000,-100.0000,-0.0010,-0.3000,-100.0000,-0.0010,9.0900,32.1377,0.0200,0.0000
-32.7648,-1.9546,0.5405,-0.0000,-0.0821,0.0000,0.0000,0.0000,0.0000,0.2686,0.0098,-0.0007,996,1502,1500,1500,2008,1000,1505,1505,1505,1311,1854,1299,1014,0.0224,-0.1432,0.0487,0.0554,-0.9727,-0.2375,0.2582,-0.2778,-0.2595,0.2791,0.4866,0.4370,0.1746,0.4866,0.4370,0.1746,0.3000,0.0600,0.0002,0,-0.3000,-100.0000,-0.0010,-0.3000,-100.0000,-0.0010,9.1246,32.1800,0.0200,0.0000
-32.8087,-1.9577,0.5426,-0.0829,-0.0821,0.0000,0.0000,0.0000,0.0000,0.2688,0.0096,-0.0004,996,1502,1500,1500,2008,1000,1505,1505,1505,1311,1854,1299,1014,0.0296,-0.0194,-0.0384,0.0586,-0.9737,-0.2398,0.2589,-0.2780,-0.2596,0.2788,0.4866,0.4370,0.1746,0.4866,0.4370,0.1746,0.3000,0.0600,0.0002,0,-0.3000,-100.0000,-0.0010,-0.3000,-100.0000,-0.0010,9.1592,32.2223,0.0200,0.0000
-32.8526,-1.9602,0.5434,-0.0000,0.0000,0.0000,0.0000,0.0000,0.0000,0.2691,0.0095,-0.0002,998,1504,1501,1501,2008,1000,1505,1505,1505,1311,1854,1299,1014,0.0139,0.0061,-0.1004,0.0580,-0.9744,-0.2430,0.2593,-0.2784,-0.2598,0.2788,0.4866,0.4370,0.1746,0.4866,0.4370,0.1746,0.3000,0.0600,0.0002,0,-0.3000,-100.0000,-0.0010,-0.3000,-100.0000,-0.0010,9.1938,32.2646,0.0200,0.0000
-32.8968,-1.9631,0.5447,-0.0000,-0.0821,0.0000,0.0000,0.0000,0.0000,0.2694,0.0095,-0.0004,996,1502,1500,1500,2008,1000,1505,1505,1505,1311,1854,1299,1014,-0.0183,0.0037,-0.0356,0.0621,-0.9705,-0.2392,0.2594,-0.2785,-0.2602,0.2793,0.4866,0.4370,0.1746,0.4866,0.4370,0.1746,0.3000,0.0600,0.0002,0,-0.3000,-100.0000,-0.0010,-0.3000,-100.0000,-0.0010,9.2284,32.3068,0.0200,0.0000
-32.9413,-1.9661,0.5459,-0.0000,-0.0821,0.0000,0.0000,0.0000,0.0000,0.2696,0.0096,-0.0003,996,1502,1500,1500,2008,1000,1505,1505,1505,1311,1854,1299,1014,-0.0577,-0.0031,-0.0846,0.0597,-0.9694,-0.2445,0.2598,-0.2789,-0.2603,0.2795,0.4866,0.4370,0.1746,0.4866,0.4370,0.1746,0.3000,0.0600,0.0002,0,-0.3000,-100.0000,-0.0010,-0.3000,-100.0000,-0.0010,9.2630,32.3491,0.0200,0.0000
-32.9856,-1.9688,0.5470,-0.0829,0.0000,0.0000,0.0000,0.0000,0.0000,0.2698,0.0096,-0.0005,996,1502,1500,1500,2008,1000,1505,1505,1505,1311,1854,1299,1014,0.0024,-0.0100,-0.0194,0.0574,-0.9696,-0.2395,0.2597,-0.2789,-0.2606,0.2798,0.4866,0.4370,0.1746,0.4866,0.4370,0.1746,0.3000,0.0600,0.0002,0,-0.3000,-100.0000,-0.0010,-0.3000,-100.0000,-0.0010,9.2976,32.3913,0.0200,0.0000
-33.0296,-1.9714,0.5484,-0.0000,-0.0821,0.0000,0.0000,0.0000,0.0000,0.2699,0.0095,-0.0004,996,1502,1500,1500,2008,1000,1505,1505,1505,1311,1854,1299,1014,0.0452,0.0251,-0.0178,0.0600,-0.9703,-0.2404,0.2599,-0.2790,-0.2608,0.2799,0.4866,0.4370,0.1746,0.4866,0.4370,0.1746,0.3000,0.0600,0.0002,0,-0.3000,-100.0000,-0.0010,-0.3000,-100.0000,-0.0010,9.3323,32.4335,0.0200,0.0000
-33.0735,-1.9739,0.5497,-0.0000,-0.0821,0.0000,0.0000,0.0000,0.0000,0.2701,0.0097,-0.0002,996,1502,1500,1500,2008,1000,1505,1505,1505,1311,1854,1299,1014,0.0565,-0.0558,-0.1023,0.0597,-0.9740,-0.2386,0.2602,-0.2796,-0.2606,0.2800,0.4866,0.4370,0.1746,0.4866,0.4370,0.1746,0.3000,0.0600,0.0002,0,-0.3000,-100.0000,-0.0010,-0.3000,-100.0000,-0.0010,9.3669,32.4757,0.0200,0.0000
-33.1174,-1.9771,0.5509,-0.0000,-0.0821,0.0000,0.0000,0.0000,0.0000,0.2704,0.0098,-0.0004,998,1504,1501,1501,2008,1000,1505,1505,1505,1311,1854,1299,1014,-0.0078,-0.0929,-0.0220,0.0579,-0.9709,-0.2394,0.2602,-0.2798,-0.2611,0.2806,0.4866,0.4370,0.1746,0.4866,0.4370,0.1746,0.3000,0.0600,0.0002,0,-0.3000,-100.0000,-0.0010,-0.3000,-100.0000,-0.0010,9.4015,32.5179,0.0200,0.0000
-33.1615,-1.9799,0.5521,-0.0000,-0.0821,0.0000,0.0000,0.0000,0.0000,0.2705,0.0097,-0.0003,996,1502,1500,1500,2008,1000,1505,1505,1505,1311,1854,1299,1014,0.0535,-0.0338,-0.0797,0.0603,-0.9725,-0.2377,0.2606,-0.2799,-0.2611,0.2805,0.4866,0.4370,0.1746,0.4866,0.4370,0.1746,0.3000,0.0600,0.0002,0,-0.3000,-100.0000,-0.0010,-0.3000,-100.0000,-0.0010,9.4361,32.5601,0.0200,0.0000
-33.2052,-1.9833,0.5534,-0.0000,0.0000,0.0000,0.0000,0.0000,0.0000,0.2708,0.0098,-0.0002,996,1502,1500,1500,2008,1000,1505,1505,1505,1311,1854,1299,1014,0.0349,-0.0591,-0.1084,0.0586,-0.9724,-0.2419,0.2608,-0.2803,-0.2612,0.2807,0.4866,0.4370,0.1746,0.4866,0.4370,0.1746,0.3000,0.0600,0.0002,0,-0.3000,-100.0000,-0.0010,-0.3000,-100.0000,-0.0010,9.4708,32.6023,0.0200,0.0000
-33.2493,-1.9859,0.5550,-0.0000,-0.0821,0.0000,0.0000,0.0000,0.0000,0.2709,0.0097,-0.0005,996,1502,1500,1500,2008,1000,1505,1505,1505,1311,1854,1299,1014,0.0564,-0.0238,0.0304,0.0594,-0.9714,-0.2398,0.2607,-0.2801,-0.2618,0.2812,0.4866,0.4370,0.1746,0.4866,0.4370,0.1746,0.3000,0.0600,0.0002,0,-0.3000,-100.0000,-0.0010,-0.3000,-100.0000,-0.0010,9.5054,32.6445,0.0200,0.0000
-33.2929,-1.9884,0.5560,-0.0000,-0.0821,0.0000,0.0000,0.0000,0.0000,0.2713,0.0097,-0.0002,996,1502,1500,1500,2008,1000,1505,1505,1505,1311,1854,1299,1014,-0.0230,-0.0151,-0.1009,0.0559,-0.9670,-0.2414,0.2614,-0.2808,-0.2618,0.2812,0.4866,0.4370,0.1746,0.4866,0.4370,0.1746,0.3000,0.0600,0.0002,0,-0.3000,-100.0000,-0.0010,-0.3000,-100.0000,-0.0010,9.5401,32.6867,0.0200,0.0000
-33.3369,-1.9910,0.5570,-0.0000,-0.0821,0.0000,0.0000,0.0000,0.0000,0.2715,0.0097,-0.0003,996,1502,1500,1500,2008,1000,1505,1505,1505,1311,1854,1299,1014,0.0057,0.0135,-0.0656,0.0596,-0.9719,-0.2426,0.2615,-0.2808,-0.2621,0.2814,0.4866,0.4370,0.1746,0.4866,0.4370,0.1746,0.3000,0.0600,0.0002,0,-0.3000,-100.0000,-0.0010,-0.3000,-100.0000,-0.0010,9.5748,32.7289,0.0200,0.0000
-33.3810,-1.9934,0.5585,-0.0000,0.0000,0.0000,0.0000,0.0000,0.0000,0.2717,0.0098,-0.0007,998,1504,1501,1501,2008,1000,1505,1505,1505,1311,1854,1299,1014,0.0178,-0.0787,0.0407,0.0609,-0.9709,-0.2377,0.2612,-0.2808,-0.2625,0.2821,0.4866,0.4370,0.1746,0.4866,0.4370,0.1746,0.3000,0.0600,0.0002,0,-0.3000,-100.0000,-0.0010,-0.3000,-100.0000,-0.0010,9.6095,32.7711,0.0200,0.0000
-33.4247,-1.9959,0.5604,-0.0000,-0.0821,0.0000,0.0000,0.0000,0.0000,0.2718,0.0097,-0.0006,996,1502,1500,1500,2008,1000,1505,1505,1505,1311,1854,1299,1014,0.0398,-0.0002,0.0524,0.0589,-0.9718,-0.2361,0.2615,-0.2809,-0.2627,0.2822,0.4866,0.4370,0.1746,0.4866,0.4370,0.1746,0.3000,0.0600,0.0002,0,-0.3000,-100.0000,-0.0010,-0.3000,-100.0000,-0.0010,9.6441,32.8133,0.0200,0.0000
-33.4688,-1.9980,0.5619,-0.0829,-0.0821,0.0000,0.0000,0.0000,0.0000,0.2722,0.0097,-0.0003,996,1502,1500,1500,2008,1000,1505,1505,1505,1311,1854,1299,1014,-0.0306,0.0269,-0.0526,0.0608,-0.9722,-0.2417,0.2622,-0.2815,-0.2628,0.2822,0.4866,0.4370,0.1746,0.4866,0.4370,0.1746,0.3000,0.0600,0.0002,0,-0.3000,-100.0000,-0.0010,-0.3000,-100.0000,-0.0010,9.6788,32.8554,0.0200,0.0000
-33.5132,-2.0013,0.5635,-0.0000,-0.0821,0.0000,0.0000,0.0000,0.0000,0.2723,0.0099,-0.0001,996,1502,1500,1500,2008,1000,1505,1505,1505,1311,1854,1299,1014,0.0263,-0.0765,-0.1160,0.0610,-0.9709,-0.2393,0.2623,-0.2821,-0.2625,0.2822,0.4866,0.4370,0.1746,0.4866,0.4370,0.1746,0.3000,0.0600,0.0002,0,-0.3000,-100.0000,-0.0010,-0.3000,-100.0000,-0.0010,9.7135,32.8976,0.0200,0.0000
-33.5571,-2.0043,0.5643,-0.0829,-0.0821,0.0000,0.0000,0.0000,0.0000,0.2726,0.0098,-0.0003,996,1502,1500,1500,2008,1000,1505,1505,1505,1311,1854,1299,1014,-0.0080,-0.0268,-0.0856,0.0594,-0.9707,-0.2394,0.2625,-0.2821,-0.2630,0.2826,0.4866,0.4370,0.1746,0.4866,0.4370,0.1746,0.3000,0.0600,0.0002,0,-0.3000,-100.0000,-0.0010,-0.3000,-100.0000,-0.0010,9.7482,32.9397,0.0200,0.0000
-33.6010,-2.0071,0.5653,-0.0000,-0.0821,0.0000,0.0000,0.0000,0.0000,0.2728,0.0099,-0.0005,996,1502,1500,1500,2008,1000,1505,1505,1505,1311,1854,1299,1014,-0.0198,-0.0821,0.0097,0.0588,-0.9701,-0.2378,0.2623,-0.2822,-0.2634,0.2832,0.4866,0.4370,0.1746,0.4866,0.4370,0.1746,0.3000,0.0600,0.0002,0,-0.3000,-100.0000,-0.0010,-0.3000,-100.0000,-0.0010,9.7829,32.9819,0.0200,0.0000
-33.6451,-2.0100,0.5671,-0.0000,-0.0821,0.0000,0.0000,0.0000,0.0000,0.2729,0.0100,-0.0004,998,1504,1501,1501,2008,1000,1505,1505,1505,1311,1854,1299,1014,0.0283,-0.1222,-0.0525,0.0582,-0.9719,-0.2376,0.2626,-0.2826,-0.2633,0.2833,0.4866,0.4370,0.1746,0.4866,0.4370,0.1746,0.3000,0.0600,0.0002,0,-0.3000,-100.0000,-0.0010,-0.3000,-100.0000,-0.0010,9.8176,33.0240,0.0200,0.0000
-33.6887,-2.0128,0.5689,-0.0829,0.0000,0.0000,0.0000,0.0000,0.0000,0.2732,0.0098,-0.0005,996,1502,1500,1500,2008,1000,1505,1505,1505,1311,1854,1299,1014,-0.0122,-0.0015,-0.0035,0.0585,-0.9697,-0.2412,0.2629,-0.2825,-0.2639,0.2835,0.4866,0.4370,0.1746,0.4866,0.4370,0.1746,0.3000,0.0600,0.0002,0,-0.3000,-100.0000,-0.0010,-0.3000,-100.0000,-0.0010,9.8523,33.0661,0.0200,0.0000
-33.7327,-2.0154,0.5704,-0.0000,-0.0821,0.0000,0.0000,0.0000,0.0000,0.2734,0.0099,-0.0004,996,1502,1500,1500,2008,1000,1505,1505,1505,1311,1854,1299,1014,-0.0057,-0.0309,-0.0526,0.0598,-0.9714,-0.2407,0.2632,-0.2829,-0.2639,0.2836,0.4866,0.4370,0.1746,0.4866,0.4370,0.1746,0.3000,0.0600,0.0002,0,-0.3000,-100.0000,-0.0010,-0.3000,-100.0000,-0.0010,9.8870,33.1082,0.0200,0.0000
-33.7760,-2.0184,0.5715,-0.0000,-0.0821,0.0000,0.0000,0.0000,0.0000,0.2735,0.0099,-0.0005,996,1502,1500,1500,2008,1000,1505,1505,1505,1311,1854,1299,1014,0.0650,-0.0402,-0.0447,0.0600,-0.9721,-0.2389,0.2631,-0.2829,-0.2641,0.2838,0.4866,0.4370,0.1746,0.4866,0.4370,0.1746,0.3000,0.0600,0.0002,0,-0.3000,-100.0000,-0.0010,-0.3000,-100.0000,-0.0010,9.9217,33.1502,0.0200,0.0000
-33.8194,-2.0207,0.5725,-0.0000,0.0000,0.0000,0.0000,0.0000,0.0000,0.2737,0.0098,-0.0004,996,1502,1500,1500,2008,1000,1505,1505,1505,1311,1854,1299,1014,0.0516,0.0232,-0.0220,0.0562,-0.9688,-0.2406,0.2635,-0.2831,-0.2644,0.2839,0.4866,0.4370,0.1746,0.4866,0.4370,0.1746,0.3000,0.0600,0.0002,0,-0.3000,-100.0000,-0.0010,-0.3000,-100.0000,-0.0010,9.9565,33.1923,0.0200,0.0000
-33.8630,-2.0230,0.5739,-0.0000,-0.0821,0.0000,0.0000,0.0000,0.0000,0.2740,0.0098,-0.0004,996,1502,1500,1500,2008,1000,1505,1505,1505,1311,1854,1299,1014,-0.0088,-0.0006,-0.0303,0.0592,-0.9697,-0.2450,0.2638,-0.2835,-0.2646,0.2843,0.4866,0.4370,0.1746,0.4866,0.4370,0.1746,0.3000,0.0600,0.0002,0,-0.3000,-100.0000,-0.0010,-0.3000,-100.0000,-0.0010,9.9912,33.2343,0.0200,0.0000
-33.9071,-2.0263,0.5753,-0.0000,0.0000,0.0000,0.0000,0.0000,0.0000,0.2742,0.0100,-0.0003,998,1504,1501,1501,2008,1000,1505,1505,1505,1311,1854,1299,1014,0.0508,-0.0630,-0.0693,0.0588,-0.9715,-0.2424,0.2639,-0.2838,-0.2645,0.2844,0.4866,0.4370,0.1746,0.4866,0.4370,0.1746,0.3000,0.0600,0.0002,0,-0.3000,-100.0000,-0.0010,-0.3000,-100.0000,-0.0010,10.0259,33.2763,0.0200,0.0000
-33.9510,-2.0294,0.5767,-0.0000,0.0000,0.0000,0.0000,0.0000,0.0000,0.2745,0.0099,-0.0002,996,1502,1500,1500,2008,1000,1505,1505,1505,1311,1854,1299,1014,-0.0238,-0.0316,-0.0725,0.0577,-0.9729,-0.2401,0.2643,-0.2842,-0.2648,0.2847,0.4866,0.4370,0.1746,0.4866,0.4370,0.1746,0.3000,0.0600,0.0002,0,-0.3000,-100.0000,-0.0010,-0.3000,-100.0000,-0.0010,10.0606,33.3184,0.0200,0.0000
-33.9948,-2.0317,0.5779,-0.0000,-0.0821,0.0000,0.0000,0.0000,0.0000,0.2747,0.0099,-0.0005,996,1502,1500,1500,2008,1000,1505,1505,1505,1311,1854,1299,1014,0.0106,-0.0143,0.0154,0.0614,-0.9707,-0.2396,0.2642,-0.2840,-0.2653,0.2851,0.4866,0.4370,0.1746,0.4866,0.4370,0.1746,0.3000,0.0600,0.0002,0,-0.3000,-100.0000,-0.0010,-0.3000,-100.0000,-0.0010,10.0954,33.3604,0.0200,0.0000
-34.0386,-2.0347,0.5800,-0.0000,-0.1642,0.0000,0.0000,0.0000,0.0000,0.2748,0.0101,-0.0005,996,1502,1500,1500,2008,1000,1505,1505,1505,1311,1854,1299,1014,0.0533,-0.1240,0.0001,0.0578,-0.9721,-0.2396,0.2642,-0.2845,-0.2651,0.2854,0.4866,0.4370,0.1746,0.4866,0.4370,0.1746,0.3000,0.0600,0.0002,0,-0.3000,-100.0000,-0.0010,-0.3000,-100.0000,-0.0010,10.1301,33.4024,0.0200,0.0000
-34.0819,-2.0375,0.5819,-0.0000,-0.1642,0.0000,0.0000,0.0000,0.0000,0.2749,0.0100,-0.0003,996,1502,1500,1500,2008,1000,1505,1505,1505,1311,1854,1299,1014,0.0883,-0.0531,-0.0451,0.0586,-0.9716,-0.2390,0.2646,-0.2846,-0.2653,0.2853,0.4866,0.4370,0.1746,0.4866,0.4370,0.1746,0.3000,0.0600,0.0002,0,-0.3000,-100.0000,-0.0010,-0.3000,-100.0000,-0.0010,10.1648,33.4444,0.0200,0.0000
-34.1255,-2.0406,0.5831,-0.0000,-0.0821,0.0000,0.0000,0.0000,0.0000,0.2752,0.0101,-0.0001,996,1502,1500,1500,2008,1000,1505,1505,1505,1311,1854,1299,1014,0.0340,-0.0709,-0.1071,0.0622,-0.9718,-0.2382,0.2651,-0.2852,-0.2653,0.2854,0.4866,0.4370,0.1746,0.4866,0.4370,0.1746,0.3000,0.0600,0.0002,0,-0.3000,-100.0000,-0.0010,-0.3000,-100.0000,-0.0010,10.1996,33.4864,0.0200,0.0000
-34.1695,-2.0434,0.5842,-0.0000,-0.1642,0.0000,0.0000,0.0000,0.0000,0.2755,0.0100,-0.0004,998,1504,1501,1501,2008,1000,1505,1505,1505,1311,1854,1299,1014,0.0003,-0.0420,-0.0192,0.0610,-0.9693,-0.2385,0.2651,-0.2851,-0.2659,0.2860,0.4866,0.4370,0.1746,0.4866,0.4370,0.1746,0.3000,0.0600,0.0002,0,-0.3000,-100.0000,-0.0010,-0.3000,-100.0000,-0.0010,10.2344,33.5284,0.0200,0.0000
-34.2132,-2.0461,0.5860,0.0829,0.0000,0.0000,0.0000,0.0000,0.0000,0.2757,0.0100,-0.0005,996,1502,1500,1500,2008,1000,1505,1505,1505,1311,1854,1299,1014,0.0157,-0.0266,-0.0089,0.0594,-0.9727,-0.2375,0.2652,-0.2852,-0.2662,0.2862,0.4866,0.4370,0.1746,0.4866,0.4370,0.1746,0.3000,0.0600,0.0002,0,-0.3000,-100.0000,-0.0010,-0.3000,-100.0000,-0.0010,10.2691,33.5703,0.0200,0.0000
-34.2573,-2.0482,0.5872,-0.0829,-0.0821,0.0000,0.0000,0.0000,0.0000,0.2761,0.0099,-0.0005,996,1502,1500,1500,2008,1000,1505,1505,1505,1311,1854,1299,1014,-0.0646,0.0141,-0.0023,0.0590,-0.9710,-0.2389,0.2656,-0.2855,-0.2666,0.2865,0.4866,0.4370,0.1746,0.4866,0.4370,0.1746,0.3000,0.0600,0.0002,0,-0.3000,-100.0000,-0.0010,-0.3000,-100.0000,-0.0010,10.3039,33.6123,0.0200,0.0000
-34.3014,-2.0508,0.5885,-0.0000,-0.0821,0.0000,0.0000,0.0000,0.0000,0.2762,0.0101,-0.0004,996,1502,1500,1500,2008,1000,1505,1505,1505,1311,1854,1299,1014,-0.0205,-0.0503,-0.0436,0.0597,-0.9705,-0.2391,0.2658,-0.2859,-0.2665,0.2866,0.4866,0.4370,0.1746,0.4866,0.4370,0.1746,0.3000,0.0600,0.0002,0,-0.3000,-100.0000,-0.0010,-0.3000,-100.0000,-0.0010,10.3386,33.6542,0.0200,0.0000
-34.3456,-2.0536,0.5899,-0.0000,-0.0821,0.0000,0.0000,0.0000,0.0000,0.2764,0.0101,-0.0004,996,1502,1500,1500,2008,1000,1505,1505,1505,1311,1854,1299,1014,-0.0392,-0.0681,-0.0284,0.0588,-0.9722,-0.2414,0.2660,-0.2862,-0.2667,0.2869,0.4866,0.4370,0.1746,0.4866,0.4370,0.1746,0.3000,0.0600,0.0002,0,-0.3000,-100.0000,-0.0010,-0.3000,-100.0000,-0.0010,10.3734,33.6960,0.0200,0.0000
-34.3902,-2.0563,0.5916,-0.0829,-0.0821,0.0000,0.0000,0.0000,0.0000,0.2767,0.0101,-0.0004,996,1502,1500,1500,2008,1000,1505,1505,1505,1311,1854,1299,1014,-0.0574,-0.0327,-0.0355,0.0596,-0.9710,-0.2366,0.2662,-0.2864,-0.2670,0.2872,0.4866,0.4370,0.1746,0.4866,0.4370,0.1746,0.3000,0.0600,0.0002,0,-0.3000,-100.0000,-0.0010,-0.3000,-100.0000,-0.0010,10.4082,33.7379,0.0200,0.0000
-34.4341,-2.0591,0.5936,-0.0000,-0.0821,0.0000,0.0000,0.0000,0.0000,0.2768,0.0103,-0.0005,998,1504,1501,1501,2008,1000,1505,1505,1505,1311,1854,1299,1014,0.0285,-0.1380,0.0080,0.0581,-0.9738,-0.2422,0.2660,-0.2865,-0.2670,0.2875,0.4866,0.4370,0.1746,0.4866,0.4370,0.1746,0.3000,0.0600,0.0002,0,-0.3000,-100.0000,-0.0010,-0.3000,-100.0000,-0.0010,10.4430,33.7798,0.0200,0.0000
-34.4780,-2.0621,0.5953,-0.0000,0.0000,0.0000,0.0000,0.0000,0.0000,0.2770,0.0102,-0.0002,996,1502,1500,1500,2008,1000,1505,1505,1505,1311,1854,1299,1014,0.0124,-0.1027,-0.0928,0.0589,-0.9725,-0.2380,0.2666,-0.2870,-0.2670,0.2874,0.4866,0.4370,0.1746,0.4866,0.4370,0.1746,0.3000,0.0600,0.0002,0,-0.3000,-100.0000,-0.0010,-0.3000,-100.0000,-0.0010,10.4778,33.8216,0.0200,0.0000
-34.5215,-2.0650,0.5969,-0.0829,-0.0821,0.0000,0.0000,0.0000,0.0000,0.2772,0.0099,-0.0004,996,1502,1500,1500,2008,1000,1505,1505,1505,1311,1854,1299,1014,0.0325,0.0599,-0.0180,0.0618,-0.9719,-0.2395,0.2668,-0.2867,-0.2676,0.2875,0.4866,0.4370,0.1746,0.4866,0.4370,0.1746,0.3000,0.0600,0.0002,0,-0.3000,-100.0000,-0.0010,-0.3000,-100.0000,-0.0010,10.5126,33.8635,0.0200,0.0000
-34.5651,-2.0675,0.5980,-0.0000,-0.0821,0.0000,0.0000,0.0000,0.0000,0.2774,0.0101,-0.0003,996,1502,1500,1500,2008,1000,1505,1505,1505,1311,1854,1299,1014,0.0521,-0.0409,-0.0615,0.0591,-0.9717,-0.2425,0.2669,-0.2871,-0.2676,0.2878,0.4866,0.4370,0.1746,0.4866,0.4370,0.1746,0.3000,0.0600,0.0002,0,-0.3000,-100.0000,-0.0010,-0.3000,-100.0000,-0.0010,10.5474,33.9053,0.0200,0.0000
-34.6090,-2.0702,0.5993,-0.0829,-0.0821,0.0000,0.0000,0.0000,0.0000,0.2777,0.0101,-0.0004,996,1502,1500,1500,2008,1000,1505,1505,1505,1311,1854,1299,1014,0.0002,-0.0041,-0.0374,0.0572,-0.9688,-0.2408,0.2672,-0.2874,-0.2680,0.2881,0.4866,0.4370,0.1746,0.4866,0.4370,0.1746,0.3000,0.0600,0.0002,0,-0.3000,-100.0000,-0.0010,-0.3000,-100.0000,-0.0010,10.5822,33.9471,0.0200,0.0000
-34.6530,-2.0728,0.6009,0.0829,-0.1642,0.0000,0.0000,0.0000,0.0000,0.2778,0.0101,-0.0003,996,1502,1500,1500,2008,1000,1505,1505,1505,1311,1854,1299,1014,0.0351,-0.0195,-0.0434,0.0592,-0.9712,-0.2374,0.2674,-0.2876,-0.2680,0.2882,0.4866,0.4370,0.1746,0.4866,0.4370,0.1746,0.3000,0.0600,0.0002,0,-0.3000,-100.0000,-0.0010,-0.3000,-100.0000,-0.0010,10.6170,33.9889,0.0200,0.0000
-34.6970,-2.0757,0.6022,-0.0000,-0.0821,0.0000,0.0000,0.0000,0.0000,0.2779,0.0101,-0.0002,998,1504,1501,1501,2008,1000,1505,1505,1505,1311,1854,1299,1014,0.0819,-0.0049,-0.0857,0.0577,-0.9704,-0.2363,0.2676,-0.2878,-0.2681,0.2883,0.4866,0.4370,0.1746,0.4866,0.4370,0.1746,0.3000,0.0600,0.0002,0,-0.3000,-100.0000,-0.0010,-0.3000,-100.0000,-0.0010,10.6518,34.0308,0.0200,0.0000
-34.7402,-2.0783,0.6034,-0.0000,-0.1642,0.0000,0.0000,0.0000,0.0000,0.2782,0.0102,-0.0006,996,1502,1500,1500,2008,1000,1505,1505,1505,1311,1854,1299,1014,0.0394,-0.0315,0.0450,0.0572,-0.9703,-0.2425,0.2675,-0.2878,-0.2687,0.2890,0.4866,0.4370,0.1746,0.4866,0.4370,0.1746,0.3000,0.0600,0.0002,0,-0.3000,-100.0000,-0.0010,-0.3000,-100.0000,-0.0010,10.6867,34.0726,0.0200,0.0000
-34.7840,-2.0811,0.6046,-0.0000,-0.0821,0.0000,0.0000,0.0000,0.0000,0.2785,0.0103,-0.0001,996,1502,1500,1500,2008,1000,1505,1505,1505,1311,1854,1299,1014,0.0285,-0.1014,-0.1385,0.0575,-0.9700,-0.2385,0.2681,-0.2887,-0.2683,0.2889,0.4866,0.4370,0.1746,0.4866,0.4370,0.1746,0.3000,0.0600,0.0002,0,-0.3000,-100.0000,-0.0010,-0.3000,-100.0000,-0.0010,10.7215,34.1144,0.0200,0.0000
-34.8276,-2.0842,0.6059,-0.0829,-0.0821,0.0000,0.0000,0.0000,0.0000,0.2787,0.0102,-0.0005,996,1502,1500,1500,2008,1000,1505,1505,1505,1311,1854,1299,1014,0.0287,-0.0339,-0.0012,0.0582,-0.9691,-0.2378,0.2680,-0.2884,-0.2690,0.2894,0.4866,0.4370,0.1746,0.4866,0.4370,0.1746,0.3000,0.0600,0.0002,0,-0.3000,-100.0000,-0.0010,-0.3000,-100.0000,-0.0010,10.7564,34.1563,0.0200,0.0000
-34.8713,-2.0866,0.6077,-0.0829,-0.0821,0.0000,0.0000,0.0000,0.0000,0.2789,0.0102,-0.0005,996,1502,1500,1500,2008,1000,1505,1505,1505,1311,1854,1299,1014,0.0128,-0.0090,-0.0223,0.0582,-0.9722,-0.2389,0.2683,-0.2886,-0.2692,0.2895,0.4866,0.4370,0.1746,0.4866,0.4370,0.1746,0.3000,0.0600,0.0002,0,-0.3000,-100.0000,-0.0010,-0.3000,-100.0000,-0.0010,10.7912,34.1981,0.0200,0.0000
-34.9157,-2.0890,0.6092,-0.0829,0.0000,0.0000,0.0000,0.0000,0.0000,0.2792,0.0102,-0.0005,996,1502,1500,1500,2008,1000,1505,1505,1505,1311,1854,1299,1014,-0.0035,-0.0212,-0.0096,0.0610,-0.9674,-0.2390,0.2684,-0.2888,-0.2695,0.2899,0.4866,0.4370,0.1746,0.4866,0.4370,0.1746,0.3000,0.0600,0.0002,0,-0.3000,-100.0000,-0.0010,-0.3000,-100.0000,-0.0010,10.8261,34.2399,0.0200,0.0000
-34.9592,-2.0913,0.6112,-0.0829,-0.1642,0.0000,0.0000,0.0000,0.0000,0.2793,0.0102,-0.0005,998,1504,1501,1501,2008,1000,1505,1505,1505,1311,1854,1299,1014,0.0323,-0.0247,-0.0105,0.0568,-0.9683,-0.2423,0.2686,-0.2890,-0.2696,0.2900,0.4866,0.4370,0.1746,0.4866,0.4370,0.1746,0.3000,0.0600,0.0002,0,-0.3000,-100.0000,-0.0010,-0.3000,-100.0000,-0.0010,10.8609,34.2816,0.0200,0.0000
-35.0030,-2.0941,0.6131,0.0829,0.0000,0.0000,0.0000,0.0000,0.0000,0.2796,0.0104,-0.0005,996,1502,1500,1500,2008,1000,1505,1505,1505,1311,1854,1299,1014,-0.0093,-0.1174,-0.0085,0.0581,-0.9686,-0.2435,0.2687,-0.2895,-0.2697,0.2905,0.4866,0.4370,0.1746,0.4866,0.4370,0.1746,0.3000,0.0600,0.0002,0,-0.3000,-100.0000,-0.0010,-0.3000,-100.0000,-0.0010,10.8958,34.3234,0.0200,0.0000
-35.0465,-2.0971,0.6155,-0.0000,-0.0821,0.0000,0.0000,0.0000,0.0000,0.2798,0.0103,-0.0005,996,1502,1500,1500,2008,1000,1505,1505,1505,1311,1854,1299,1014,0.0054,-0.0524,-0.0053,0.0588,-0.9710,-0.2413,0.2690,-0.2896,-0.2699,0.2905,0.4866,0.4370,0.1746,0.4866,0.4370,0.1746,0.3000,0.0600,0.0002,0,-0.3000,-100.0000,-0.0010,-0.3000,-100.0000,-0.0010,10.9307,34.3651,0.0200,0.0000
-35.0900,-2.0997,0.6168,-0.0829,-0.0821,0.0000,0.0000,0.0000,0.0000,0.2799,0.0101,-0.0003,996,1502,1500,1500,2008,1000,1505,1505,1505,1311,1854,1299,1014,0.0596,0.0467,-0.0566,0.0593,-0.9709,-0.2400,0.2695,-0.2897,-0.2700,0.2903,0.4866,0.4370,0.1746,0.4866,0.4370,0.1746,0.3000,0.0600,0.0002,0,-0.3000,-100.0000,-0.0010,-0.3000,-100.0000,-0.0010,10.9656,34.4069,0.0200,0.0000
-35.1329,-2.1020,0.6175,-0.0000,0.0000,0.0000,0.0000,0.0000,0.0000,0.2801,0.0101,-0.0001,996,1502,1500,1500,2008,1000,1505,1505,1505,1311,1854,1299,1014,0.0709,0.0542,-0.1048,0.0565,-0.9709,-0.2390,0.2698,-0.2901,-0.2701,0.2904,0.4866,0.4370,0.1746,0.4866,0.4370,0.1746,0.3000,0.0600,0.0002,0,-0.3000,-100.0000,-0.0010,-0.3000,-100.0000,-0.0010,11.0004,34.4486,0.0200,0.0000
-35.1768,-2.1041,0.6183,-0.0000,0.0000,0.0000,0.0000,0.0000,0.0000,0.2805,0.0102,-0.0004,996,1502,1500,1500,2008,1000,1505,1505,1505,1311,1854,1299,1014,-0.0628,-0.0049,-0.0321,0.0576,-0.9699,-0.2364,0.2699,-0.2904,-0.2706,0.2911,0.4866,0.4370,0.1746,0.4866,0.4370,0.1746,0.3000,0.0600,0.0002,0,-0.3000,-100.0000,-0.0010,-0.3000,-100.0000,-0.0010,11.0353,34.4904,0.0200,0.0000
-35.2213,-2.1062,0.6195,-0.0000,-0.0821,0.0000,0.0000,0.0000,0.0000,0.2807,0.0102,-0.0004,998,1504,1501,1501,2008,1000,1505,1505,1505,1311,1854,1299,1014,-0.0513,0.0093,-0.0457,0.0570,-0.9723,-0.2391,0.2701,-0.2906,-0.2709,0.2913,0.4866,0.4370,0.1746,0.4866,0.4370,0.1746,0.3000,0.0600,0.0002,0,-0.3000,-100.0000,-0.0010,-0.3000,-100.0000,-0.0010,11.0702,34.5321,0.0200,0.0000
-35.2650,-2.1090,0.6208,-0.0000,-0.1642,0.0000,0.0000,0.0000,0.0000,0.2809,0.0104,-0.0004,996,1502,1500,1500,2008,1000,1505,1505,1505,1311,1854,1299,1014,-0.0173,-0.0991,-0.0402,0.0577,-0.9719,-0.2364,0.2701,-0.2909,-0.2708,0.2917,0.4866,0.4370,0.1746,0.4866,0.4370,0.1746,0.3000,0.0600,0.0002,0,-0.3000,-100.0000,-0.0010,-0.3000,-100.0000,-0.0010,11.1051,34.5739,0.0200,0.0000
-35.3089,-2.1124,0.6232,-0.0000,-0.0821,0.0000,0.0000,0.0000,0.0000,0.2811,0.0104,-0.0004,996,1502,1500,1500,2008,1000,1505,1505,1505,1311,1854,1299,1014,-0.0234,-0.0912,-0.0447,0.0607,-0.9714,-0.2369,0.2703,-0.2912,-0.2711,0.2919,0.4866,0.4370,0.1746,0.4866,0.4370,0.1746,0.3000,0.0600,0.0002,0,-0.3000,-100.0000,-0.0010,-0.3000,-100.0000,-0.0010,11.1400,34.6155,0.0200,0.0000
-35.3527,-2.1148,0.6251,-0.0000,-0.0821,0.0000,0.0000,0.0000,0.0000,0.2813,0.0104,-0.0003,996,1502,1500,1500,2008,1000,1505,1505,1505,1311,1854,1299,1014,-0.0120,-0.0482,-0.0538,0.0574,-0.9717,-0.2388,0.2707,-0.2914,-0.2712,0.2919,0.4866,0.4370,0.1746,0.4866,0.4370,0.1746,0.3000,0.0600,0.0002,0,-0.3000,-100.0000,-0.0010,-0.3000,-100.0000,-0.0010,11.1749,34.6572,0.0200,0.0000
-35.3963,-2.1177,0.6264,-0.0829,-0.0821,0.0000,0.0000,0.0000,0.0000,0.2815,0.0104,-0.0003,996,1502,1500,1500,2008,1000,1505,1505,1505,1311,1854,1299,1014,0.0084,-0.0547,-0.0742,0.0580,-0.9719,-0.2385,0.2708,-0.2916,-0.2713,0.2921,0.4866,0.4370,0.1746,0.4866,0.4370,0.1746,0.3000,0.0600,0.0002,0,-0.3000,-100.0000,-0.0010,-0.3000,-100.0000,-0.0010,11.2098,34.6988,0.0200,0.0000
-35.4403,-2.1204,0.6281,-0.0000,0.0000,0.0000,0.0000,0.0000,0.0000,0.2817,0.0104,-0.0002,996,1502,1500,1500,2008,1000,1505,1505,1505,1311,1854,1299,1014,-0.0179,-0.0595,-0.0671,0.0604,-0.9697,-0.2410,0.2711,-0.2919,-0.2715,0.2924,0.4866,0.4370,0.1746,0.4866,0.4370,0.1746,0.3000,0.0600,0.0002,0,-0.3000,-100.0000,-0.0010,-0.3000,-100.0000,-0.0010,11.2447,34.7405,0.0200,0.0000
-35.4840,-2.1233,0.6297,-0.0000,-0.0821,0.0000,0.0000,0.0000,0.0000,0.2819,0.0104,-0.0003,998,1504,1501,1501,2008,1000,1505,1505,1505,1311,1854,1299,1014,0.0021,-0.0654,-0.0281,0.0568,-0.9718,-0.2406,0.2711,-0.2920,-0.2718,0.2927,0.4866,0.4370,0.1746,0.4866,0.4370,0.1746,0.3000,0.0600,0.0002,0,-0.3000,-100.0000,-0.0010,-0.3000,-100.0000,-0.0010,11.2797,34.7821,0.0200,0.0000
-35.5279,-2.1267,0.6310,-0.0000,0.0000,0.0000,0.0000,0.0000,0.0000,0.2821,0.0105,-0.0003,996,1502,1500,1500,2008,1000,1505,1505,1505,1311,1854,1299,1014,-0.0065,-0.0858,-0.0644,0.0578,-0.9730,-0.2402,0.2714,-0.2924,-0.2719,0.2929,0.4866,0.4370,0.1746,0.4866,0.4370,0.1746,0.3000,0.0600,0.0002,0,-0.3000,-100.0000,-0.0010,-0.3000,-100.0000,-0.0010,11.3146,34.8238,0.0200,0.0000
-35.5714,-2.1294,0.6328,-0.0829,-0.0821,0.0000,0.0000,0.0000,0.0000,0.2823,0.0104,-0.0006,996,1502,1500,1500,2008,1000,1505,1505,1505,1311,1854,1299,1014,0.0266,-0.0332,0.0313,0.0582,-0.9729,-0.2375,0.2712,-0.2921,-0.2725,0.2933,0.4866,0.4370,0.1746,0.4866,0.4370,0.1746,0.3000,0.0600,0.0002,0,-0.3000,-100.0000,-0.0010,-0.3000,-100.0000,-0.0010,11.3495,34.8654,0.0200,0.0000
-35.6148,-2.1322,0.6342,-0.0000,-0.0821,0.0000,0.0000,0.0000,0.0000,0.2825,0.0105,-0.0003,996,1502,1500,1500,2008,1000,1505,1505,1505,1311,1854,1299,1014,0.0216,-0.0637,-0.0862,0.0593,-0.9711,-0.2391,0.2718,-0.2927,-0.2723,0.2933,0.4866,0.4370,0.1746,0.4866,0.4370,0.1746,0.3000,0.0600,0.0002,0,-0.3000,-100.0000,-0.0010,-0.3000,-100.0000,-0.0010,11.3844,34.9070,0.0200,0.0000
-35.6580,-2.1353,0.6358,-0.0829,0.0000,0.0000,0.0000,0.0000,0.0000,0.2826,0.0106,-0.0006,996,1502,1500,1500,2008,1000,1505,1505,1505,1311,1854,1299,1014,0.0750,-0.0981,0.0315,0.0586,-0.9722,-0.2384,0.2715,-0.2926,-0.2726,0.2938,0.4866,0.4370,0.1746,0.4866,0.4370,0.1746,0.3000,0.0600,0.0002,0,-0.3000,-100.0000,-0.0010,-0.3000,-100.0000,-0.0010,11.4194,34.9486,0.0200,0.0000
-35.7012,-2.1378,0.6376,-0.0000,0.0000,0.0000,0.0000,0.0000,0.0000,0.2829,0.0104,-0.0002,996,1502,1500,1500,2008,1000,1505,1505,1505,1311,1854,1299,1014,0.0207,-0.0196,-0.0882,0.0575,-0.9751,-0.2413,0.2723,-0.2932,-0.2727,0.2935,0.4866,0.4370,0.1746,0.4866,0.4370,0.1746,0.3000,0.0600,0.0002,0,-0.3000,-100.0000,-0.0010,-0.3000,-100.0000,-0.0010,11.4543,34.9901,0.0200,0.0000
-35.7447,-2.1404,0.6387,-0.0829,-0.0821,0.0000,0.0000,0.0000,0.0000,0.2831,0.0106,-0.0003,998,1504,1501,1501,2008,1000,1505,1505,1505,1311,1854,1299,1014,0.0717,-0.0851,-0.0588,0.0585,-0.9703,-0.2377,0.2722,-0.2933,-0.2728,0.2939,0.4866,0.4370,0.1746,0.4866,0.4370,0.1746,0.3000,0.0600,0.0002,0,-0.3000,-100.0000,-0.0010,-0.3000,-100.0000,-0.0010,11.4892,35.0317,0.0200,0.0000
-35.7880,-2.1429,0.6403,-0.0000,0.0000,0.0000,0.0000,0.0000,0.0000,0.2833,0.0104,-0.0004,996,1502,1500,1500,2008,1000,1505,1505,1505,1311,1854,1299,1014,0.0658,0.0399,-0.0232,0.0561,-0.9723,-0.2411,0.2725,-0.2932,-0.2733,0.2940,0.4866,0.4370,0.1746,0.4866,0.4370,0.1746,0.3000,0.0600,0.0002,0,-0.3000,-100.0000,-0.0010,-0.3000,-100.0000,-0.0010,11.5242,35.0733,0.0200,0.0000
-35.8316,-2.1454,0.6416,0.0829,-0.0821,0.0000,0.0000,0.0000,0.0000,0.2835,0.0104,-0.0005,996,1502,1500,1500,2008,1000,1505,1505,1505,1311,1854,1299,1014,0.0454,0.0004,-0.0038,0.0588,-0.9706,-0.2392,0.2726,-0.2935,-0.2736,0.2945,0.4866,0.4370,0.1746,0.4866,0.4370,0.1746,0.3000,0.0600,0.0002,0,-0.3000,-100.0000,-0.0010,-0.3000,-100.0000,-0.0010,11.5592,35.1149,0.0200,0.0000
-35.8746,-2.1478,0.6431,-0.0829,-0.0821,0.0000,0.0000,0.0000,0.0000,0.2837,0.0105,-0.0004,996,1502,1500,1500,2008,1000,1505,1505,1505,1311,1854,1299,1014,0.0541,-0.0314,-0.0507,0.0570,-0.9682,-0.2425,0.2728,-0.2939,-0.2736,0.2946,0.4866,0.4370,0.1746,0.4866,0.4370,0.1746,0.3000,0.0600,0.0002,0,-0.3000,-100.0000,-0.0010,-0.3000,-100.0000,-0.0010,11.5941,35.1565,0.0200,0.0000
-35.9182,-2.1503,0.6446,-0.0000,-0.0821,0.0000,0.0000,0.0000,0.0000,0.2839,0.0106,-0.0003,996,1502,1500,1500,2008,1000,1505,1505,1505,1311,1854,1299,1014,0.0620,-0.1031,-0.0554,0.0586,-0.9736,-0.2406,0.2730,-0.2943,-0.2736,0.2949,0.4866,0.4370,0.1746,0.4866,0.4370,0.1746,0.3000,0.0600,0.0002,0,-0.3000,-100.0000,-0.0010,-0.3000,-100.0000,-0.0010,11.6291,35.1981,0.0200,0.0000
-35.9618,-2.1534,0.6461,0.0829,-0.0821,0.0000,0.0000,0.0000,0.0000,0.2843,0.0105,-0.0003,996,1502,1500,1500,2008,1000,1505,1505,1505,1311,1854,1299,1014,-0.0165,-0.0388,-0.0636,0.0582,-0.9717,-0.2413,0.2734,-0.2945,-0.2740,0.2951,0.4866,0.4370,0.1746,0.4866,0.4370,0.1746,0.3000,0.0600,0.0002,0,-0.3000,-100.0000,-0.0010,-0.3000,-100.0000,-0.0010,11.6641,35.2396,0.0200,0.0000
-36.0050,-2.1568,0.6473,-0.0000,-0.0821,0.0000,0.0000,0.0000,0.0000,0.2844,0.0107,-0.0002,998,1504,1501,1501,2008,1000,1505,1505,1505,1311,1854,1299,1014,0.0480,-0.1124,-0.0805,0.0607,-0.9712,-0.2399,0.2734,-0.2948,-0.2739,0.2953,0.4866,0.4370,0.1746,0.4866,0.4370,0.1746,0.3000,0.0600,0.0002,0,-0.3000,-100.0000,-0.0010,-0.3000,-100.0000,-0.0010,11.6991,35.2812,0.0200,0.0000
-36.0485,-2.1602,0.6489,-0.0000,-0.0821,0.0000,0.0000,0.0000,0.0000,0.2847,0.0106,-0.0004,996,1502,1500,1500,2008,1000,1505,1505,1505,1311,1854,1299,1014,-0.0079,-0.0639,-0.0287,0.0574,-0.9689,-0.2435,0.2736,-0.2949,-0.2745,0.2957,0.4866,0.4370,0.1746,0.4866,0.4370,0.1746,0.3000,0.0600,0.0002,0,-0.3000,-100.0000,-0.0010,-0.3000,-100.0000,-0.0010,11.7341,35.3226,0.0200,0.0000
-36.0916,-2.1626,0.6509,-0.0829,-0.0821,0.0000,0.0000,0.0000,0.0000,0.2848,0.0105,-0.0005,996,1502,1500,1500,2008,1000,1505,1505,1505,1311,1854,1299,1014,0.0457,0.0233,-0.0051,0.0572,-0.9721,-0.2425,0.2738,-0.2948,-0.2748,0.2958,0.4866,0.4370,0.1746,0.4866,0.4370,0.1746,0.3000,0.0600,0.0002,0,-0.3000,-100.0000,-0.0010,-0.3000,-100.0000,-0.0010,11.7691,35.3641,0.0200,0.0000
-36.1354,-2.1647,0.6523,-0.0000,-0.0821,0.0000,0.0000,0.0000,0.0000,0.2850,0.0106,-0.0003,996,1502,1500,1500,2008,1000,1505,1505,1505,1311,1854,1299,1014,0.0363,-0.0283,-0.0465,0.0601,-0.9717,-0.2390,0.2741,-0.2953,-0.2748,0.2959,0.4866,0.4370,0.1746,0.4866,0.4370,0.1746,0.3000,0.0600,0.0002,0,-0.3000,-100.0000,-0.0010,-0.3000,-100.0000,-0.0010,11.8041,35.4055,0.0200,0.0000
-36.1789,-2.1672,0.6539,-0.0829,0.0000,0.0000,0.0000,0.0000,0.0000,0.2853,0.0105,-0.0005,996,1502,1500,1500,2008,1000,1505,1505,1505,1311,1854,1299,1014,-0.0037,0.0491,-0.0038,0.0592,-0.9717,-0.2381,0.2744,-0.2953,-0.2753,0.2962,0.4866,0.4370,0.1746,0.4866,0.4370,0.1746,0.3000,0.0600,0.0002,0,-0.3000,-100.0000,-0.0010,-0.3000,-100.0000,-0.0010,11.8391,35.4470,0.0200,0.0000
-36.2227,-2.1694,0.6558,-0.0000,0.0000,0.0000,0.0000,0.0000,0.0000,0.2854,0.0106,-0.0005,996,1502,1500,1500,2008,1000,1505,1505,1505,1311,1854,1299,1014,0.0381,-0.0285,0.0059,0.0581,-0.9726,-0.2382,0.2743,-0.2956,-0.2753,0.2965,0.4866,0.4370,0.1746,0.4866,0.4370,0.1746,0.3000,0.0600,0.0002,0,-0.3000,-100.0000,-0.0010,-0.3000,-100.0000,-0.0010,11.8741,35.4885,0.0200,0.0000
-36.2665,-2.1718,0.6578,-0.0000,-0.0821,0.0000,0.0000,0.0000,0.0000,0.2858,0.0106,-0.0005,998,1504,1501,1501,2008,1000,1505,1505,1505,1311,1854,1299,1014,-0.0369,-0.0411,0.0229,0.0578,-0.9708,-0.2421,0.2746,-0.2959,-0.2757,0.2970,0.4866,0.4370,0.1746,0.4866,0.4370,0.1746,0.3000,0.0600,0.0002,0,-0.3000,-100.0000,-0.0010,-0.3000,-100.0000,-0.0010,11.9092,35.5299,0.0200,0.0000
-36.3106,-2.1740,0.6595,-0.0829,0.0000,0.0000,0.0000,0.0000,0.0000,0.2861,0.0106,-0.0004,996,1502,1500,1500,2008,1000,1505,1505,1505,1311,1854,1299,1014,-0.0723,-0.0120,-0.0215,0.0576,-0.9712,-0.2381,0.2750,-0.2962,-0.2759,0.2971,0.4866,0.4370,0.1746,0.4866,0.4370,0.1746,0.3000,0.0600,0.0002,0,-0.3000,-100.0000,-0.0010,-0.3000,-100.0000,-0.0010,11.9442,35.5714,0.0200,0.0000
-36.3542,-2.1768,0.6605,-0.0000,-0.0821,0.0000,0.0000,0.0000,0.0000,0.2861,0.0107,-0.0002,996,1502,1500,1500,2008,1000,1505,1505,1505,1311,1854,1299,1014,0.0544,-0.0667,-0.0782,0.0607,-0.9735,-0.2419,0.2751,-0.2965,-0.2756,0.2970,0.4866,0.4370,0.1746,0.4866,0.4370,0.1746,0.3000,0.0600,0.0002,0,-0.3000,-100.0000,-0.0010,-0.3000,-100.0000,-0.0010,11.9792,35.6128,0.0200,0.0000
-36.3973,-2.1790,0.6623,-0.0829,-0.0821,0.0000,0.0000,0.0000,0.0000,0.2863,0.0105,-0.0006,996,1502,1500,1500,2008,1000,1505,1505,1505,1311,1854,1299,1014,0.0449,0.0669,0.0410,0.0588,-0.9722,-0.2428,0.2752,-0.2962,-0.2764,0.2973,0.4866,0.4370,0.1746,0.4866,0.4370,0.1746,0.3000,0.0600,0.0002,0,-0.3000,-100.0000,-0.0010,-0.3000,-100.0000,-0.0010,12.0143,35.6542,0.0200,0.0000
-36.4409,-2.1815,0.6643,-0.0829,-0.0821,0.0000,0.0000,0.0000,0.0000,0.2865,0.0109,-0.0003,996,1502,1500,1500,2008,1000,1505,1505,1505,1311,1854,1299,1014,0.0439,-0.1499,-0.0494,0.0568,-0.9707,-0.2360,0.2753,-0.2971,-0.2759,0.2977,0.4866,0.4370,0.1746,0.4866,0.4370,0.1746,0.3000,0.0600,0.0002,0,-0.3000,-100.0000,-0.0010,-0.3000,-100.0000,-0.0010,12.0493,35.6956,0.0200,0.0000
-36.4839,-2.1845,0.6661,-0.0000,-0.0821,0.0000,0.0000,0.0000,0.0000,0.2866,0.0106,-0.0004,996,1502,1500,1500,2008,1000,1505,1505,1505,1311,1854,1299,1014,0.0843,-0.0045,-0.0468,0.0568,-0.9710,-0.2409,0.2756,-0.2969,-0.2764,0.2976,0.4866,0.4370,0.1746,0.4866,0.4370,0.1746,0.3000,0.0600,0.0002,0,-0.3000,-100.0000,-0.0010,-0.3000,-100.0000,-0.0010,12.0843,35.7369,0.0200,0.0000
-36.5264,-2.1869,0.6673,-0.0829,-0.0821,0.0000,0.0000,0.0000,0.0000,0.2869,0.0107,-0.0004,998,1504,1501,1501,2008,1000,1505,1505,1505,1311,1854,1299,1014,0.0460,-0.0118,-0.0370,0.0579,-0.9715,-0.2378,0.2759,-0.2972,-0.2766,0.2979,0.4866,0.4370,0.1746,0.4866,0.4370,0.1746,0.3000,0.0600,0.0002,0,-0.3000,-100.0000,-0.0010,-0.3000,-100.0000,-0.0010,12.1194,35.7783,0.0200,0.0000
-36.5701,-2.1896,0.6686,-0.0829,0.0000,0.0000,0.0000,0.0000,0.0000,0.2874,0.0108,-0.0003,996,1502,1500,1500,2008,1000,1505,1505,1505,1311,1854,1299,1014,-0.0887,-0.0598,-0.0569,0.0609,-0.9730,-0.2417,0.2763,-0.2978,-0.2769,0.2984,0.4866,0.4370,0.1746,0.4866,0.4370,0.1746,0.3000,0.0600,0.0002,0,-0.3000,-100.0000,-0.0010,-0.3000,-100.0000,-0.0010,12.1545,35.8197,0.0200,0.0000
-36.6139,-2.1920,0.6704,0.0829,-0.0821,0.0000,0.0000,0.0000,0.0000,0.2874,0.0107,-0.0006,996,1502,1500,1500,2008,1000,1505,1505,1505,1311,1854,1299,1014,0.0094,-0.0056,0.0269,0.0630,-0.9714,-0.2400,0.2762,-0.2975,-0.2773,0.2986,0.4866,0.4370,0.1746,0.4866,0.4370,0.1746,0.3000,0.0600,0.0002,0,-0.3000,-100.0000,-0.0010,-0.3000,-100.0000,-0.0010,12.1895,35.8611,0.0200,0.0000
-36.6576,-2.1942,0.6721,-0.0000,0.0000,0.0000,0.0000,0.0000,0.0000,0.2877,0.0108,-0.0004,996,1502,1500,1500,2008,1000,1505,1505,1505,1311,1854,1299,1014,-0.0139,-0.0451,-0.0221,0.0576,-0.9725,-0.2400,0.2765,-0.2980,-0.2773,0.2988,0.4866,0.4370,0.1746,0.4866,0.4370,0.1746,0.3000,0.0600,0.0002,0,-0.3000,-100.0000,-0.0010,-0.3000,-100.0000,-0.0010,12.2246,35.9024,0.0200,0.0000
-36.7008,-2.1972,0.6738,-0.0000,-0.0821,0.0000,0.0000,0.0000,0.0000,0.2877,0.0107,-0.0003,996,1502,1500,1500,2008,1000,1505,1505,1505,1311,1854,1299,1014,0.0971,-0.0289,-0.0525,0.0597,-0.9719,-0.2413,0.2766,-0.2981,-0.2772,0.2987,0.4866,0.4370,0.1746,0.4866,0.4370,0.1746,0.3000,0.0600,0.0002,0,-0.3000,-100.0000,-0.0010,-0.3000,-100.0000,-0.0010,12.2597,35.9438,0.0200,0.0000
-36.7441,-2.1998,0.6757,-0.0000,0.0000,0.0000,0.0000,0.0000,0.0000,0.2880,0.0108,-0.0005,996,1502,1500,1500,2008,1000,1505,1505,1505,1311,1854,1299,1014,0.0302,-0.0667,0.0000,0.0609,-0.9713,-0.2381,0.2767,-0.2983,-0.2776,0.2993,0.4866,0.4370,0.1746,0.4866,0.4370,0.1746,0.3000,0.0600,0.0002,0,-0.3000,-100.0000,-0.0010,-0.3000,-100.0000,-0.0010,12.2948,35.9851,0.0200,0.0000
-36.7869,-2.2022,0.6777,-0.0000,-0.0821,0.0000,0.0000,0.0000,0.0000,0.2882,0.0107,-0.0007,998,1504,1501,1501,2008,1000,1505,1505,1505,1311,1854,1299,1014,0.0593,-0.0016,0.0689,0.0599,-0.9692,-0.2392,0.2767,-0.2982,-0.2781,0.2996,0.4866,0.4370,0.1746,0.4866,0.4370,0.1746,0.3000,0.0600,0.0002,0,-0.3000,-100.0000,-0.0010,-0.3000,-100.0000,-0.0010,12.3298,36.0264,0.0200,0.0000
-36.8304,-2.2045,0.6795,-0.0829,-0.0821,0.0000,0.0000,0.0000,0.0000,0.2885,0.0108,-0.0006,996,1502,1500,1500,2008,1000,1505,1505,1505,1311,1854,1299,1014,-0.0054,-0.0406,0.0118,0.0589,-0.9694,-0.2390,0.2771,-0.2987,-0.2783,0.2998,0.4866,0.4370,0.1746,0.4866,0.4370,0.1746,0.3000,0.0600,0.0002,0,-0.3000,-100.0000,-0.0010,-0.3000,-100.0000,-0.0010,12.3649,36.0677,0.0200,0.0000
-36.8737,-2.2071,0.6810,-0.0000,0.0000,0.0000,0.0000,0.0000,0.0000,0.2887,0.0108,-0.0003,996,1502,1500,1500,2008,1000,1505,1505,1505,1311,1854,1299,1014,0.0156,-0.0400,-0.0680,0.0601,-0.9718,-0.2369,0.2776,-0.2992,-0.2781,0.2997,0.4866,0.4370,0.1746,0.4866,0.4370,0.1746,0.3000,0.0600,0.0002,0,-0.3000,-100.0000,-0.0010,-0.3000,-100.0000,-0.0010,12.4000,36.1091,0.0200,0.0000
-36.9170,-2.2104,0.6823,-0.0000,0.0000,0.0000,0.0000,0.0000,0.0000,0.2889,0.0107,-0.0002,996,1502,1500,1500,2008,1000,1505,1505,1505,1311,1854,1299,1014,-0.0094,0.0064,-0.1024,0.0605,-0.9704,-0.2419,0.2780,-0.2995,-0.2783,0.2998,0.4866,0.4370,0.1746,0.4866,0.4370,0.1746,0.3000,0.0600,0.0002,0,-0.3000,-100.0000,-0.0010,-0.3000,-100.0000,-0.0010,12.4352,36.1504,0.0200,0.0000
-36.9603,-2.2136,0.6836,-0.0829,-0.0821,0.0000,0.0000,0.0000,0.0000,0.2891,0.0109,-0.0003,996,1502,1500,1500,2008,1000,1505,1505,1505,1311,1854,1299,1014,-0.0066,-0.0855,-0.0582,0.0586,-0.9707,-0.2398,0.2779,-0.2998,-0.2785,0.3003,0.4866,0.4370,0.1746,0.4866,0.4370,0.1746,0.3000,0.0600,0.0002,0,-0.3000,-100.0000,-0.0010,-0.3000,-100.0000,-0.0010,12.4703,36.1917,0.0200,0.0000
-37.0034,-2.2164,0.6850,-0.0829,-0.0821,0.0000,0.0000,0.0000,0.0000,0.2892,0.0109,-0.0003,996,1502,1500,1500,2008,1000,1505,1505,1505,1311,1854,1299,1014,0.0592,-0.0643,-0.0461,0.0585,-0.9718,-0.2412,0.2780,-0.2998,-0.2787,0.3005,0.4866,0.4370,0.1746,0.4866,0.4370,0.1746,0.3000,0.0600,0.0002,0,-0.3000,-100.0000,-0.0010,-0.3000,-100.0000,-0.0010,12.5054,36.2330,0.0200,0.0000
-37.0468,-2.2193,0.6872,-0.0829,-0.0821,0.0000,0.0000,0.0000,0.0000,0.2896,0.0108,-0.0003,998,1504,1501,1501,2008,1000,1505,1505,1505,1311,1854,1299,1014,-0.0387,-0.0102,-0.0560,0.0586,-0.9720,-0.2387,0.2784,-0.3001,-0.2791,0.3007,0.4866,0.4370,0.1746,0.4866,0.4370,0.1746,0.3000,0.0600,0.0002,0,-0.3000,-100.0000,-0.0010,-0.3000,-100.0000,-0.0010,12.5406,36.2744,0.0200,0.0000
-37.0904,-2.2218,0.6891,-0.0000,-0.0821,0.0000,0.0000,0.0000,0.0000,0.2897,0.0109,-0.0004,996,1502,1500,1500,2008,1000,1505,1505,1505,1311,1854,1299,1014,0.0452,-0.0331,-0.0228,0.0573,-0.9727,-0.2418,0.2784,-0.3001,-0.2792,0.3009,0.4866,0.4370,0.1746,0.4866,0.4370,0.1746,0.3000,0.0600,0.0002,0,-0.3000,-100.0000,-0.0010,-0.3000,-100.0000,-0.0010,12.5757,36.3156,0.0200,0.0000
-37.1339,-2.2243,0.6914,-0.0000,-0.0821,0.0000,0.0000,0.0000,0.0000,0.2900,0.0110,-0.0003,996,1502,1500,1500,2008,1000,1505,1505,1505,1311,1854,1299,1014,-0.0058,-0.1153,-0.0371,0.0586,-0.9717,-0.2392,0.2786,-0.3007,-0.2792,0.3013,0.4866,0.4370,0.1746,0.4866,0.4370,0.1746,0.3000,0.0600,0.0002,0,-0.3000,-100.0000,-0.0010,-0.3000,-100.0000,-0.0010,12.6108,36.3568,0.0200,0.0000
-37.1770,-2.2271,0.6931,-0.0000,-0.0821,0.0000,0.0000,0.0000,0.0000,0.2900,0.0109,-0.0006,996,1502,1500,1500,2008,1000,1505,1505,1505,1311,1854,1299,1014,0.0737,-0.0477,0.0373,0.0560,-0.9720,-0.2369,0.2785,-0.3003,-0.2797,0.3016,0.4866,0.4370,0.1746,0.4866,0.4370,0.1746,0.3000,0.0600,0.0002,0,-0.3000,-100.0000,-0.0010,-0.3000,-100.0000,-0.0010,12.6460,36.3981,0.0200,0.0000
-37.2203,-2.2292,0.6949,-0.0000,-0.0821,0.0000,0.0000,0.0000,0.0000,0.2903,0.0109,-0.0005,996,1502,1500,1500,2008,1000,1505,1505,1505,1311,1854,1299,1014,0.0398,-0.0514,-0.0057,0.0570,-0.9716,-0.2416,0.2789,-0.3008,-0.2798,0.3017,0.4866,0.4370,0.1746,0.4866,0.4370,0.1746,0.3000,0.0600,0.0002,0,-0.3000,-100.0000,-0.0010,-0.3000,-100.0000,-0.0010,12.6811,36.4393,0.0200,0.0000
-37.2637,-2.2319,0.6963,-0.0000,-0.0821,0.0000,0.0000,0.0000,0.0000,0.2905,0.0109,-0.0003,996,1502,1500,1500,2008,1000,1505,1505,1505,1311,1854,1299,1014,0.0291,-0.0098,-0.0747,0.0588,-0.9726,-0.2381,0.2794,-0.3011,-0.2799,0.3017,0.4866,0.4370,0.1746,0.4866,0.4370,0.1746,0.3000,0.0600,0.0002,0,-0.3000,-100.0000,-0.0010,-0.3000,-100.0000,-0.0010,12.7162,36.4805,0.0200,0.0000
-37.3075,-2.2341,0.6974,-0.0829,-0.0821,0.0000,0.0000,0.0000,0.0000,0.2908,0.0109,-0.0003,998,1504,1501,1501,2008,1000,1505,1505,1505,1311,1854,1299,1014,-0.0128,-0.0171,-0.0441,0.0589,-0.9710,-0.2338,0.2796,-0.3014,-0.2802,0.3020,0.4866,0.4370,0.1746,0.4866,0.4370,0.1746,0.3000,0.0600,0.0002,0,-0.3000,-100.0000,-0.0010,-0.3000,-100.0000,-0.0010,12.7514,36.5218,0.0200,0.0000
-37.3514,-2.2367,0.6983,-0.0000,-0.0821,0.0000,0.0000,0.0000,0.0000,0.2911,0.0110,-0.0003,996,1502,1500,1500,2008,1000,1505,1505,1505,1311,1854,1299,1014,-0.0285,-0.0413,-0.0596,0.0579,-0.9715,-0.2393,0.2798,-0.3017,-0.2804,0.3023,0.4866,0.4370,0.1746,0.4866,0.4370,0.1746,0.3000,0.0600,0.0002,0,-0.3000,-100.0000,-0.0010,-0.3000,-100.0000,-0.0010,12.7866,36.5630,0.0200,0.0000
-37.3952,-2.2392,0.6996,-0.0000,0.0000,0.0000,0.0000,0.0000,0.0000,0.2911,0.0109,-0.0002,996,1502,1500,1500,2008,1000,1505,1505,1505,1311,1854,1299,1014,0.0506,0.0179,-0.0919,0.0599,-0.9705,-0.2424,0.2801,-0.3018,-0.2804,0.3022,0.4866,0.4370,0.1746,0.4866,0.4370,0.1746,0.3000,0.0600,0.0002,0,-0.3000,-100.0000,-0.0010,-0.3000,-100.0000,-0.0010,12.8217,36.6042,0.0200,0.0000
-37.4376,-2.2423,0.7013,-0.0829,-0.0821,0.0000,0.0000,0.0000,0.0000,0.2912,0.0110,-0.0005,996,1502,1500,1500,2008,1000,1505,1505,1505,1311,1854,1299,1014,0.1396,-0.0451,0.0002,0.0585,-0.9728,-0.2405,0.2797,-0.3017,-0.2807,0.3027,0.4866,0.4370,0.1746,0.4866,0.4370,0.1746,0.3000,0.0600,0.0002,0,-0.3000,-100.0000,-0.0010,-0.3000,-100.0000,-0.0010,12.8569,36.6454,0.0200,0.0000
-37.4805,-2.2449,0.7031,-0.0000,-0.0821,0.0000,0.0000,0.0000,0.0000,0.2917,0.0111,-0.0006,996,1502,1500,1500,2008,1000,1505,1505,1505,1311,1854,1299,1014,-0.0147,-0.0785,0.0316,0.0627,-0.9724,-0.2417,0.2800,-0.3021,-0.2812,0.3033,0.4866,0.4370,0.1746,0.4866,0.4370,0.1746,0.3000,0.0600,0.0002,0,-0.3000,-100.0000,-0.0010,-0.3000,-100.0000,-0.0010,12.8921,36.6866,0.0200,0.0000
-37.5238,-2.2474,0.7048,-0.0000,-0.0821,0.0000,0.0000,0.0000,0.0000,0.2917,0.0110,-0.0004,996,1502,1500,1500,2008,1000,1505,1505,1505,1311,1854,1299,1014,0.0669,-0.0318,-0.0379,0.0569,-0.9701,-0.2438,0.2804,-0.3023,-0.2811,0.3031,0.4866,0.4370,0.1746,0.4866,0.4370,0.1746,0.3000,0.0600,0.0002,0,-0.3000,-100.0000,-0.0010,-0.3000,-100.0000,-0.0010,12.9273,36.7277,0.0200,0.0000
-37.5667,-2.2500,0.7069,-0.0829,-0.0821,0.0000,0.0000,0.0000,0.0000,0.2920,0.0110,-0.0005,998,1504,1501,1501,2008,1000,1505,1505,1505,1311,1854,1299,1014,0.0201,-0.0516,-0.0006,0.0585,-0.9714,-0.2426,0.2805,-0.3025,-0.2815,0.3036,0.4866,0.4370,0.1746,0.4866,0.4370,0.1746,0.3000,0.0600,0.0002,0,-0.3000,-100.0000,-0.0010,-0.3000,-100.0000,-0.0010,12.9625,36.7689,0.0200,0.0000
-37.6104,-2.2523,0.7087,-0.0829,0.0000,0.0000,0.0000,0.0000,0.0000,0.2925,0.0110,-0.0003,996,1502,1500,1500,2008,1000,1505,1505,1505,1311,1854,1299,1014,-0.1243,-0.0155,-0.0493,0.0602,-0.9713,-0.2408,0.2812,-0.3032,-0.2818,0.3038,0.4866,0.4370,0.1746,0.4866,0.4370,0.1746,0.3000,0.0600,0.0002,0,-0.3000,-100.0000,-0.0010,-0.3000,-100.0000,-0.0010,12.9976,36.8100,0.0200,0.0000
-37.6545,-2.2551,0.7099,-0.0000,-0.0821,0.0000,0.0000,0.0000,0.0000,0.2925,0.0110,-0.0002,996,1502,1500,1500,2008,1000,1505,1505,1505,1311,1854,1299,1014,0.0055,-0.0082,-0.1123,0.0579,-0.9700,-0.2393,0.2813,-0.3033,-0.2817,0.3036,0.4866,0.4370,0.1746,0.4866,0.4370,0.1746,0.3000,0.0600,0.0002,0,-0.3000,-100.0000,-0.0010,-0.3000,-100.0000,-0.0010,13.0328,36.8511,0.0200,0.0000
-37.6977,-2.2580,0.7109,-0.0000,-0.0821,0.0000,0.0000,0.0000,0.0000,0.2926,0.0110,-0.0001,996,1502,1500,1500,2008,1000,1505,1505,1505,1311,1854,1299,1014,0.0329,-0.0090,-0.1217,0.0602,-0.9727,-0.2368,0.2816,-0.3036,-0.2817,0.3037,0.4866,0.4370,0.1746,0.4866,0.4370,0.1746,0.3000,0.0600,0.0002,0,-0.3000,-100.0000,-0.0010,-0.3000,-100.0000,-0.0010,13.0680,36.8922,0.0200,0.0000
-37.7406,-2.2608,0.7127,-0.0000,-0.0821,0.0000,0.0000,0.0000,0.0000,0.2928,0.0110,-0.0003,996,1502,1500,1500,2008,1000,1505,1505,1505,1311,1854,1299,1014,0.0418,0.0213,-0.0323,0.0557,-0.9718,-0.2384,0.2815,-0.3034,-0.2822,0.3041,0.4866,0.4370,0.1746,0.4866,0.4370,0.1746,0.3000,0.0600,0.0002,0,-0.3000,-100.0000,-0.0010,-0.3000,-100.0000,-0.0010,13.1033,36.9333,0.0200,0.0000
-37.7833,-2.2631,0.7143,-0.0829,-0.0821,0.0000,0.0000,0.0000,0.0000,0.2930,0.0109,-0.0005,996,1502,1500,1500,2008,1000,1505,1505,1505,1311,1854,1299,1014,0.0694,0.0477,0.0047,0.0617,-0.9698,-0.2393,0.2816,-0.3034,-0.2826,0.3044,0.4866,0.4370,0.1746,0.4866,0.4370,0.1746,0.3000,0.0600,0.0002,0,-0.3000,-100.0000,-0.0010,-0.3000,-100.0000,-0.0010,13.1385,36.9743,0.0200,0.0000
-37.8264,-2.2651,0.7156,-0.0000,-0.0821,0.0000,0.0000,0.0000,0.0000,0.2932,0.0110,-0.0005,998,1504,1501,1501,2008,1000,1505,1505,1505,1311,1854,1299,1014,0.0579,0.0186,0.0015,0.0599,-0.9705,-0.2409,0.2817,-0.3037,-0.2827,0.3047,0.4866,0.4370,0.1746,0.4866,0.4370,0.1746,0.3000,0.0600,0.0002,0,-0.3000,-100.0000,-0.0010,-0.3000,-100.0000,-0.0010,13.1737,37.0153,0.0200,0.0000
-37.8697,-2.2675,0.7175,-0.0000,-0.0821,0.0000,0.0000,0.0000,0.0000,0.2936,0.0111,-0.0003,996,1502,1500,1500,2008,1000,1505,1505,1505,1311,1854,1299,1014,-0.0345,-0.0420,-0.0409,0.0606,-0.9720,-0.2396,0.2821,-0.3044,-0.2828,0.3050,0.4866,0.4370,0.1746,0.4866,0.4370,0.1746,0.3000,0.0600,0.0002,0,-0.3000,-100.0000,-0.0010,-0.3000,-100.0000,-0.0010,13.2089,37.0564,0.0200,0.0000
-37.9132,-2.2704,0.7189,0.0829,-0.0821,0.0000,0.0000,0.0000,0.0000,0.2937,0.0111,-0.0003,996,1502,1500,1500,2008,1000,1505,1505,1505,1311,1854,1299,1014,0.0375,-0.0113,-0.0717,0.0601,-0.9714,-0.2397,0.2823,-0.3044,-0.2829,0.3051,0.4866,0.4370,0.1746,0.4866,0.4370,0.1746,0.3000,0.0600,0.0002,0,-0.3000,-100.0000,-0.0010,-0.3000,-100.0000,-0.0010,13.2441,37.0974,0.0200,0.0000
-37.9560,-2.2729,0.7201,-0.0000,-0.0821,0.0000,0.0000,0.0000,0.0000,0.2939,0.0111,-0.0002,996,1502,1500,1500,2008,1000,1505,1505,1505,1311,1854,1299,1014,0.0300,0.0018,-0.0829,0.0594,-0.9713,-0.2376,0.2826,-0.3048,-0.2830,0.3051,0.4866,0.4370,0.1746,0.4866,0.4370,0.1746,0.3000,0.0600,0.0002,0,-0.3000,-100.0000,-0.0010,-0.3000,-100.0000,-0.0010,13.2794,37.1385,0.0200,0.0000
-37.9988,-2.2755,0.7215,-0.0000,0.0000,0.0000,0.0000,0.0000,0.0000,0.2941,0.0111,-0.0003,996,1502,1500,1500,2008,1000,1505,1505,1505,1311,1854,1299,1014,0.0522,-0.0292,-0.0465,0.0587,-0.9703,-0.2366,0.2826,-0.3049,-0.2833,0.3055,0.4866,0.4370,0.1746,0.4866,0.4370,0.1746,0.3000,0.0600,0.0002,0,-0.3000,-100.0000,-0.0010,-0.3000,-100.0000,-0.0010,13.3147,37.1795,0.0200,0.0000
-38.0420,-2.2783,0.7234,-0.0829,-0.0821,0.0000,0.0000,0.0000,0.0000,0.2944,0.0111,-0.0004,996,1502,1500,1500,2008,1000,1505,1505,1505,1311,1854,1299,1014,-0.0146,-0.0281,-0.0445,0.0583,-0.9737,-0.2434,0.2829,-0.3052,-0.2836,0.3059,0.4866,0.4370,0.1746,0.4866,0.4370,0.1746,0.3000,0.0600,0.0002,0,-0.3000,-100.0000,-0.0010,-0.3000,-100.0000,-0.0010,13.3499,37.2206,0.0200,0.0000
-38.0851,-2.2814,0.7255,-0.0000,-0.0821,0.0000,0.0000,0.0000,0.0000,0.2945,0.0112,-0.0003,998,1504,1501,1501,2008,1000,1505,1505,1505,1311,1854,1299,1014,0.0544,-0.0687,-0.0454,0.0585,-0.9733,-0.2398,0.2829,-0.3054,-0.2836,0.3060,0.4866,0.4370,0.1746,0.4866,0.4370,0.1746,0.3000,0.0600,0.0002,0,-0.3000,-100.0000,-0.0010,-0.3000,-100.0000,-0.0010,13.3852,37.2616,0.0200,0.0000
-38.1287,-2.2843,0.7272,-0.0000,-0.0821,0.0000,0.0000,0.0000,0.0000,0.2948,0.0112,-0.0003,996,1502,1500,1500,2008,1000,1505,1505,1505,1311,1854,1299,1014,-0.0303,-0.0591,-0.0509,0.0599,-0.9721,-0.2400,0.2833,-0.3057,-0.2840,0.3064,0.4866,0.4370,0.1746,0.4866,0.4370,0.1746,0.3000,0.0600,0.0002,0,-0.3000,-100.0000,-0.0010,-0.3000,-100.0000,-0.0010,13.4205,37.3027,0.0200,0.0000
-38.1722,-2.2871,0.7288,-0.0000,-0.0821,0.0000,0.0000,0.0000,0.0000,0.2950,0.0112,-0.0006,996,1502,1500,1500,2008,1000,1505,1505,1505,1311,1854,1299,1014,-0.0047,-0.0613,0.0282,0.0586,-0.9728,-0.2396,0.2832,-0.3056,-0.2844,0.3068,0.4866,0.4370,0.1746,0.4866,0.4370,0.1746,0.3000,0.0600,0.0002,0,-0.3000,-100.0000,-0.0010,-0.3000,-100.0000,-0.0010,13.4558,37.3437,0.0200,0.0000
-38.2159,-2.2898,0.7307,-0.0000,-0.0821,0.0000,0.0000,0.0000,0.0000,0.2951,0.0112,-0.0004,996,1502,1500,1500,2008,1000,1505,1505,1505,1311,1854,1299,1014,0.0459,-0.0534,-0.0274,0.0596,-0.9709,-0.2371,0.2835,-0.3060,-0.2843,0.3067,0.4866,0.4370,0.1746,0.4866,0.4370,0.1746,0.3000,0.0600,0.0002,0,-0.3000,-100.0000,-0.0010,-0.3000,-100.0000,-0.0010,13.4910,37.3847,0.0200,0.0000
-38.2592,-2.2923,0.7323,-0.0000,-0.0821,0.0000,0.0000,0.0000,0.0000,0.2954,0.0112,-0.0003,996,1502,1500,1500,2008,1000,1505,1505,1505,1311,1854,1299,1014,-0.0152,-0.0129,-0.0442,0.0609,-0.9702,-0.2376,0.2839,-0.3063,-0.2846,0.3069,0.4866,0.4370,0.1746,0.4866,0.4370,0.1746,0.3000,0.0600,0.0002,0,-0.3000,-100.0000,-0.0010,-0.3000,-100.0000,-0.0010,13.5263,37.4257,0.0200,0.0000
-38.3019,-2.2945,0.7342,0.0829,-0.0821,0.0000,0.0000,0.0000,0.0000,0.2955,0.0113,-0.0005,996,1502,1500,1500,2008,1000,1505,1505,1505,1311,1854,1299,1014,0.0700,-0.0710,0.0162,0.0597,-0.9706,-0.2428,0.2837,-0.3063,-0.2847,0.3073,0.4866,0.4370,0.1746,0.4866,0.4370,0.1746,0.3000,0.0600,0.0002,0,-0.3000,-100.0000,-0.0010,-0.3000,-100.0000,-0.0010,13.5616,37.4667,0.0200,0.0000
-38.3452,-2.2969,0.7358,-0.0000,0.0821,0.0000,0.0000,0.0000,0.0000,0.2959,0.0111,-0.0005,998,1504,1501,1501,2008,1000,1505,1505,1505,1311,1854,1299,1014,-0.0213,0.0639,-0.0019,0.0577,-0.9733,-0.2409,0.2843,-0.3065,-0.2853,0.3074,0.4866,0.4370,0.1746,0.4866,0.4370,0.1746,0.3000,0.0600,0.0002,0,-0.3000,-100.0000,-0.0010,-0.3000,-100.0000,-0.0010,13.5970,37.5076,0.0200,0.0000
-38.3883,-2.2988,0.7375,-0.0000,0.0000,0.0000,0.0000,0.0000,0.0000,0.2960,0.0112,-0.0004,996,1502,1500,1500,2008,1000,1505,1505,1505,1311,1854,1299,1014,0.0156,-0.0075,-0.0277,0.0561,-0.9729,-0.2399,0.2844,-0.3068,-0.2852,0.3076,0.4866,0.4370,0.1746,0.4866,0.4370,0.1746,0.3000,0.0600,0.0002,0,-0.3000,-100.0000,-0.0010,-0.3000,-100.0000,-0.0010,13.6323,37.5486,0.0200,0.0000
-38.4315,-2.3011,0.7391,-0.0000,-0.0821,0.0000,0.0000,0.0000,0.0000,0.2962,0.0112,-0.0004,996,1502,1500,1500,2008,1000,1505,1505,1505,1311,1854,1299,1014,0.0293,-0.0297,-0.0130,0.0574,-0.9715,-0.2431,0.2845,-0.3070,-0.2854,0.3079,0.4866,0.4370,0.1746,0.4866,0.4370,0.1746,0.3000,0.0600,0.0002,0,-0.3000,-100.0000,-0.0010,-0.3000,-100.0000,-0.0010,13.6676,37.5896,0.0200,0.0000
-38.4749,-2.3035,0.7407,-0.0000,-0.0821,0.0000,0.0000,0.0000,0.0000,0.2965,0.0113,-0.0004,996,1502,1500,1500,2008,1000,1505,1505,1505,1311,1854,1299,1014,-0.0347,-0.0599,-0.0348,0.0566,-0.9733,-0.2426,0.2849,-0.3075,-0.2856,0.3082,0.4866,0.4370,0.1746,0.4866,0.4370,0.1746,0.3000,0.0600,0.0002,0,-0.3000,-100.0000,-0.0010,-0.3000,-100.0000,-0.0010,13.7029,37.6305,0.0200,0.0000
-38.5184,-2.3061,0.7424,-0.0000,-0.0821,0.0000,0.0000,0.0000,0.0000,0.2967,0.0112,-0.0004,996,1502,1500,1500,2008,1000,1505,1505,1505,1311,1854,1299,1014,0.0151,-0.0070,-0.0304,0.0621,-0.9705,-0.2401,0.2850,-0.3075,-0.2858,0.3083,0.4866,0.4370,0.1746,0.4866,0.4370,0.1746,0.3000,0.0600,0.0002,0,-0.3000,-100.0000,-0.0010,-0.3000,-100.0000,-0.0010,13.7382,37.6714,0.0200,0.0000
-38.5620,-2.3089,0.7447,-0.0829,-0.0821,0.0000,0.0000,0.0000,0.0000,0.2969,0.0115,-0.0001,996,1502,1500,1500,2008,1000,1505,1505,1505,1311,1854,1299,1014,-0.0106,-0.1317,-0.1146,0.0594,-0.9712,-0.2416,0.2854,-0.3083,-0.2855,0.3085,0.4866,0.4370,0.1746,0.4866,0.4370,0.1746,0.3000,0.0600,0.0002,0,-0.3000,-100.0000,-0.0010,-0.3000,-100.0000,-0.0010,13.7735,37.7123,0.0200,0.0000
-38.6050,-2.3120,0.7467,-0.0000,0.0000,0.0000,0.0000,0.0000,0.0000,0.2971,0.0114,-0.0003,998,1504,1501,1501,2008,1000,1505,1505,1505,1311,1854,1299,1014,-0.0131,-0.1047,-0.0604,0.0595,-0.9706,-0.2361,0.2854,-0.3083,-0.2860,0.3088,0.4866,0.4370,0.1746,0.4866,0.4370,0.1746,0.3000,0.0600,0.0002,0,-0.3000,-100.0000,-0.0010,-0.3000,-100.0000,-0.0010,13.8089,37.7532,0.0200,0.0000
-38.6484,-2.3146,0.7489,-0.0829,-0.0821,0.0000,0.0000,0.0000,0.0000,0.2974,0.0115,-0.0004,996,1502,1500,1500,2008,1000,1505,1505,1505,1311,1854,1299,1014,-0.0311,-0.1072,-0.0305,0.0573,-0.9693,-0.2404,0.2856,-0.3085,-0.2863,0.3092,0.4866,0.4370,0.1746,0.4866,0.4370,0.1746,0.3000,0.0600,0.0002,0,-0.3000,-100.0000,-0.0010,-0.3000,-100.0000,-0.0010,13.8442,37.7941,0.0200,0.0000
-38.6916,-2.3176,0.7504,-0.0829,-0.0821,0.0000,0.0000,0.0000,0.0000,0.2975,0.0113,-0.0002,996,1502,1500,1500,2008,1000,1505,1505,1505,1311,1854,1299,1014,-0.0123,0.0097,-0.0923,0.0596,-0.9727,-0.2419,0.2861,-0.3086,-0.2865,0.3090,0.4866,0.4370,0.1746,0.4866,0.4370,0.1746,0.3000,0.0600,0.0002,0,-0.3000,-100.0000,-0.0010,-0.3000,-100.0000,-0.0010,13.8795,37.8350,0.0200,0.0000
-38.7347,-2.3202,0.7516,-0.0000,-0.0821,0.0000,0.0000,0.0000,0.0000,0.2977,0.0112,-0.0002,996,1502,1500,1500,2008,1000,1505,1505,1505,1311,1854,1299,1014,0.0287,0.0271,-0.0756,0.0591,-0.9728,-0.2416,0.2862,-0.3087,-0.2867,0.3091,0.4866,0.4370,0.1746,0.4866,0.4370,0.1746,0.3000,0.0600,0.0002,0,-0.3000,-100.0000,-0.0010,-0.3000,-100.0000,-0.0010,13.9148,37.8758,0.0200,0.0000
-38.7779,-2.3228,0.7524,-0.0000,-0.0821,0.0000,0.0000,0.0000,0.0000,0.2979,0.0112,-0.0004,996,1502,1500,1500,2008,1000,1505,1505,1505,1311,1854,1299,1014,0.0012,0.0678,-0.0409,0.0590,-0.9720,-0.2422,0.2864,-0.3088,-0.2871,0.3095,0.4866,0.4370,0.1746,0.4866,0.4370,0.1746,0.3000,0.0600,0.0002,0,-0.3000,-100.0000,-0.0010,-0.3000,-100.0000,-0.0010,13.9502,37.9167,0.0200,0.0000
-38.8213,-2.3250,0.7533,-0.0829,0.0000,0.0000,0.0000,0.0000,0.0000,0.2983,0.0113,-0.0002,996,1502,1500,1500,2008,1000,1505,1505,1505,1311,1854,1299,1014,-0.0687,0.0128,-0.0932,0.0600,-0.9711,-0.2418,0.2868,-0.3094,-0.2872,0.3098,0.4866,0.4370,0.1746,0.4866,0.4370,0.1746,0.3000,0.0600,0.0002,0,-0.3000,-100.0000,-0.0010,-0.3000,-100.0000,-0.0010,13.9856,37.9576,0.0200,0.0000
-38.8654,-2.3273,0.7551,-0.0000,-0.0821,0.0000,0.0000,0.0000,0.0000,0.2985,0.0114,-0.0002,998,1504,1501,1501,2008,1000,1505,1505,1505,1311,1854,1299,1014,-0.0999,-0.0302,-0.0644,0.0577,-0.9688,-0.2406,0.2870,-0.3097,-0.2874,0.3101,0.4866,0.4370,0.1746,0.4866,0.4370,0.1746,0.3000,0.0600,0.0002,0,-0.3000,-100.0000,-0.0010,-0.3000,-100.0000,-0.0010,14.0209,37.9984,0.0200,0.0000
-38.9089,-2.3300,0.7570,-0.0000,-0.1642,0.0000,0.0000,0.0000,0.0000,0.2985,0.0114,-0.0005,996,1502,1500,1500,2008,1000,1505,1505,1505,1311,1854,1299,1014,0.0504,-0.0595,0.0222,0.0597,-0.9724,-0.2365,0.2865,-0.3094,-0.2876,0.3105,0.4866,0.4370,0.1746,0.4866,0.4370,0.1746,0.3000,0.0600,0.0002,0,-0.3000,-100.0000,-0.0010,-0.3000,-100.0000,-0.0010,14.0563,38.0393,0.0200,0.0000
-38.9515,-2.3324,0.7582,-0.0829,0.0000,0.0000,0.0000,0.0000,0.0000,0.2987,0.0114,-0.0003,996,1502,1500,1500,2008,1000,1505,1505,1505,1311,1854,1299,1014,0.0708,-0.0517,-0.0639,0.0591,-0.9726,-0.2381,0.2870,-0.3098,-0.2875,0.3104,0.4866,0.4370,0.1746,0.4866,0.4370,0.1746,0.3000,0.0600,0.0002,0,-0.3000,-100.0000,-0.0010,-0.3000,-100.0000,-0.0010,14.0917,38.0801,0.0200,0.0000
-38.9943,-2.3346,0.7600,-0.0000,-0.0821,0.0000,0.0000,0.0000,0.0000,0.2990,0.0113,-0.0004,996,1502,1500,1500,2008,1000,1505,1505,1505,1311,1854,1299,1014,0.0240,0.0187,-0.0297,0.0596,-0.9707,-0.2434,0.2872,-0.3099,-0.2880,0.3107,0.4866,0.4370,0.1746,0.4866,0.4370,0.1746,0.3000,0.0600,0.0002,0,-0.3000,-100.0000,-0.0010,-0.3000,-100.0000,-0.0010,14.1271,38.1210,0.0200,0.0000
-39.0374,-2.3365,0.7617,0.0829,-0.0821,0.0000,0.0000,0.0000,0.0000,0.2993,0.0113,-0.0001,996,1502,1500,1500,2008,1000,1505,1505,1505,1311,1854,1299,1014,-0.0393,0.0285,-0.0878,0.0564,-0.9706,-0.2418,0.2878,-0.3105,-0.2881,0.3107,0.4866,0.4370,0.1746,0.4866,0.4370,0.1746,0.3000,0.0600,0.0002,0,-0.3000,-100.0000,-0.0010,-0.3000,-100.0000,-0.0010,14.1625,38.1618,0.0200,0.0000
-39.0808,-2.3388,0.7633,-0.0000,-0.0821,0.0000,0.0000,0.0000,0.0000,0.2994,0.0114,-0.0004,996,1502,1500,1500,2008,1000,1505,1505,1505,1311,1854,1299,1014,0.0074,-0.0085,-0.0420,0.0595,-0.9713,-0.2394,0.2877,-0.3104,-0.2884,0.3112,0.4866,0.4370,0.1746,0.4866,0.4370,0.1746,0.3000,0.0600,0.0002,0,-0.3000,-100.0000,-0.0010,-0.3000,-100.0000,-0.0010,14.1979,38.2027,0.0200,0.0000
-39.1244,-2.3409,0.7648,-0.0000,-0.0821,0.0000,0.0000,0.0000,0.0000,0.2997,0.0112,-0.0005,998,1504,1501,1501,2008,1000,1505,1505,1505,1311,1854,1299,1014,-0.0439,0.0957,0.0114,0.0600,-0.9719,-0.2437,0.2880,-0.3104,-0.2890,0.3114,0.4866,0.4370,0.1746,0.4866,0.4370,0.1746,0.3000,0.0600,0.0002,0,-0.3000,-100.0000,-0.0010,-0.3000,-100.0000,-0.0010,14.2333,38.2435,0.0200,0.0000
-39.1678,-2.3423,0.7667,-0.0000,-0.0821,0.0000,0.0000,0.0000,0.0000,0.2999,0.0114,-0.0005,996,1502,1500,1500,2008,1000,1505,1505,1505,1311,1854,1299,1014,-0.0173,0.0005,0.0424,0.0600,-0.9740,-0.2391,0.2880,-0.3108,-0.2890,0.3118,0.4866,0.4370,0.1746,0.4866,0.4370,0.1746,0.3000,0.0600,0.0002,0,-0.3000,-100.0000,-0.0010,-0.3000,-100.0000,-0.0010,14.2687,38.2842,0.0200,0.0000
-39.2108,-2.3447,0.7688,-0.0000,-0.0821,0.0000,0.0000,0.0000,0.0000,0.3000,0.0116,-0.0006,996,1502,1500,1500,2008,1000,1505,1505,1505,1311,1854,1299,1014,0.0170,-0.0917,0.0367,0.0588,-0.9674,-0.2381,0.2878,-0.3109,-0.2891,0.3122,0.4866,0.4370,0.1746,0.4866,0.4370,0.1746,0.3000,0.0600,0.0002,0,-0.3000,-100.0000,-0.0010,-0.3000,-100.0000,-0.0010,14.3041,38.3250,0.0200,0.0000
-39.2540,-2.3472,0.7716,-0.0829,-0.0821,0.0000,0.0000,0.0000,0.0000,0.3002,0.0116,-0.0005,996,1502,1500,1500,2008,1000,1505,1505,1505,1311,1854,1299,1014,0.0199,-0.0890,0.0015,0.0581,-0.9701,-0.2404,0.2882,-0.3113,-0.2891,0.3123,0.4866,0.4370,0.1746,0.4866,0.4370,0.1746,0.3000,0.0600,0.0002,0,-0.3000,-100.0000,-0.0010,-0.3000,-100.0000,-0.0010,14.3396,38.3657,0.0200,0.0000
-39.2972,-2.3497,0.7739,-0.0829,0.0000,0.0000,0.0000,0.0000,0.0000,0.3005,0.0116,-0.0006,996,1502,1500,1500,2008,1000,1505,1505,1505,1311,1854,1299,1014,0.0043,-0.0852,0.0419,0.0615,-0.9713,-0.2367,0.2883,-0.3114,-0.2895,0.3127,0.4866,0.4370,0.1746,0.4866,0.4370,0.1746,0.3000,0.0600,0.0002,0,-0.3000,-100.0000,-0.0010,-0.3000,-100.0000,-0.0010,14.3750,38.4064,0.0200,0.0000
-39.3400,-2.3521,0.7761,-0.0829,0.0000,0.0000,0.0000,0.0000,0.0000,0.3006,0.0116,-0.0003,996,1502,1500,1500,2008,1000,1505,1505,1505,1311,1854,1299,1014,0.0398,-0.0922,-0.0304,0.0571,-0.9736,-0.2404,0.2887,-0.3119,-0.2893,0.3126,0.4866,0.4370,0.1746,0.4866,0.4370,0.1746,0.3000,0.0600,0.0002,0,-0.3000,-100.0000,-0.0010,-0.3000,-100.0000,-0.0010,14.4104,38.4471,0.0200,0.0000
-39.3827,-2.3552,0.7780,-0.0000,0.0000,0.0000,0.0000,0.0000,0.0000,0.3008,0.0115,-0.0003,998,1504,1501,1501,2008,1000,1505,1505,1505,1311,1854,1299,1014,0.0421,-0.0410,-0.0401,0.0618,-0.9714,-0.2389,0.2890,-0.3120,-0.2896,0.3127,0.4866,0.4370,0.1746,0.4866,0.4370,0.1746,0.3000,0.0600,0.0002,0,-0.3000,-100.0000,-0.0010,-0.3000,-100.0000,-0.0010,14.4459,38.4878,0.0200,0.0000
-39.4258,-2.3578,0.7793,-0.0000,-0.0821,0.0000,0.0000,0.0000,0.0000,0.3011,0.0115,-0.0001,996,1502,1500,1500,2008,1000,1505,1505,1505,1311,1854,1299,1014,-0.0301,-0.0013,-0.0974,0.0575,-0.9716,-0.2404,0.2895,-0.3125,-0.2898,0.3128,0.4866,0.4370,0.1746,0.4866,0.4370,0.1746,0.3000,0.0600,0.0002,0,-0.3000,-100.0000,-0.0010,-0.3000,-100.0000,-0.0010,14.4813,38.5285,0.0200,0.0000
-39.4688,-2.3604,0.7802,-0.0829,-0.0821,0.0000,0.0000,0.0000,0.0000,0.3013,0.0114,-0.0002,996,1502,1500,1500,2008,1000,1505,1505,1505,1311,1854,1299,1014,-0.0206,0.0236,-0.0833,0.0574,-0.9694,-0.2362,0.2897,-0.3126,-0.2901,0.3130,0.4866,0.4370,0.1746,0.4866,0.4370,0.1746,0.3000,0.0600,0.0002,0,-0.3000,-100.0000,-0.0010,-0.3000,-100.0000,-0.0010,14.5167,38.5692,0.0200,0.0000
-39.5122,-2.3629,0.7817,-0.0000,-0.0821,0.0000,0.0000,0.0000,0.0000,0.3015,0.0116,-0.0003,996,1502,1500,1500,2008,1000,1505,1505,1505,1311,1854,1299,1014,-0.0099,-0.0567,-0.0609,0.0574,-0.9712,-0.2394,0.2897,-0.3129,-0.2902,0.3134,0.4866,0.4370,0.1746,0.4866,0.4370,0.1746,0.3000,0.0600,0.0002,0,-0.3000,-100.0000,-0.0010,-0.3000,-100.0000,-0.0010,14.5522,38.6099,0.0200,0.0000
-39.5549,-2.3650,0.7837,-0.0000,-0.0821,0.0000,0.0000,0.0000,0.0000,0.3015,0.0116,-0.0005,996,1502,1500,1500,2008,1000,1505,1505,1505,1311,1854,1299,1014,0.1219,-0.0790,0.0064,0.0547,-0.9715,-0.2405,0.2894,-0.3127,-0.2903,0.3136,0.4866,0.4370,0.1746,0.4866,0.4370,0.1746,0.3000,0.0600,0.0002,0,-0.3000,-100.0000,-0.0010,-0.3000,-100.0000,-0.0010,14.5877,38.6505,0.0200,0.0000
-39.5973,-2.3678,0.7853,-0.0000,-0.0821,0.0000,0.0000,0.0000,0.0000,0.3019,0.0117,-0.0003,996,1502,1500,1500,2008,1000,1505,1505,1505,1311,1854,1299,1014,0.0449,-0.1018,-0.0562,0.0604,-0.9712,-0.2426,0.2898,-0.3132,-0.2905,0.3139,0.4866,0.4370,0.1746,0.4866,0.4370,0.1746,0.3000,0.0600,0.0002,0,-0.3000,-100.0000,-0.0010,-0.3000,-100.0000,-0.0010,14.6231,38.6912,0.0200,0.0000
-39.6400,-2.3706,0.7870,-0.0000,-0.0821,0.0000,0.0000,0.0000,0.0000,0.3021,0.0115,-0.0004,998,1504,1501,1501,2008,1000,1505,1505,1505,1311,1854,1299,1014,0.0116,0.0185,-0.0298,0.0577,-0.9726,-0.2351,0.2903,-0.3133,-0.2910,0.3140,0.4866,0.4370,0.1746,0.4866,0.4370,0.1746,0.3000,0.0600,0.0002,0,-0.3000,-100.0000,-0.0010,-0.3000,-100.0000,-0.0010,14.6586,38.7319,0.0200,0.0000
-39.6831,-2.3727,0.7882,-0.0829,0.0000,0.0000,0.0000,0.0000,0.0000,0.3024,0.0116,-0.0004,996,1502,1500,1500,2008,1000,1505,1505,1505,1311,1854,1299,1014,-0.0055,-0.0574,-0.0105,0.0587,-0.9711,-0.2370,0.2903,-0.3136,-0.2911,0.3144,0.4866,0.4370,0.1746,0.4866,0.4370,0.1746,0.3000,0.0600,0.0002,0,-0.3000,-100.0000,-0.0010,-0.3000,-100.0000,-0.0010,14.6941,38.7725,0.0200,0.0000
-39.7264,-2.3750,0.7901,0.0829,-0.0821,0.0000,0.0000,0.0000,0.0000,0.3027,0.0117,-0.0005,996,1502,1500,1500,2008,1000,1505,1505,1505,1311,1854,1299,1014,-0.0570,-0.0603,-0.0002,0.0562,-0.9699,-0.2401,0.2905,-0.3139,-0.2915,0.3148,0.4866,0.4370,0.1746,0.4866,0.4370,0.1746,0.3000,0.0600,0.0002,0,-0.3000,-100.0000,-0.0010,-0.3000,-100.0000,-0.0010,14.7296,38.8132,0.0200,0.0000
-39.7701,-2.3781,0.7923,-0.0829,-0.0821,0.0000,0.0000,0.0000,0.0000,0.3028,0.0118,-0.0002,996,1502,1500,1500,2008,1000,1505,1505,1505,1311,1854,1299,1014,-0.0258,-0.1266,-0.0726,0.0603,-0.9718,-0.2363,0.2908,-0.3144,-0.2912,0.3148,0.4866,0.4370,0.1746,0.4866,0.4370,0.1746,0.3000,0.0600,0.0002,0,-0.3000,-100.0000,-0.0010,-0.3000,-100.0000,-0.0010,14.7651,38.8539,0.0200,0.0000
-39.8134,-2.3814,0.7939,-0.0000,-0.0821,0.0000,0.0000,0.0000,0.0000,0.3030,0.0117,-0.0003,996,1502,1500,1500,2008,1000,1505,1505,1505,1311,1854,1299,1014,-0.0002,-0.0567,-0.0719,0.0586,-0.9707,-0.2410,0.2910,-0.3144,-0.2916,0.3149,0.4866,0.4370,0.1746,0.4866,0.4370,0.1746,0.3000,0.0600,0.0002,0,-0.3000,-100.0000,-0.0010,-0.3000,-100.0000,-0.0010,14.8006,38.8945,0.0200,0.0000
-39.8565,-2.3844,0.7954,-0.0000,-0.0821,0.0000,0.0000,0.0000,0.0000,0.3031,0.0118,-0.0007,996,1502,1500,1500,2008,1000,1505,1505,1505,1311,1854,1299,1014,0.0385,-0.0916,0.0362,0.0620,-0.9715,-0.2414,0.2907,-0.3142,-0.2920,0.3155,0.4866,0.4370,0.1746,0.4866,0.4370,0.1746,0.3000,0.0600,0.0002,0,-0.3000,-100.0000,-0.0010,-0.3000,-100.0000,-0.0010,14.8362,38.9352,0.0200,0.0000
-39.8995,-2.3866,0.7975,0.0829,-0.0821,0.0000,0.0000,0.0000,0.0000,0.3034,0.0117,-0.0006,998,1504,1501,1501,2008,1000,1505,1505,1505,1311,1854,1299,1014,0.0031,-0.0603,0.0380,0.0586,-0.9739,-0.2389,0.2911,-0.3145,-0.2923,0.3157,0.4866,0.4370,0.1746,0.4866,0.4370,0.1746,0.3000,0.0600,0.0002,0,-0.3000,-100.0000,-0.0010,-0.3000,-100.0000,-0.0010,14.8717,38.9758,0.0200,0.0000
-39.9429,-2.3893,0.8002,-0.0000,-0.0821,0.0000,0.0000,0.0000,0.0000,0.3037,0.0117,-0.0005,996,1502,1500,1500,2008,1000,1505,1505,1505,1311,1854,1299,1014,-0.0519,-0.0206,0.0156,0.0593,-0.9745,-0.2413,0.2915,-0.3149,-0.2926,0.3159,0.4866,0.4370,0.1746,0.4866,0.4370,0.1746,0.3000,0.0600,0.0002,0,-0.3000,-100.0000,-0.0010,-0.3000,-100.0000,-0.0010,14.9072,39.0165,0.0200,0.0000
-39.9864,-2.3917,0.8025,-0.0829,0.0000,0.0000,0.0000,0.0000,0.0000,0.3039,0.0118,-0.0006,996,1502,1500,1500,2008,1000,1505,1505,1505,1311,1854,1299,1014,-0.0586,-0.1157,0.0511,0.0574,-0.9739,-0.2401,0.2915,-0.3152,-0.2927,0.3164,0.4866,0.4370,0.1746,0.4866,0.4370,0.1746,0.3000,0.0600,0.0002,0,-0.3000,-100.0000,-0.0010,-0.3000,-100.0000,-0.0010,14.9428,39.0571,0.0200,0.0000
-40.0294,-2.3942,0.8042,-0.0000,0.0000,0.0000,0.0000,0.0000,0.0000,0.3040,0.0117,-0.0002,996,1502,1500,1500,2008,1000,1505,1505,1505,1311,1854,1299,1014,-0.0080,-0.0052,-0.0656,0.0606,-0.9699,-0.2435,0.2922,-0.3155,-0.2926,0.3159,0.4866,0.4370,0.1746,0.4866,0.4370,0.1746,0.3000,0.0600,0.0002,0,-0.3000,-100.0000,-0.0010,-0.3000,-100.0000,-0.0010,14.9783,39.0977,0.0200,0.0000
-40.0726,-2.3967,0.8056,-0.0000,-0.0821,0.0000,0.0000,0.0000,0.0000,0.3043,0.0117,-0.0003,996,1502,1500,1500,2008,1000,1505,1505,1505,1311,1854,1299,1014,-0.0217,-0.0005,-0.0636,0.0592,-0.9685,-0.2406,0.2923,-0.3157,-0.2929,0.3162,0.4866,0.4370,0.1746,0.4866,0.4370,0.1746,0.3000,0.0600,0.0002,0,-0.3000,-100.0000,-0.0010,-0.3000,-100.0000,-0.0010,15.0139,39.1383,0.0200,0.0000
-40.1158,-2.3995,0.8070,-0.0000,-0.0821,0.0000,0.0000,0.0000,0.0000,0.3045,0.0117,-0.0002,996,1502,1500,1500,2008,1000,1505,1505,1505,1311,1854,1299,1014,-0.0335,-0.0151,-0.0738,0.0585,-0.9685,-0.2380,0.2926,-0.3160,-0.2930,0.3165,0.4866,0.4370,0.1746,0.4866,0.4370,0.1746,0.3000,0.0600,0.0002,0,-0.3000,-100.0000,-0.0010,-0.3000,-100.0000,-0.0010,15.0494,39.1789,0.0200,0.0000
-40.1585,-2.4018,0.8084,-0.0829,-0.0821,0.0000,0.0000,0.0000,0.0000,0.3045,0.0117,-0.0003,998,1504,1501,1501,2008,1000,1505,1505,1505,1311,1854,1299,1014,0.0670,-0.0291,-0.0397,0.0564,-0.9665,-0.2394,0.2925,-0.3159,-0.2931,0.3166,0.4866,0.4370,0.1746,0.4866,0.4370,0.1746,0.3000,0.0600,0.0002,0,-0.3000,-100.0000,-0.0010,-0.3000,-100.0000,-0.0010,15.0850,39.2194,0.0200,0.0000
-40.2014,-2.4040,0.8101,-0.0829,0.0000,0.0000,0.0000,0.0000,0.0000,0.3049,0.0117,-0.0005,996,1502,1500,1500,2008,1000,1505,1505,1505,1311,1854,1299,1014,0.0072,0.0167,0.0044,0.0597,-0.9721,-0.2417,0.2927,-0.3160,-0.2937,0.3170,0.4866,0.4370,0.1746,0.4866,0.4370,0.1746,0.3000,0.0600,0.0002,0,-0.3000,-100.0000,-0.0010,-0.3000,-100.0000,-0.0010,15.1205,39.2599,0.0200,0.0000
-40.2444,-2.4060,0.8118,-0.0000,-0.0821,0.0000,0.0000,0.0000,0.0000,0.3050,0.0118,-0.0004,996,1502,1500,1500,2008,1000,1505,1505,1505,1311,1854,1299,1014,0.0181,-0.0297,-0.0147,0.0591,-0.9719,-0.2387,0.2928,-0.3164,-0.2937,0.3173,0.4866,0.4370,0.1746,0.4866,0.4370,0.1746,0.3000,0.0600,0.0002,0,-0.3000,-100.0000,-0.0010,-0.3000,-100.0000,-0.0010,15.1561,39.3005,0.0200,0.0000
-40.2871,-2.4083,0.8137,-0.0000,-0.0821,0.0000,0.0000,0.0000,0.0000,0.3053,0.0119,-0.0002,996,1502,1500,1500,2008,1000,1505,1505,1505,1311,1854,1299,1014,0.0202,-0.0870,-0.0953,0.0590,-0.9715,-0.2417,0.2932,-0.3170,-0.2936,0.3173,0.4866,0.4370,0.1746,0.4866,0.4370,0.1746,0.3000,0.0600,0.0002,0,-0.3000,-100.0000,-0.0010,-0.3000,-100.0000,-0.0010,15.1916,39.3410,0.0200,0.0000
-40.3294,-2.4116,0.8157,-0.0829,-0.0821,0.0000,0.0000,0.0000,0.0000,0.3054,0.0120,-0.0003,996,1502,1500,1500,2008,1000,1505,1505,1505,1311,1854,1299,1014,0.0323,-0.1244,-0.0613,0.0562,-0.9710,-0.2363,0.2932,-0.3171,-0.2938,0.3177,0.4866,0.4370,0.1746,0.4866,0.4370,0.1746,0.3000,0.0600,0.0002,0,-0.3000,-100.0000,-0.0010,-0.3000,-100.0000,-0.0010,15.2272,39.3815,0.0200,0.0000
-40.3725,-2.4143,0.8173,-0.0000,-0.0821,0.0000,0.0000,0.0000,0.0000,0.3058,0.0118,-0.0001,996,1502,1500,1500,2008,1000,1505,1505,1505,1311,1854,1299,1014,-0.0355,-0.0410,-0.1066,0.0580,-0.9703,-0.2392,0.2938,-0.3175,-0.2941,0.3177,0.4866,0.4370,0.1746,0.4866,0.4370,0.1746,0.3000,0.0600,0.0002,0,-0.3000,-100.0000,-0.0010,-0.3000,-100.0000,-0.0010,15.2628,39.4220,0.0200,0.0000
-40.4160,-2.4168,0.8189,0.0829,0.0000,0.0000,0.0000,0.0000,0.0000,0.3060,0.0118,-0.0005,998,1504,1501,1501,2008,1000,1505,1505,1505,1311,1854,1299,1014,-0.0329,-0.0340,0.0193,0.0578,-0.9703,-0.2436,0.2936,-0.3173,-0.2947,0.3183,0.4866,0.4370,0.1746,0.4866,0.4370,0.1746,0.3000,0.0600,0.0002,0,-0.3000,-100.0000,-0.0010,-0.3000,-100.0000,-0.0010,15.2983,39.4625,0.0200,0.0000
-40.4585,-2.4192,0.8206,-0.0829,-0.0821,0.0000,0.0000,0.0000,0.0000,0.3060,0.0119,-0.0002,996,1502,1500,1500,2008,1000,1505,1505,1505,1311,1854,1299,1014,0.0746,-0.0641,-0.0640,0.0618,-0.9698,-0.2430,0.2939,-0.3177,-0.2943,0.3181,0.4866,0.4370,0.1746,0.4866,0.4370,0.1746,0.3000,0.0600,0.0002,0,-0.3000,-100.0000,-0.0010,-0.3000,-100.0000,-0.0010,15.3339,39.5030,0.0200,0.0000
-40.5013,-2.4222,0.8225,-0.0000,-0.0821,0.0000,0.0000,0.0000,0.0000,0.3063,0.0119,-0.0003,996,1502,1500,1500,2008,1000,1505,1505,1505,1311,1854,1299,1014,-0.0020,-0.0448,-0.0629,0.0592,-0.9723,-0.2401,0.2942,-0.3179,-0.2947,0.3185,0.4866,0.4370,0.1746,0.4866,0.4370,0.1746,0.3000,0.0600,0.0002,0,-0.3000,-100.0000,-0.0010,-0.3000,-100.0000,-0.0010,15.3695,39.5435,0.0200,0.0000
-40.5442,-2.4242,0.8245,-0.0000,-0.0821,0.0000,0.0000,0.0000,0.0000,0.3065,0.0119,-0.0003,996,1502,1500,1500,2008,1000,1505,1505,1505,1311,1854,1299,1014,0.0344,-0.0693,-0.0361,0.0590,-0.9723,-0.2421,0.2943,-0.3181,-0.2949,0.3187,0.4866,0.4370,0.1746,0.4866,0.4370,0.1746,0.3000,0.0600,0.0002,0,-0.3000,-100.0000,-0.0010,-0.3000,-100.0000,-0.0010,15.4051,39.5840,0.0200,0.0000
-40.5873,-2.4259,0.8261,-0.0000,-0.0821,0.0000,0.0000,0.0000,0.0000,0.3069,0.0116,-0.0004,996,1502,1500,1500,2008,1000,1505,1505,1505,1311,1854,1299,1014,-0.0738,0.1094,-0.0242,0.0587,-0.9721,-0.2380,0.2949,-0.3181,-0.2956,0.3189,0.4866,0.4370,0.1746,0.4866,0.4370,0.1746,0.3000,0.0600,0.0002,0,-0.3000,-100.0000,-0.0010,-0.3000,-100.0000,-0.0010,15.4407,39.6244,0.0200,0.0000
-40.6309,-2.4277,0.8272,-0.0000,-0.0821,0.0000,0.0000,0.0000,0.0000,0.3071,0.0117,-0.0003,996,1502,1500,1500,2008,1000,1505,1505,1505,1311,1854,1299,1014,-0.0800,0.0427,-0.0599,0.0594,-0.9732,-0.2425,0.2951,-0.3186,-0.2956,0.3191,0.4866,0.4370,0.1746,0.4866,0.4370,0.1746,0.3000,0.0600,0.0002,0,-0.3000,-100.0000,-0.0010,-0.3000,-100.0000,-0.0010,15.4764,39.6648,0.0200,0.0000
-40.6740,-2.4304,0.8284,-0.0000,0.0000,0.0000,0.0000,0.0000,0.0000,0.3072,0.0120,-0.0001,998,1504,1501,1501,2008,1000,1505,1505,1505,1311,1854,1299,1014,-0.0111,-0.0788,-0.1131,0.0585,-0.9703,-0.2412,0.2952,-0.3191,-0.2953,0.3192,0.4866,0.4370,0.1746,0.4866,0.4370,0.1746,0.3000,0.0600,0.0002,0,-0.3000,-100.0000,-0.0010,-0.3000,-100.0000,-0.0010,15.5120,39.7053,0.0200,0.0000
-40.7171,-2.4329,0.8302,-0.0000,-0.0821,0.0000,0.0000,0.0000,0.0000,0.3073,0.0119,-0.0004,996,1502,1500,1500,2008,1000,1505,1505,1505,1311,1854,1299,1014,0.0203,-0.0414,0.0110,0.0622,-0.9703,-0.2405,0.2950,-0.3188,-0.2959,0.3197,0.4866,0.4370,0.1746,0.4866,0.4370,0.1746,0.3000,0.0600,0.0002,0,-0.3000,-100.0000,-0.0010,-0.3000,-100.0000,-0.0010,15.5476,39.7457,0.0200,0.0000
-40.7601,-2.4351,0.8319,-0.0829,0.0000,0.0000,0.0000,0.0000,0.0000,0.3075,0.0118,-0.0003,996,1502,1500,1500,2008,1000,1505,1505,1505,1311,1854,1299,1014,0.0304,0.0150,-0.0450,0.0560,-0.9721,-0.2391,0.2954,-0.3191,-0.2960,0.3196,0.4866,0.4370,0.1746,0.4866,0.4370,0.1746,0.3000,0.0600,0.0002,0,-0.3000,-100.0000,-0.0010,-0.3000,-100.0000,-0.0010,15.5833,39.7861,0.0200,0.0000
-40.8027,-2.4376,0.8333,-0.0829,-0.0821,0.0000,0.0000,0.0000,0.0000,0.3078,0.0121,-0.0003,996,1502,1500,1500,2008,1000,1505,1505,1505,1311,1854,1299,1014,0.0163,-0.1148,-0.0580,0.0612,-0.9701,-0.2455,0.2954,-0.3195,-0.2960,0.3202,0.4866,0.4370,0.1746,0.4866,0.4370,0.1746,0.3000,0.0600,0.0002,0,-0.3000,-100.0000,-0.0010,-0.3000,-100.0000,-0.0010,15.6189,39.8265,0.0200,0.0000
-40.8455,-2.4409,0.8351,-0.0829,-0.0821,0.0000,0.0000,0.0000,0.0000,0.3080,0.0119,-0.0002,996,1502,1500,1500,2008,1000,1505,1505,1505,1311,1854,1299,1014,0.0127,-0.0280,-0.1110,0.0629,-0.9743,-0.2396,0.2959,-0.3197,-0.2962,0.3201,0.4866,0.4370,0.1746,0.4866,0.4370,0.1746,0.3000,0.0600,0.0002,0,-0.3000,-100.0000,-0.0010,-0.3000,-100.0000,-0.0010,15.6546,39.8669,0.0200,0.0000
-40.8885,-2.4428,0.8365,-0.0000,-0.0821,0.0000,0.0000,0.0000,0.0000,0.3083,0.0119,-0.0005,996,1502,1500,1500,2008,1000,1505,1505,1505,1311,1854,1299,1014,-0.0229,-0.0123,0.0041,0.0609,-0.9717,-0.2427,0.2959,-0.3197,-0.2968,0.3206,0.4866,0.4370,0.1746,0.4866,0.4370,0.1746,0.3000,0.0600,0.0002,0,-0.3000,-100.0000,-0.0010,-0.3000,-100.0000,-0.0010,15.6903,39.9073,0.0200,0.0000
-40.9318,-2.4456,0.8387,0.0829,-0.0821,0.0000,0.0000,0.0000,0.0000,0.3085,0.0121,-0.0006,998,1504,1501,1501,2008,1000,1505,1505,1505,1311,1854,1299,1014,-0.0234,-0.0898,0.0288,0.0579,-0.9699,-0.2347,0.2958,-0.3200,-0.2970,0.3211,0.4866,0.4370,0.1746,0.4866,0.4370,0.1746,0.3000,0.0600,0.0002,0,-0.3000,-100.0000,-0.0010,-0.3000,-100.0000,-0.0010,15.7259,39.9477,0.0200,0.0000
-40.9746,-2.4478,0.8408,-0.0829,-0.0821,0.0000,0.0000,0.0000,0.0000,0.3088,0.0118,-0.0002,996,1502,1500,1500,2008,1000,1505,1505,1505,1311,1854,1299,1014,-0.0826,0.0627,-0.0611,0.0600,-0.9724,-0.2389,0.2967,-0.3203,-0.2972,0.3208,0.4866,0.4370,0.1746,0.4866,0.4370,0.1746,0.3000,0.0600,0.0002,0,-0.3000,-100.0000,-0.0010,-0.3000,-100.0000,-0.0010,15.7616,39.9880,0.0200,0.0000
-41.0178,-2.4500,0.8422,-0.0000,-0.0821,0.0000,0.0000,0.0000,0.0000,0.3088,0.0119,0.0000,996,1502,1500,1500,2008,1000,1505,1505,1505,1311,1854,1299,1014,0.0118,-0.0147,-0.1356,0.0572,-0.9743,-0.2406,0.2969,-0.3208,-0.2969,0.3208,0.4866,0.4370,0.1746,0.4866,0.4370,0.1746,0.3000,0.0600,0.0002,0,-0.3000,-100.0000,-0.0010,-0.3000,-100.0000,-0.0010,15.7973,40.0284,0.0200,0.0000
-41.0611,-2.4527,0.8435,-0.0000,0.0000,0.0000,0.0000,0.0000,0.0000,0.3090,0.0121,-0.0003,996,1502,1500,1500,2008,1000,1505,1505,1505,1311,1854,1299,1014,0.0115,-0.0991,-0.0542,0.0604,-0.9683,-0.2376,0.2966,-0.3208,-0.2972,0.3214,0.4866,0.4370,0.1746,0.4866,0.4370,0.1746,0.3000,0.0600,0.0002,0,-0.3000,-100.0000,-0.0010,-0.3000,-100.0000,-0.0010,15.8330,40.0687,0.0200,0.0000
-41.1035,-2.4555,0.8457,-0.0829,0.0000,0.0000,0.0000,0.0000,0.0000,0.3092,0.0120,-0.0004,996,1502,1500,1500,2008,1000,1505,1505,1505,1311,1854,1299,1014,0.0335,-0.0390,-0.0216,0.0582,-0.9710,-0.2375,0.2968,-0.3208,-0.2976,0.3216,0.4866,0.4370,0.1746,0.4866,0.4370,0.1746,0.3000,0.0600,0.0002,0,-0.3000,-100.0000,-0.0010,-0.3000,-100.0000,-0.0010,15.8687,40.1091,0.0200,0.0000
-41.1462,-2.4580,0.8478,-0.0000,-0.0821,0.0000,0.0000,0.0000,0.0000,0.3094,0.0121,-0.0003,996,1502,1500,1500,2008,1000,1505,1505,1505,1311,1854,1299,1014,0.0173,-0.0967,-0.0502,0.0615,-0.9717,-0.2397,0.2970,-0.3213,-0.2976,0.3219,0.4866,0.4370,0.1746,0.4866,0.4370,0.1746,0.3000,0.0600,0.0002,0,-0.3000,-100.0000,-0.0010,-0.3000,-100.0000,-0.0010,15.9044,40.1494,0.0200,0.0000
-41.1888,-2.4607,0.8500,-0.0000,0.0000,0.0000,0.0000,0.0000,0.0000,0.3097,0.0120,-0.0003,998,1504,1501,1501,2008,1000,1505,1505,1505,1311,1854,1299,1014,-0.0214,-0.0418,-0.0332,0.0607,-0.9725,-0.2426,0.2974,-0.3214,-0.2980,0.3221,0.4866,0.4370,0.1746,0.4866,0.4370,0.1746,0.3000,0.0600,0.0002,0,-0.3000,-100.0000,-0.0010,-0.3000,-100.0000,-0.0010,15.9401,40.1898,0.0200,0.0000
-41.2315,-2.4637,0.8518,-0.0000,-0.0821,0.0000,0.0000,0.0000,0.0000,0.3098,0.0121,-0.0001,996,1502,1500,1500,2008,1000,1505,1505,1505,1311,1854,1299,1014,0.0367,-0.0890,-0.1057,0.0603,-0.9702,-0.2408,0.2975,-0.3218,-0.2978,0.3221,0.4866,0.4370,0.1746,0.4866,0.4370,0.1746,0.3000,0.0600,0.0002,0,-0.3000,-100.0000,-0.0010,-0.3000,-100.0000,-0.0010,15.9758,40.2301,0.0200,0.0000
-41.2745,-2.4663,0.8533,0.0829,-0.0821,0.0000,0.0000,0.0000,0.0000,0.3101,0.0120,-0.0002,996,1502,1500,1500,2008,1000,1505,1505,1505,1311,1854,1299,1014,-0.0076,0.0027,-0.0804,0.0613,-0.9718,-0.2446,0.2979,-0.3219,-0.2983,0.3223,0.4866,0.4370,0.1746,0.4866,0.4370,0.1746,0.3000,0.0600,0.0002,0,-0.3000,-100.0000,-0.0010,-0.3000,-100.0000,-0.0010,16.0115,40.2704,0.0200,0.0000
-41.3176,-2.4689,0.8553,-0.0000,-0.0821,0.0000,0.0000,0.0000,0.0000,0.3103,0.0121,-0.0003,996,1502,1500,1500,2008,1000,1505,1505,1505,1311,1854,1299,1014,0.0042,-0.0669,-0.0645,0.0608,-0.9700,-0.2422,0.2979,-0.3221,-0.2984,0.3227,0.4866,0.4370,0.1746,0.4866,0.4370,0.1746,0.3000,0.0600,0.0002,0,-0.3000,-100.0000,-0.0010,-0.3000,-100.0000,-0.0010,16.0472,40.3107,0.0200,0.0000
-41.3603,-2.4714,0.8574,-0.0829,0.0000,0.0000,0.0000,0.0000,0.0000,0.3105,0.0122,-0.0004,996,1502,1500,1500,2008,1000,1505,1505,1505,1311,1854,1299,1014,0.0147,-0.0762,-0.0076,0.0593,-0.9678,-0.2426,0.2979,-0.3222,-0.2988,0.3231,0.4866,0.4370,0.1746,0.4866,0.4370,0.1746,0.3000,0.0600,0.0002,0,-0.3000,-100.0000,-0.0010,-0.3000,-100.0000,-0.0010,16.0829,40.3509,0.0200,0.0000
-41.4028,-2.4735,0.8598,-0.0000,0.0000,0.0000,0.0000,0.0000,0.0000,0.3106,0.0122,-0.0004,996,1502,1500,1500,2008,1000,1505,1505,1505,1311,1854,1299,1014,0.0737,-0.1136,-0.0095,0.0602,-0.9726,-0.2404,0.2980,-0.3224,-0.2987,0.3232,0.4866,0.4370,0.1746,0.4866,0.4370,0.1746,0.3000,0.0600,0.0002,0,-0.3000,-100.0000,-0.0010,-0.3000,-100.0000,-0.0010,16.1187,40.3912,0.0200,0.0000
-41.4459,-2.4763,0.8621,-0.0829,-0.0821,0.0000,0.0000,0.0000,0.0000,0.3109,0.0122,-0.0005,998,1504,1501,1501,2008,1000,1505,1505,1505,1311,1854,1299,1014,0.0042,-0.1078,0.0227,0.0602,-0.9713,-0.2376,0.2981,-0.3226,-0.2992,0.3237,0.4866,0.4370,0.1746,0.4866,0.4370,0.1746,0.3000,0.0600,0.0002,0,-0.3000,-100.0000,-0.0010,-0.3000,-100.0000,-0.0010,16.1544,40.4315,0.0200,0.0000
-41.4887,-2.4789,0.8651,-0.0000,-0.0821,0.0000,0.0000,0.0000,0.0000,0.3111,0.0122,-0.0005,996,1502,1500,1500,2008,1000,1505,1505,1505,1311,1854,1299,1014,0.0347,-0.0848,-0.0001,0.0578,-0.9720,-0.2375,0.2984,-0.3228,-0.2993,0.3237,0.4866,0.4370,0.1746,0.4866,0.4370,0.1746,0.3000,0.0600,0.0002,0,-0.3000,-100.0000,-0.0010,-0.3000,-100.0000,-0.0010,16.1901,40.4718,0.0200,0.0000
-41.5315,-2.4812,0.8676,-0.0829,-0.0821,0.0000,0.0000,0.0000,0.0000,0.3114,0.0122,-0.0004,996,1502,1500,1500,2008,1000,1505,1505,1505,1311,1854,1299,1014,-0.0140,-0.0641,-0.0269,0.0567,-0.9730,-0.2410,0.2988,-0.3232,-0.2995,0.3239,0.4866,0.4370,0.1746,0.4866,0.4370,0.1746,0.3000,0.0600,0.0002,0,-0.3000,-100.0000,-0.0010,-0.3000,-100.0000,-0.0010,16.2259,40.5121,0.0200,0.0000
-41.5742,-2.4840,0.8697,-0.0000,-0.0821,0.0000,0.0000,0.0000,0.0000,0.3115,0.0122,-0.0001,996,1502,1500,1500,2008,1000,1505,1505,1505,1311,1854,1299,1014,0.0087,-0.0692,-0.1151,0.0596,-0.9717,-0.2405,0.2993,-0.3237,-0.2994,0.3238,0.4866,0.4370,0.1746,0.4866,0.4370,0.1746,0.3000,0.0600,0.0002,0,-0.3000,-100.0000,-0.0010,-0.3000,-100.0000,-0.0010,16.2617,40.5523,0.0200,0.0000
-41.6170,-2.4868,0.8711,-0.0829,-0.0821,0.0000,0.0000,0.0000,0.0000,0.3118,0.0121,-0.0003,996,1502,1500,1500,2008,1000,1505,1505,1505,1311,1854,1299,1014,-0.0132,-0.0099,-0.0620,0.0590,-0.9696,-0.2403,0.2993,-0.3236,-0.3000,0.3242,0.4866,0.4370,0.1746,0.4866,0.4370,0.1746,0.3000,0.0600,0.0002,0,-0.3000,-100.0000,-0.0010,-0.3000,-100.0000,-0.0010,16.2974,40.5926,0.0200,0.0000
-41.6598,-2.4893,0.8729,-0.0000,-0.0821,0.0000,0.0000,0.0000,0.0000,0.3121,0.0122,-0.0004,996,1502,1500,1500,2008,1000,1505,1505,1505,1311,1854,1299,1014,-0.0516,-0.0558,-0.0357,0.0595,-0.9719,-0.2366,0.2995,-0.3239,-0.3002,0.3246,0.4866,0.4370,0.1746,0.4866,0.4370,0.1746,0.3000,0.0600,0.0002,0,-0.3000,-100.0000,-0.0010,-0.3000,-100.0000,-0.0010,16.3332,40.6328,0.0200,0.0000
-41.7025,-2.4914,0.8744,-0.0829,-0.0821,0.0000,0.0000,0.0000,0.0000,0.3121,0.0122,-0.0002,998,1504,1501,1501,2008,1000,1505,1505,1505,1311,1854,1299,1014,0.0265,-0.0271,-0.0748,0.0581,-0.9724,-0.2379,0.2998,-0.3241,-0.3002,0.3245,0.4866,0.4370,0.1746,0.4866,0.4370,0.1746,0.3000,0.0600,0.0002,0,-0.3000,-100.0000,-0.0010,-0.3000,-100.0000,-0.0010,16.3690,40.6730,0.0200,0.0000
-41.7454,-2.4944,0.8761,-0.0000,0.0000,0.0000,0.0000,0.0000,0.0000,0.3124,0.0122,-0.0003,996,1502,1500,1500,2008,1000,1505,1505,1505,1311,1854,1299,1014,0.0184,-0.0568,-0.0580,0.0597,-0.9710,-0.2372,0.2998,-0.3243,-0.3004,0.3249,0.4866,0.4370,0.1746,0.4866,0.4370,0.1746,0.3000,0.0600,0.0002,0,-0.3000,-100.0000,-0.0010,-0.3000,-100.0000,-0.0010,16.4048,40.7133,0.0200,0.0000
-41.7880,-2.4973,0.8781,-0.0000,-0.0821,0.0000,0.0000,0.0000,0.0000,0.3125,0.0122,-0.0003,996,1502,1500,1500,2008,1000,1505,1505,1505,1311,1854,1299,1014,0.0690,-0.0244,-0.0572,0.0589,-0.9721,-0.2414,0.3000,-0.3244,-0.3005,0.3249,0.4866,0.4370,0.1746,0.4866,0.4370,0.1746,0.3000,0.0600,0.0002,0,-0.3000,-100.0000,-0.0010,-0.3000,-100.0000,-0.0010,16.4405,40.7535,0.0200,0.0000
-41.8301,-2.5000,0.8796,-0.0000,-0.0821,0.0000,0.0000,0.0000,0.0000,0.3128,0.0123,-0.0004,996,1502,1500,1500,2008,1000,1505,1505,1505,1311,1854,1299,1014,-0.0011,-0.0555,-0.0281,0.0582,-0.9724,-0.2373,0.3002,-0.3247,-0.3009,0.3254,0.4866,0.4370,0.1746,0.4866,0.4370,0.1746,0.3000,0.0600,0.0002,0,-0.3000,-100.0000,-0.0010,-0.3000,-100.0000,-0.0010,16.4764,40.7937,0.0200,0.0000
-41.8730,-2.5027,0.8819,-0.0000,-0.0821,0.0000,0.0000,0.0000,0.0000,0.3129,0.0123,-0.0002,996,1502,1500,1500,2008,1000,1505,1505,1505,1311,1854,1299,1014,0.0551,-0.0565,-0.0664,0.0597,-0.9729,-0.2374,0.3004,-0.3250,-0.3008,0.3254,0.4866,0.4370,0.1746,0.4866,0.4370,0.1746,0.3000,0.0600,0.0002,0,-0.3000,-100.0000,-0.0010,-0.3000,-100.0000,-0.0010,16.5122,40.8339,0.0200,0.0000
-41.9153,-2.5053,0.8832,-0.0829,-0.0821,0.0000,0.0000,0.0000,0.0000,0.3131,0.0123,-0.0002,996,1502,1500,1500,2008,1000,1505,1505,1505,1311,1854,1299,1014,0.0655,-0.0559,-0.0752,0.0579,-0.9737,-0.2438,0.3006,-0.3251,-0.3010,0.3256,0.4866,0.4370,0.1746,0.4866,0.4370,0.1746,0.3000,0.0600,0.0002,0,-0.3000,-100.0000,-0.0010,-0.3000,-100.0000,-0.0010,16.5480,40.8741,0.0200,0.0000
-41.9581,-2.5083,0.8850,-0.0000,-0.0821,0.0000,0.0000,0.0000,0.0000,0.3135,0.0123,-0.0003,998,1504,1501,1501,2008,1000,1505,1505,1505,1311,1854,1299,1014,-0.0293,-0.0816,-0.0419,0.0580,-0.9690,-0.2373,0.3008,-0.3255,-0.3014,0.3261,0.4866,0.4370,0.1746,0.4866,0.4370,0.1746,0.3000,0.0600,0.0002,0,-0.3000,-100.0000,-0.0010,-0.3000,-100.0000,-0.0010,16.5838,40.9142,0.0200,0.0000
-42.0008,-2.5105,0.8869,-0.0000,-0.0821,0.0000,0.0000,0.0000,0.0000,0.3135,0.0123,-0.0003,996,1502,1500,1500,2008,1000,1505,1505,1505,1311,1854,1299,1014,0.0793,-0.0306,-0.0427,0.0581,-0.9722,-0.2409,0.3009,-0.3255,-0.3015,0.3260,0.4866,0.4370,0.1746,0.4866,0.4370,0.1746,0.3000,0.0600,0.0002,0,-0.3000,-100.0000,-0.0010,-0.3000,-100.0000,-0.0010,16.6196,40.9543,0.0200,0.0000
-42.0431,-2.5130,0.8891,-0.0000,0.0000,0.0000,0.0000,0.0000,0.0000,0.3138,0.0123,-0.0005,996,1502,1500,1500,2008,1000,1505,1505,1505,1311,1854,1299,1014,0.0274,-0.0663,0.0000,0.0577,-0.9719,-0.2440,0.3010,-0.3257,-0.3019,0.3266,0.4866,0.4370,0.1746,0.4866,0.4370,0.1746,0.3000,0.0600,0.0002,0,-0.3000,-100.0000,-0.0010,-0.3000,-100.0000,-0.0010,16.6554,40.9943,0.0200,0.0000
-42.0857,-2.5156,0.8910,0.0829,-0.0821,0.0000,0.0000,0.0000,0.0000,0.3141,0.0124,-0.0003,996,1502,1500,1500,2008,1000,1505,1505,1505,1311,1854,1299,1014,-0.0140,-0.0789,-0.0501,0.0586,-0.9730,-0.2409,0.3014,-0.3261,-0.3020,0.3268,0.4866,0.4370,0.1746,0.4866,0.4370,0.1746,0.3000,0.0600,0.0002,0,-0.3000,-100.0000,-0.0010,-0.3000,-100.0000,-0.0010,16.6912,41.0345,0.0200,0.0000
-42.1285,-2.5181,0.8937,-0.0000,-0.0821,0.0000,0.0000,0.0000,0.0000,0.3144,0.0124,-0.0004,996,1502,1500,1500,2008,1000,1505,1505,1505,1311,1854,1299,1014,-0.0611,-0.0588,0.0135,0.0576,-0.9725,-0.2381,0.3016,-0.3263,-0.3024,0.3271,0.4866,0.4370,0.1746,0.4866,0.4370,0.1746,0.3000,0.0600,0.0002,0,-0.3000,-100.0000,-0.0010,-0.3000,-100.0000,-0.0010,16.7270,41.0746,0.0200,0.0000
-42.1716,-2.5204,0.8952,-0.0000,-0.0821,0.0000,0.0000,0.0000,0.0000,0.3145,0.0124,-0.0001,996,1502,1500,1500,2008,1000,1505,1505,1505,1311,1854,1299,1014,-0.0191,-0.0578,-0.0892,0.0571,-0.9708,-0.2427,0.3020,-0.3267,-0.3023,0.3270,0.4866,0.4370,0.1746,0.4866,0.4370,0.1746,0.3000,0.0600,0.0002,0,-0.3000,-100.0000,-0.0010,-0.3000,-100.0000,-0.0010,16.7629,41.1147,0.0200,0.0000
-42.2145,-2.5233,0.8964,-0.0000,-0.0821,0.0000,0.0000,0.0000,0.0000,0.3147,0.0122,-0.0001,998,1504,1501,1501,2008,1000,1505,1505,1505,1311,1854,1299,1014,-0.0019,0.0184,-0.1503,0.0590,-0.9690,-0.2440,0.3024,-0.3269,-0.3025,0.3270,0.4866,0.4370,0.1746,0.4866,0.4370,0.1746,0.3000,0.0600,0.0002,0,-0.3000,-100.0000,-0.0010,-0.3000,-100.0000,-0.0010,16.7988,41.1548,0.0200,0.0000
-42.2574,-2.5260,0.8980,-0.0000,-0.0821,0.0000,0.0000,0.0000,0.0000,0.3149,0.0124,-0.0003,996,1502,1500,1500,2008,1000,1505,1505,1505,1311,1854,1299,1014,-0.0217,-0.0361,-0.0460,0.0579,-0.9691,-0.2355,0.3022,-0.3270,-0.3029,0.3276,0.4866,0.4370,0.1746,0.4866,0.4370,0.1746,0.3000,0.0600,0.0002,0,-0.3000,-100.0000,-0.0010,-0.3000,-100.0000,-0.0010,16.8346,41.1949,0.0200,0.0000
-42.3005,-2.5280,0.9004,-0.0000,0.0000,0.0000,0.0000,0.0000,0.0000,0.3151,0.0123,-0.0005,996,1502,1500,1500,2008,1000,1505,1505,1505,1311,1854,1299,1014,-0.0361,-0.0231,0.0185,0.0566,-0.9691,-0.2406,0.3023,-0.3270,-0.3033,0.3280,0.4866,0.4370,0.1746,0.4866,0.4370,0.1746,0.3000,0.0600,0.0002,0,-0.3000,-100.0000,-0.0010,-0.3000,-100.0000,-0.0010,16.8705,41.2350,0.0200,0.0000
-42.3434,-2.5300,0.9024,-0.0000,0.0000,0.0000,0.0000,0.0000,0.0000,0.3153,0.0123,-0.0005,996,1502,1500,1500,2008,1000,1505,1505,1505,1311,1854,1299,1014,-0.0197,-0.0116,0.0192,0.0615,-0.9747,-0.2411,0.3025,-0.3272,-0.3035,0.3282,0.4866,0.4370,0.1746,0.4866,0.4370,0.1746,0.3000,0.0600,0.0002,0,-0.3000,-100.0000,-0.0010,-0.3000,-100.0000,-0.0010,16.9064,41.2751,0.0200,0.0000
-42.3862,-2.5322,0.9045,-0.0000,-0.0821,0.0000,0.0000,0.0000,0.0000,0.3155,0.0125,-0.0003,996,1502,1500,1500,2008,1000,1505,1505,1505,1311,1854,1299,1014,-0.0184,-0.0941,-0.0486,0.0609,-0.9732,-0.2421,0.3028,-0.3277,-0.3033,0.3283,0.4866,0.4370,0.1746,0.4866,0.4370,0.1746,0.3000,0.0600,0.0002,0,-0.3000,-100.0000,-0.0010,-0.3000,-100.0000,-0.0010,16.9423,41.3151,0.0200,0.0000
-42.4289,-2.5349,0.9063,0.0829,0.0000,0.0000,0.0000,0.0000,0.0000,0.3156,0.0125,-0.0000,996,1502,1500,1500,2008,1000,1505,1505,1505,1311,1854,1299,1014,0.0461,-0.0684,-0.1117,0.0564,-0.9756,-0.2427,0.3031,-0.3280,-0.3032,0.3281,0.4866,0.4370,0.1746,0.4866,0.4370,0.1746,0.3000,0.0600,0.0002,0,-0.3000,-100.0000,-0.0010,-0.3000,-100.0000,-0.0010,16.9782,41.3552,0.0200,0.0000
-42.4710,-2.5377,0.9086,-0.0829,-0.0821,0.0000,0.0000,0.0000,0.0000,0.3159,0.0125,-0.0004,998,1504,1501,1501,2008,1000,1505,1505,1505,1311,1854,1299,1014,0.0338,-0.1083,-0.0171,0.0583,-0.9725,-0.2423,0.3030,-0.3280,-0.3037,0.3288,0.4866,0.4370,0.1746,0.4866,0.4370,0.1746,0.3000,0.0600,0.0002,0,-0.3000,-100.0000,-0.0010,-0.3000,-100.0000,-0.0010,17.0141,41.3953,0.0200,0.0000
-42.5134,-2.5404,0.9109,-0.0000,0.0000,0.0000,0.0000,0.0000,0.0000,0.3162,0.0123,-0.0004,996,1502,1500,1500,2008,1000,1505,1505,1505,1311,1854,1299,1014,-0.0413,0.0120,-0.0026,0.0596,-0.9706,-0.2403,0.3034,-0.3281,-0.3043,0.3290,0.4866,0.4370,0.1746,0.4866,0.4370,0.1746,0.3000,0.0600,0.0002,0,-0.3000,-100.0000,-0.0010,-0.3000,-100.0000,-0.0010,17.0500,41.4354,0.0200,0.0000
-42.5560,-2.5425,0.9124,-0.0000,-0.0821,0.0000,0.0000,0.0000,0.0000,0.3163,0.0124,-0.0003,996,1502,1500,1500,2008,1000,1505,1505,1505,1311,1854,1299,1014,0.0011,-0.0242,-0.0412,0.0596,-0.9715,-0.2395,0.3036,-0.3284,-0.3042,0.3291,0.4866,0.4370,0.1746,0.4866,0.4370,0.1746,0.3000,0.0600,0.0002,0,-0.3000,-100.0000,-0.0010,-0.3000,-100.0000,-0.0010,17.0859,41.4754,0.0200,0.0000
-42.5986,-2.5452,0.9141,-0.0000,-0.0821,0.0000,0.0000,0.0000,0.0000,0.3165,0.0125,-0.0001,996,1502,1500,1500,2008,1000,1505,1505,1505,1311,1854,1299,1014,0.0134,-0.0731,-0.1091,0.0587,-0.9714,-0.2372,0.3039,-0.3289,-0.3041,0.3292,0.4866,0.4370,0.1746,0.4866,0.4370,0.1746,0.3000,0.0600,0.0002,0,-0.3000,-100.0000,-0.0010,-0.3000,-100.0000,-0.0010,17.1219,41.5154,0.0200,0.0000
-42.6412,-2.5481,0.9162,-0.0000,-0.0821,0.0000,0.0000,0.0000,0.0000,0.3168,0.0126,-0.0006,996,1502,1500,1500,2008,1000,1505,1505,1505,1311,1854,1299,1014,-0.0341,-0.0999,0.0425,0.0623,-0.9713,-0.2388,0.3036,-0.3288,-0.3048,0.3300,0.4866,0.4370,0.1746,0.4866,0.4370,0.1746,0.3000,0.0600,0.0002,0,-0.3000,-100.0000,-0.0010,-0.3000,-100.0000,-0.0010,17.1578,41.5554,0.0200,0.0000
-42.6842,-2.5502,0.9188,-0.0000,-0.0821,0.0000,0.0000,0.0000,0.0000,0.3170,0.0124,-0.0004,996,1502,1500,1500,2008,1000,1505,1505,1505,1311,1854,1299,1014,-0.0313,-0.0090,-0.0135,0.0574,-0.9705,-0.2392,0.3042,-0.3291,-0.3049,0.3298,0.4866,0.4370,0.1746,0.4866,0.4370,0.1746,0.3000,0.0600,0.0002,0,-0.3000,-100.0000,-0.0010,-0.3000,-100.0000,-0.0010,17.1937,41.5954,0.0200,0.0000
-42.7263,-2.5525,0.9203,-0.0000,-0.0821,0.0000,0.0000,0.0000,0.0000,0.3171,0.0125,-0.0001,998,1504,1501,1501,2008,1000,1505,1505,1505,1311,1854,1299,1014,0.0550,-0.0169,-0.0789,0.0600,-0.9728,-0.2444,0.3045,-0.3294,-0.3048,0.3297,0.4866,0.4370,0.1746,0.4866,0.4370,0.1746,0.3000,0.0600,0.0002,0,-0.3000,-100.0000,-0.0010,-0.3000,-100.0000,-0.0010,17.2297,41.6354,0.0200,0.0000
-42.7683,-2.5557,0.9217,-0.0829,-0.0821,0.0000,0.0000,0.0000,0.0000,0.3173,0.0125,-0.0000,996,1502,1500,1500,2008,1000,1505,1505,1505,1311,1854,1299,1014,0.0160,-0.0573,-0.1298,0.0594,-0.9723,-0.2390,0.3048,-0.3298,-0.3048,0.3299,0.4866,0.4370,0.1746,0.4866,0.4370,0.1746,0.3000,0.0600,0.0002,0,-0.3000,-100.0000,-0.0010,-0.3000,-100.0000,-0.0010,17.2656,41.6754,0.0200,0.0000
-42.8109,-2.5589,0.9236,-0.0829,-0.0821,0.0000,0.0000,0.0000,0.0000,0.3177,0.0126,-0.0003,996,1502,1500,1500,2008,1000,1505,1505,1505,1311,1854,1299,1014,-0.0512,-0.0981,-0.0470,0.0597,-0.9704,-0.2418,0.3047,-0.3300,-0.3053,0.3306,0.4866,0.4370,0.1746,0.4866,0.4370,0.1746,0.3000,0.0600,0.0002,0,-0.3000,-100.0000,-0.0010,-0.3000,-100.0000,-0.0010,17.3015,41.7153,0.0200,0.0000
-42.8536,-2.5614,0.9253,-0.0000,-0.0821,0.0000,0.0000,0.0000,0.0000,0.3178,0.0125,-0.0003,996,1502,1500,1500,2008,1000,1505,1505,1505,1311,1854,1299,1014,-0.0335,0.0052,-0.0396,0.0606,-0.9697,-0.2404,0.3050,-0.3299,-0.3057,0.3306,0.4866,0.4370,0.1746,0.4866,0.4370,0.1746,0.3000,0.0600,0.0002,0,-0.3000,-100.0000,-0.0010,-0.3000,-100.0000,-0.0010,17.3374,41.7553,0.0200,0.0000
-42.8962,-2.5632,0.9273,-0.0000,-0.0821,0.0000,0.0000,0.0000,0.0000,0.3179,0.0124,-0.0005,996,1502,1500,1500,2008,1000,1505,1505,1505,1311,1854,1299,1014,0.0249,0.0398,0.0375,0.0599,-0.9671,-0.2394,0.3050,-0.3298,-0.3061,0.3309,0.4866,0.4370,0.1746,0.4866,0.4370,0.1746,0.3000,0.0600,0.0002,0,-0.3000,-100.0000,-0.0010,-0.3000,-100.0000,-0.0010,17.3734,41.7953,0.0200,0.0000
-42.9388,-2.5651,0.9294,-0.0000,-0.0821,0.0000,0.0000,0.0000,0.0000,0.3182,0.0126,-0.0003,996,1502,1500,1500,2008,1000,1505,1505,1505,1311,1854,1299,1014,0.0118,-0.0543,-0.0405,0.0621,-0.9703,-0.2425,0.3053,-0.3304,-0.3059,0.3311,0.4866,0.4370,0.1746,0.4866,0.4370,0.1746,0.3000,0.0600,0.0002,0,-0.3000,-100.0000,-0.0010,-0.3000,-100.0000,-0.0010,17.4094,41.8352,0.0200,0.0000
-42.9812,-2.5677,0.9318,-0.0000,0.0000,0.0000,0.0000,0.0000,0.0000,0.3183,0.0127,-0.0005,998,1504,1501,1501,2008,1000,1505,1505,1505,1311,1854,1299,1014,0.0726,-0.1001,0.0441,0.0592,-0.9712,-0.2407,0.3051,-0.3304,-0.3061,0.3315,0.4866,0.4370,0.1746,0.4866,0.4370,0.1746,0.3000,0.0600,0.0002,0,-0.3000,-100.0000,-0.0010,-0.3000,-100.0000,-0.0010,17.4453,41.8752,0.0200,0.0000
-43.0237,-2.5696,0.9336,0.0829,-0.0821,0.0000,0.0000,0.0000,0.0000,0.3187,0.0126,-0.0003,996,1502,1500,1500,2008,1000,1505,1505,1505,1311,1854,1299,1014,-0.0320,-0.0485,-0.0464,0.0597,-0.9706,-0.2406,0.3058,-0.3310,-0.3063,0.3315,0.4866,0.4370,0.1746,0.4866,0.4370,0.1746,0.3000,0.0600,0.0002,0,-0.3000,-100.0000,-0.0010,-0.3000,-100.0000,-0.0010,17.4813,41.9152,0.0200,0.0000
-43.0660,-2.5723,0.9352,-0.0000,-0.0821,0.0000,0.0000,0.0000,0.0000,0.3187,0.0126,-0.0003,996,1502,1500,1500,2008,1000,1505,1505,1505,1311,1854,1299,1014,0.0386,-0.0296,-0.0322,0.0597,-0.9726,-0.2418,0.3058,-0.3310,-0.3065,0.3317,0.4866,0.4370,0.1746,0.4866,0.4370,0.1746,0.3000,0.0600,0.0002,0,-0.3000,-100.0000,-0.0010,-0.3000,-100.0000,-0.0010,17.5173,41.9551,0.0200,0.0000
-43.1086,-2.5745,0.9371,-0.0000,-0.0821,0.0000,0.0000,0.0000,0.0000,0.3190,0.0126,-0.0004,996,1502,1500,1500,2008,1000,1505,1505,1505,1311,1854,1299,1014,0.0209,-0.0163,0.0032,0.0596,-0.9704,-0.2403,0.3060,-0.3311,-0.3069,0.3320,0.4866,0.4370,0.1746,0.4866,0.4370,0.1746,0.3000,0.0600,0.0002,0,-0.3000,-100.0000,-0.0010,-0.3000,-100.0000,-0.0010,17.5533,41.9951,0.0200,0.0000
-43.1514,-2.5769,0.9394,0.0829,-0.0821,0.0000,0.0000,0.0000,0.0000,0.3194,0.0127,-0.0004,996,1502,1500,1500,2008,1000,1505,1505,1505,1311,1854,1299,1014,-0.0916,-0.0861,-0.0068,0.0595,-0.9676,-0.2368,0.3063,-0.3317,-0.3071,0.3325,0.4866,0.4370,0.1746,0.4866,0.4370,0.1746,0.3000,0.0600,0.0002,0,-0.3000,-100.0000,-0.0010,-0.3000,-100.0000,-0.0010,17.5893,42.0350,0.0200,0.0000
-43.1941,-2.5792,0.9411,-0.0000,-0.0821,0.0000,0.0000,0.0000,0.0000,0.3194,0.0126,-0.0004,996,1502,1500,1500,2008,1000,1505,1505,1505,1311,1854,1299,1014,0.0197,-0.0104,-0.0328,0.0557,-0.9710,-0.2407,0.3065,-0.3316,-0.3072,0.3323,0.4866,0.4370,0.1746,0.4866,0.4370,0.1746,0.3000,0.0600,0.0002,0,-0.3000,-100.0000,-0.0010,-0.3000,-100.0000,-0.0010,17.6253,42.0749,0.0200,0.0000
-43.2361,-2.5813,0.9427,-0.0829,0.0000,0.0000,0.0000,0.0000,0.0000,0.3195,0.0126,-0.0003,998,1504,1501,1501,2008,1000,1505,1505,1505,1311,1854,1299,1014,0.0762,-0.0392,-0.0508,0.0597,-0.9706,-0.2408,0.3066,-0.3318,-0.3072,0.3324,0.4866,0.4370,0.1746,0.4866,0.4370,0.1746,0.3000,0.0600,0.0002,0,-0.3000,-100.0000,-0.0010,-0.3000,-100.0000,-0.0010,17.6614,42.1148,0.0200,0.0000
-43.2780,-2.5844,0.9445,-0.0000,-0.0821,0.0000,0.0000,0.0000,0.0000,0.3198,0.0127,0.0001,996,1502,1500,1500,2008,1000,1505,1505,1505,1311,1854,1299,1014,0.0366,-0.0745,-0.1501,0.0610,-0.9725,-0.2389,0.3071,-0.3325,-0.3070,0.3324,0.4866,0.4370,0.1746,0.4866,0.4370,0.1746,0.3000,0.0600,0.0002,0,-0.3000,-100.0000,-0.0010,-0.3000,-100.0000,-0.0010,17.6974,42.1546,0.0200,0.0000
-43.3203,-2.5869,0.9466,-0.0000,-0.0821,0.0000,0.0000,0.0000,0.0000,0.3200,0.0127,-0.0003,996,1502,1500,1500,2008,1000,1505,1505,1505,1311,1854,1299,1014,0.0302,-0.0703,-0.0052,0.0575,-0.9717,-0.2408,0.3070,-0.3324,-0.3076,0.3330,0.4866,0.4370,0.1746,0.4866,0.4370,0.1746,0.3000,0.0600,0.0002,0,-0.3000,-100.0000,-0.0010,-0.3000,-100.0000,-0.0010,17.7334,42.1944,0.0200,0.0000
-43.3626,-2.5893,0.9483,-0.0000,-0.0821,0.0000,0.0000,0.0000,0.0000,0.3202,0.0125,-0.0001,996,1502,1500,1500,2008,1000,1505,1505,1505,1311,1854,1299,1014,0.0548,0.0533,-0.1216,0.0587,-0.9712,-0.2399,0.3076,-0.3326,-0.3077,0.3327,0.4866,0.4370,0.1746,0.4866,0.4370,0.1746,0.3000,0.0600,0.0002,0,-0.3000,-100.0000,-0.0010,-0.3000,-100.0000,-0.0010,17.7694,42.2343,0.0200,0.0000
-43.4054,-2.5920,0.9492,-0.0000,-0.0821,0.0000,0.0000,0.0000,0.0000,0.3206,0.0126,-0.0001,996,1502,1500,1500,2008,1000,1505,1505,1505,1311,1854,1299,1014,-0.0527,-0.0096,-0.1110,0.0564,-0.9713,-0.2434,0.3078,-0.3331,-0.3080,0.3333,0.4866,0.4370,0.1746,0.4866,0.4370,0.1746,0.3000,0.0600,0.0002,0,-0.3000,-100.0000,-0.0010,-0.3000,-100.0000,-0.0010,17.8054,42.2741,0.0200,0.0000
-43.4483,-2.5946,0.9512,-0.0000,-0.0821,0.0000,0.0000,0.0000,0.0000,0.3207,0.0128,-0.0002,996,1502,1500,1500,2008,1000,1505,1505,1505,1311,1854,1299,1014,-0.0248,-0.0764,-0.0813,0.0572,-0.9710,-0.2393,0.3078,-0.3333,-0.3081,0.3337,0.4866,0.4370,0.1746,0.4866,0.4370,0.1746,0.3000,0.0600,0.0002,0,-0.3000,-100.0000,-0.0010,-0.3000,-100.0000,-0.0010,17.8415,42.3139,0.0200,0.0000
-43.4907,-2.5970,0.9530,-0.0000,-0.0821,0.0000,0.0000,0.0000,0.0000,0.3209,0.0127,-0.0004,998,1504,1501,1501,2008,1000,1505,1505,1505,1311,1854,1299,1014,0.0053,-0.0176,-0.0113,0.0606,-0.9738,-0.2419,0.3078,-0.3331,-0.3086,0.3339,0.4866,0.4370,0.1746,0.4866,0.4370,0.1746,0.3000,0.0600,0.0002,0,-0.3000,-100.0000,-0.0010,-0.3000,-100.0000,-0.0010,17.8775,42.3538,0.0200,0.0000
-43.5329,-2.5997,0.9548,-0.0000,-0.0821,0.0000,0.0000,0.0000,0.0000,0.3210,0.0128,-0.0002,996,1502,1500,1500,2008,1000,1505,1505,1505,1311,1854,1299,1014,0.0505,-0.0964,-0.0801,0.0589,-0.9684,-0.2414,0.3080,-0.3336,-0.3084,0.3340,0.4866,0.4370,0.1746,0.4866,0.4370,0.1746,0.3000,0.0600,0.0002,0,-0.3000,-100.0000,-0.0010,-0.3000,-100.0000,-0.0010,17.9136,42.3936,0.0200,0.0000
-43.5747,-2.6028,0.9573,-0.0000,-0.0821,0.0000,0.0000,0.0000,0.0000,0.3212,0.0128,-0.0002,996,1502,1500,1500,2008,1000,1505,1505,1505,1311,1854,1299,1014,0.0342,-0.0739,-0.0582,0.0586,-0.9721,-0.2376,0.3082,-0.3338,-0.3087,0.3343,0.4866,0.4370,0.1746,0.4866,0.4370,0.1746,0.3000,0.0600,0.0002,0,-0.3000,-100.0000,-0.0010,-0.3000,-100.0000,-0.0010,17.9496,42.4333,0.0200,0.0000
-43.6167,-2.6053,0.9590,-0.0000,0.0000,0.0000,0.0000,0.0000,0.0000,0.3214,0.0127,-0.0000,996,1502,1500,1500,2008,1000,1505,1505,1505,1311,1854,1299,1014,0.0608,-0.0306,-0.1217,0.0577,-0.9685,-0.2356,0.3086,-0.3341,-0.3087,0.3342,0.4866,0.4370,0.1746,0.4866,0.4370,0.1746,0.3000,0.0600,0.0002,0,-0.3000,-100.0000,-0.0010,-0.3000,-100.0000,-0.0010,17.9857,42.4731,0.0200,0.0000
-43.6587,-2.6082,0.9599,-0.0829,-0.0821,0.0000,0.0000,0.0000,0.0000,0.3217,0.0126,0.0000,996,1502,1500,1500,2008,1000,1505,1505,1505,1311,1854,1299,1014,0.0083,0.0269,-0.1597,0.0619,-0.9725,-0.2402,0.3091,-0.3343,-0.3090,0.3343,0.4866,0.4370,0.1746,0.4866,0.4370,0.1746,0.3000,0.0600,0.0002,0,-0.3000,-100.0000,-0.0010,-0.3000,-100.0000,-0.0010,18.0218,42.5130,0.0200,0.0000
-43.7014,-2.6115,0.9615,-0.0000,-0.0821,0.0000,0.0000,0.0000,0.0000,0.3220,0.0128,-0.0002,996,1502,1500,1500,2008,1000,1505,1505,1505,1311,1854,1299,1014,-0.0378,-0.0540,-0.0974,0.0599,-0.9687,-0.2402,0.3090,-0.3346,-0.3093,0.3349,0.4866,0.4370,0.1746,0.4866,0.4370,0.1746,0.3000,0.0600,0.0002,0,-0.3000,-100.0000,-0.0010,-0.3000,-100.0000,-0.0010,18.0579,42.5528,0.0200,0.0000
-43.7441,-2.6139,0.9631,-0.0000,-0.0821,0.0000,0.0000,0.0000,0.0000,0.3221,0.0128,-0.0002,998,1504,1501,1501,2008,1000,1505,1505,1505,1311,1854,1299,1014,-0.0203,-0.0308,-0.0741,0.0576,-0.9698,-0.2393,0.3092,-0.3347,-0.3096,0.3351,0.4866,0.4370,0.1746,0.4866,0.4370,0.1746,0.3000,0.0600,0.0002,0,-0.3000,-100.0000,-0.0010,-0.3000,-100.0000,-0.0010,18.0940,42.5926,0.0200,0.0000
-43.7867,-2.6166,0.9650,-0.0829,-0.0821,0.0000,0.0000,0.0000,0.0000,0.3223,0.0128,-0.0001,996,1502,1500,1500,2008,1000,1505,1505,1505,1311,1854,1299,1014,-0.0048,-0.0139,-0.1127,0.0598,-0.9699,-0.2417,0.3095,-0.3350,-0.3096,0.3352,0.4866,0.4370,0.1746,0.4866,0.4370,0.1746,0.3000,0.0600,0.0002,0,-0.3000,-100.0000,-0.0010,-0.3000,-100.0000,-0.0010,18.1302,42.6324,0.0200,0.0000
-43.8294,-2.6187,0.9665,-0.0829,0.0000,0.0000,0.0000,0.0000,0.0000,0.3226,0.0128,-0.0004,996,1502,1500,1500,2008,1000,1505,1505,1505,1311,1854,1299,1014,-0.0376,-0.0339,-0.0231,0.0615,-0.9727,-0.2403,0.3094,-0.3350,-0.3102,0.3358,0.4866,0.4370,0.1746,0.4866,0.4370,0.1746,0.3000,0.0600,0.0002,0,-0.3000,-100.0000,-0.0010,-0.3000,-100.0000,-0.0010,18.1662,42.6722,0.0200,0.0000
