roll_imu,pitch_imu,yaw_imu,alpha,beta,roll_des,pitch_des,yaw_des,throttle_des,roll_pid,pitch_pid,yaw_pid,radio_ch1,radio_ch2,radio_ch3,radio_ch4,radio_ch5,radio_ch6,radio_ch7,radio_ch8,radio_ch9,radio_ch10,radio_ch11,radio_ch12,radio_ch13,GyroX,GyroY,GyroZ,AccX,AccY,AccZ,s1_command,s2_command,s3_command,s4_command,kp_roll,ki_roll,kd_roll,kp_pitch,ki_pitch,kd_pitch,kp_yaw,ki_yaw,kd_yaw,failsafeTriggered,kp_alphaRoll,ki_alphaRoll,kd_alphaRoll,kp_betaPitch,ki_betaPitch,kd_betaPitch,ripIMU_roll,ripIMU_pitch,ripRoll_des,ripPitch_des
0.0000,0.0000,0.0000,1.4088,5.8687,0.0000,0.0000,0.0000,0.0000,0.0000,0.0000,0.0000,1000,1500,1500,1500,2000,1000,1000,1000,1500,1500,1500,1500,1500,0.0000,0.0000,0.0000,0.0000,0.0000,0.0000,0.0000,0.0000,0.0000,0.0000,0.8627,0.2400,0.1321,0.8627,0.2400,0.1321,0.3000,0.0600,0.0002,0,-0.3000,-100.0000,-0.0010,-0.3000,-100.0000,-0.0010,0.0000,0.0000,0.0000,0.0000
16.2257,50.9935,7.7240,0.0829,0.0000,-7.8600,-7.7400,-42.8800,0.0000,-0.2678,-0.5068,-0.1290,910,1369,1371,1366,2008,1000,1505,1000,1000,1009,1005,1000,1013,-0.0275,0.0693,0.0544,-0.0141,0.0060,0.9111,0.1100,0.9035,-0.3680,-0.6455,0.8627,0.2400,0.1321,0.8627,0.2400,0.1321,0.3000,0.0600,0.0002,0,-0.9243,-3.5000,-0.0010,-0.9243,-3.5000,-0.0010,42.6261,35.1785,-1.3100,-1.2900
16.2077,50.9615,7.7109,0.0829,0.0000,-2.2800,-2.1000,-12.4800,0.0000,-0.2195,-0.4577,-0.0378,971,1461,1465,1461,2008,1000,1505,1000,1000,1009,1005,1000,1013,-0.0120,-0.0400,0.0001,-0.0164,0.0049,0.9964,0.2004,0.7150,-0.2760,-0.6394,0.8627,0.2400,0.1321,0.8627,0.2400,0.1321,0.3000,0.0600,0.0002,0,-0.9243,-3.5000,-0.0010,-0.9243,-3.5000,-0.0010,42.5907,35.1622,-0.3800,-0.3500
16.1884,50.9292,7.6960,0.0829,0.0000,-0.6000,-0.3000,-4.1600,0.0000,-0.2048,-0.4419,-0.0130,991,1490,1495,1487,2008,1000,1505,1000,1000,1009,1005,1000,1013,0.0026,-0.0111,0.0080,-0.0206,0.0076,0.9976,0.2242,0.6597,-0.2501,-0.6338,0.8627,0.2400,0.1321,0.8627,0.2400,0.1321,0.3000,0.0600,0.0002,0,-0.9243,-3.5000,-0.0010,-0.9243,-3.5000,-0.0010,42.5549,35.1461,-0.1000,-0.0500
16.1697,50.8968,7.6817,0.0829,0.0821,0.0000,0.1200,-0.9600,0.0000,-0.1995,-0.4381,-0.0035,996,1500,1502,1497,2008,1000,1505,1000,1000,1009,1005,1000,1013,-0.0304,0.0060,0.0632,-0.0184,0.0069,1.0034,0.2351,0.6411,-0.2422,-0.6340,0.8627,0.2400,0.1321,0.8627,0.2400,0.1321,0.3000,0.0600,0.0002,0,-0.9243,-3.5000,-0.0010,-0.9243,-3.5000,-0.0010,42.5193,35.1298,0.0000,0.0200
16.1516,50.8649,7.6678,0.0829,0.0000,0.1200,0.3000,0.0000,0.0000,-0.1984,-0.4362,-0.0005,996,1502,1505,1500,2008,1000,1505,1000,1000,1009,1005,1000,1013,0.0352,0.0076,0.0127,-0.0153,0.0050,1.0031,0.2374,0.6351,-0.2384,-0.6341,0.8627,0.2400,0.1321,0.8627,0.2400,0.1321,0.3000,0.0600,0.0002,0,-0.9243,-3.5000,-0.0010,-0.9243,-3.5000,-0.0010,42.4838,35.1129,0.0200,0.0500
16.1334,50.8333,7.6539,-0.0829,0.0000,0.1200,0.4200,0.0000,0.0000,-0.1982,-0.4350,-0.0005,996,1502,1507,1500,2008,1000,1505,1000,1000,1009,1005,1000,1013,0.0098,0.0334,-0.0001,-0.0166,0.0074,0.9995,0.2363,0.6336,-0.2373,-0.6327,0.8627,0.2400,0.1321,0.8627,0.2400,0.1321,0.3000,0.0600,0.0002,0,-0.9243,-3.5000,-0.0010,-0.9243,-3.5000,-0.0010,42.4480,35.0964,0.0200,0.0700
16.1147,50.8009,7.6395,0.0829,0.0000,0.1200,0.4200,0.0000,0.0000,-0.1979,-0.4347,-0.0005,998,1504,1507,1501,2008,1000,1505,1000,1000,1009,1005,1000,1013,-0.0950,0.0427,0.0134,-0.0174,0.0072,1.0000,0.2363,0.6331,-0.2374,-0.6320,0.8627,0.2400,0.1321,0.8627,0.2400,0.1321,0.3000,0.0600,0.0002,0,-0.9243,-3.5000,-0.0010,-0.9243,-3.5000,-0.0010,42.4129,35.0799,0.0200,0.0700
16.0958,50.7691,7.6255,-0.0829,-0.1642,0.1200,0.4200,0.0000,0.0000,-0.1978,-0.4344,-0.0006,996,1502,1507,1500,2008,1000,1505,1000,1000,1009,1005,1000,1013,0.0104,0.0554,0.0414,-0.0183,0.0080,0.9993,0.2360,0.6329,-0.2372,-0.6317,0.8627,0.2400,0.1321,0.8627,0.2400,0.1321,0.3000,0.0600,0.0002,0,-0.9243,-3.5000,-0.0010,-0.9243,-3.5000,-0.0010,42.3770,35.0638,0.0200,0.0700
16.0772,50.7372,7.6114,-0.0000,-0.0821,0.1200,0.4200,0.0000,0.0000,-0.1976,-0.4341,-0.0005,996,1502,1507,1500,2008,1000,1505,1000,1000,1009,1005,1000,1013,-0.0220,0.0077,0.0059,-0.0174,0.0050,1.0013,0.2360,0.6322,-0.2370,-0.6312,0.8627,0.2400,0.1321,0.8627,0.2400,0.1321,0.3000,0.0600,0.0002,0,-0.9243,-3.5000,-0.0010,-0.9243,-3.5000,-0.0010,42.3406,35.0483,0.0200,0.0700
16.0593,50.7050,7.5979,-0.0829,0.0000,0.1200,0.4200,0.0000,0.0000,-0.1976,-0.4339,-0.0007,996,1502,1507,1500,2008,1000,1505,1000,1000,1009,1005,1000,1013,0.0360,0.0343,0.0741,-0.0165,0.0062,0.9997,0.2356,0.6321,-0.2370,-0.6307,0.8627,0.2400,0.1321,0.8627,0.2400,0.1321,0.3000,0.0600,0.0002,0,-0.9243,-3.5000,-0.0010,-0.9243,-3.5000,-0.0010,42.3050,35.0326,0.0200,0.0700
16.0409,50.6731,7.5838,-0.0000,0.0000,0.1200,0.4200,0.0000,0.0000,-0.1973,-0.4336,-0.0004,996,1502,1507,1500,2008,1000,1505,1000,1000,1009,1005,1000,1013,-0.0203,0.0577,-0.0346,-0.0137,0.0080,0.9976,0.2359,0.6313,-0.2367,-0.6306,0.8627,0.2400,0.1321,0.8627,0.2400,0.1321,0.3000,0.0600,0.0002,0,-0.9243,-3.5000,-0.0010,-0.9243,-3.5000,-0.0010,42.2700,35.0155,0.0200,0.0700
16.0223,50.6416,7.5691,-0.0000,0.0821,0.1200,0.4200,0.0000,0.0000,-0.1973,-0.4333,-0.0005,996,1502,1507,1500,2008,1000,1505,1000,1000,1009,1005,1000,1013,0.0673,0.0519,0.0024,-0.0201,0.0078,1.0009,0.2355,0.6311,-0.2366,-0.6301,0.8627,0.2400,0.1321,0.8627,0.2400,0.1321,0.3000,0.0600,0.0002,0,-0.9243,-3.5000,-0.0010,-0.9243,-3.5000,-0.0010,42.2342,34.9987,0.0200,0.0700
16.0038,50.6097,7.5549,0.0829,0.0000,0.1200,0.4200,0.0000,0.0000,-0.1970,-0.4331,-0.0003,998,1504,1507,1501,2008,1000,1505,1000,1000,1009,1005,1000,1013,-0.0213,0.0688,-0.0411,-0.0171,0.0068,1.0051,0.2358,0.6304,-0.2364,-0.6298,0.8627,0.2400,0.1321,0.8627,0.2400,0.1321,0.3000,0.0600,0.0002,0,-0.9243,-3.5000,-0.0010,-0.9243,-3.5000,-0.0010,42.1987,34.9818,0.0200,0.0700
15.9852,50.5774,7.5406,-0.0000,-0.0821,0.1200,0.4200,0.0000,0.0000,-0.1969,-0.4327,-0.0004,996,1502,1507,1500,2008,1000,1505,1000,1000,1009,1005,1000,1013,0.0275,0.0272,-0.0016,-0.0145,0.0062,1.0021,0.2354,0.6301,-0.2363,-0.6292,0.8627,0.2400,0.1321,0.8627,0.2400,0.1321,0.3000,0.0600,0.0002,0,-0.9243,-3.5000,-0.0010,-0.9243,-3.5000,-0.0010,42.1629,34.9654,0.0200,0.0700
15.9671,50.5456,7.5266,0.0829,0.0000,0.1200,0.4200,0.0000,0.0000,-0.1967,-0.4325,-0.0005,996,1502,1507,1500,2008,1000,1505,1000,1000,1009,1005,1000,1013,-0.0079,0.0757,0.0311,-0.0177,0.0038,1.0031,0.2353,0.6298,-0.2364,-0.6287,0.8627,0.2400,0.1321,0.8627,0.2400,0.1321,0.3000,0.0600,0.0002,0,-0.9243,-3.5000,-0.0010,-0.9243,-3.5000,-0.0010,42.1266,34.9489,0.0200,0.0700
15.9487,50.5134,7.5128,-0.0000,0.0000,0.1200,0.4200,0.0000,0.0000,-0.1966,-0.4322,-0.0007,996,1502,1507,1500,2008,1000,1505,1000,1000,1009,1005,1000,1013,0.0119,0.0352,0.0776,-0.0162,0.0048,1.0033,0.2349,0.6295,-0.2363,-0.6281,0.8627,0.2400,0.1321,0.8627,0.2400,0.1321,0.3000,0.0600,0.0002,0,-0.9243,-3.5000,-0.0010,-0.9243,-3.5000,-0.0010,42.0906,34.9315,0.0200,0.0700
15.9302,50.4812,7.4991,0.0829,0.0000,0.1200,0.4200,0.0000,0.0000,-0.1964,-0.4319,-0.0005,996,1502,1507,1500,2008,1000,1505,1000,1000,1009,1005,1000,1013,0.0355,-0.0145,0.0185,-0.0181,0.0040,1.0001,0.2349,0.6288,-0.2359,-0.6278,0.8627,0.2400,0.1321,0.8627,0.2400,0.1321,0.3000,0.0600,0.0002,0,-0.9243,-3.5000,-0.0010,-0.9243,-3.5000,-0.0010,42.0548,34.9147,0.0200,0.0700
15.9116,50.4488,7.4845,0.0829,0.0000,0.1200,0.4200,0.0000,0.0000,-0.1962,-0.4316,-0.0004,996,1502,1507,1500,2008,1000,1505,1000,1000,1009,1005,1000,1013,0.0039,-0.0116,-0.0309,-0.0175,0.0083,0.9995,0.2349,0.6282,-0.2358,-0.6274,0.8627,0.2400,0.1321,0.8627,0.2400,0.1321,0.3000,0.0600,0.0002,0,-0.9243,-3.5000,-0.0010,-0.9243,-3.5000,-0.0010,42.0191,34.8982,0.0200,0.0700
15.8933,50.4166,7.4704,0.1657,-0.0821,0.1200,0.4200,0.0000,0.0000,-0.1961,-0.4312,-0.0004,998,1504,1507,1501,2008,1000,1505,1000,1000,1009,1005,1000,1013,0.0417,-0.0828,-0.0190,-0.0183,0.0057,0.9964,0.2347,0.6278,-0.2355,-0.6269,0.8627,0.2400,0.1321,0.8627,0.2400,0.1321,0.3000,0.0600,0.0002,0,-0.9243,-3.5000,-0.0010,-0.9243,-3.5000,-0.0010,41.9829,34.8809,0.0200,0.0700
15.8749,50.3840,7.4559,-0.0000,0.0821,0.1200,0.4200,0.0000,0.0000,-0.1960,-0.4311,-0.0006,996,1502,1507,1500,2008,1000,1505,1000,1000,1009,1005,1000,1013,0.0641,0.0144,0.0416,-0.0184,0.0048,0.9987,0.2344,0.6277,-0.2357,-0.6264,0.8627,0.2400,0.1321,0.8627,0.2400,0.1321,0.3000,0.0600,0.0002,0,-0.9243,-3.5000,-0.0010,-0.9243,-3.5000,-0.0010,41.9473,34.8640,0.0200,0.0700
15.8565,50.3519,7.4417,0.0829,0.0000,0.1200,0.4200,0.0000,0.0000,-0.1958,-0.4308,-0.0004,996,1502,1507,1500,2008,1000,1505,1000,1000,1009,1005,1000,1013,0.0017,0.0127,-0.0102,-0.0180,0.0069,1.0005,0.2346,0.6270,-0.2355,-0.6261,0.8627,0.2400,0.1321,0.8627,0.2400,0.1321,0.3000,0.0600,0.0002,0,-0.9243,-3.5000,-0.0010,-0.9243,-3.5000,-0.0010,41.9118,34.8473,0.0200,0.0700
15.8377,50.3191,7.4271,0.0829,0.0000,0.1200,0.4200,0.0000,0.0000,-0.1956,-0.4304,-0.0006,996,1502,1507,1500,2008,1000,1505,1000,1000,1009,1005,1000,1013,-0.0286,-0.0591,0.0339,-0.0186,0.0049,0.9958,0.2343,0.6265,-0.2354,-0.6254,0.8627,0.2400,0.1321,0.8627,0.2400,0.1321,0.3000,0.0600,0.0002,0,-0.9243,-3.5000,-0.0010,-0.9243,-3.5000,-0.0010,41.8759,34.8307,0.0200,0.0700
15.8189,50.2870,7.4127,-0.0000,0.0000,0.1200,0.4200,0.0000,0.0000,-0.1955,-0.4303,-0.0004,996,1502,1507,1500,2008,1000,1505,1000,1000,1009,1005,1000,1013,0.0469,0.0537,-0.0379,-0.0165,0.0046,1.0019,0.2344,0.6261,-0.2351,-0.6254,0.8627,0.2400,0.1321,0.8627,0.2400,0.1321,0.3000,0.0600,0.0002,0,-0.9243,-3.5000,-0.0010,-0.9243,-3.5000,-0.0010,41.8404,34.8135,0.0200,0.0700
15.8007,50.2555,7.3986,-0.0000,0.0000,0.1200,0.4200,0.0000,0.0000,-0.1953,-0.4300,-0.0004,996,1502,1507,1500,2008,1000,1505,1000,1000,1009,1005,1000,1013,-0.0061,0.0891,0.0004,-0.0179,0.0058,0.9993,0.2343,0.6258,-0.2352,-0.6249,0.8627,0.2400,0.1321,0.8627,0.2400,0.1321,0.3000,0.0600,0.0002,0,-0.9243,-3.5000,-0.0010,-0.9243,-3.5000,-0.0010,41.8050,34.7966,0.0200,0.0700
15.7824,50.2237,7.3849,-0.0000,0.0821,0.1200,0.4200,0.0000,0.0000,-0.1951,-0.4296,-0.0006,998,1504,1507,1501,2008,1000,1505,1000,1000,1009,1005,1000,1013,-0.0421,-0.0075,0.0509,-0.0203,0.0073,1.0000,0.2340,0.6253,-0.2352,-0.6241,0.8627,0.2400,0.1321,0.8627,0.2400,0.1321,0.3000,0.0600,0.0002,0,-0.9243,-3.5000,-0.0010,-0.9243,-3.5000,-0.0010,41.7692,34.7799,0.0200,0.0700
15.7642,50.1914,7.3710,0.0829,0.0821,0.1200,0.4200,0.0000,0.0000,-0.1949,-0.4294,-0.0004,996,1502,1507,1500,2008,1000,1505,1000,1000,1009,1005,1000,1013,-0.0157,-0.0182,-0.0195,-0.0186,0.0078,1.0014,0.2340,0.6247,-0.2349,-0.6239,0.8627,0.2400,0.1321,0.8627,0.2400,0.1321,0.3000,0.0600,0.0002,0,-0.9243,-3.5000,-0.0010,-0.9243,-3.5000,-0.0010,41.7331,34.7627,0.0200,0.0700
15.7463,50.1591,7.3576,-0.0829,-0.1642,0.1200,0.4200,0.0000,0.0000,-0.1948,-0.4291,-0.0006,996,1502,1507,1500,2008,1000,1505,1000,1000,1009,1005,1000,1013,0.0132,0.0055,0.0656,-0.0158,0.0085,0.9973,0.2336,0.6246,-0.2349,-0.6233,0.8627,0.2400,0.1321,0.8627,0.2400,0.1321,0.3000,0.0600,0.0002,0,-0.9243,-3.5000,-0.0010,-0.9243,-3.5000,-0.0010,41.6973,34.7458,0.0200,0.0700
15.7284,50.1266,7.3438,-0.0000,0.0821,0.1200,0.4200,0.0000,0.0000,-0.1947,-0.4289,-0.0006,996,1502,1507,1500,2008,1000,1505,1000,1000,1009,1005,1000,1013,0.0344,0.0341,0.0512,-0.0197,0.0057,0.9988,0.2335,0.6242,-0.2348,-0.6229,0.8627,0.2400,0.1321,0.8627,0.2400,0.1321,0.3000,0.0600,0.0002,0,-0.9243,-3.5000,-0.0010,-0.9243,-3.5000,-0.0010,41.6609,34.7292,0.0200,0.0700
15.7106,50.0936,7.3301,-0.0829,-0.1642,0.1200,0.4200,0.0000,0.0000,-0.1945,-0.4284,-0.0004,996,1502,1507,1500,2008,1000,1505,1000,1000,1009,1005,1000,1013,0.0046,-0.0760,-0.0162,-0.0172,0.0072,0.9988,0.2335,0.6233,-0.2343,-0.6225,0.8627,0.2400,0.1321,0.8627,0.2400,0.1321,0.3000,0.0600,0.0002,0,-0.9243,-3.5000,-0.0010,-0.9243,-3.5000,-0.0010,41.6248,34.7118,0.0200,0.0700
15.6922,50.0609,7.3166,-0.0000,0.1642,0.1200,0.4200,0.0000,0.0000,-0.1943,-0.4283,-0.0005,996,1502,1507,1500,2008,1000,1505,1000,1000,1009,1005,1000,1013,-0.0197,0.0348,0.0116,-0.0190,0.0100,0.9987,0.2335,0.6231,-0.2345,-0.6221,0.8627,0.2400,0.1321,0.8627,0.2400,0.1321,0.3000,0.0600,0.0002,0,-0.9243,-3.5000,-0.0010,-0.9243,-3.5000,-0.0010,41.5888,34.6952,0.0200,0.0700
15.6737,50.0288,7.3028,-0.0829,-0.0821,0.1200,0.4200,0.0000,0.0000,-0.1942,-0.4280,-0.0005,998,1504,1507,1501,2008,1000,1505,1000,1000,1009,1005,1000,1013,-0.0118,0.0379,0.0020,-0.0197,0.0038,1.0028,0.2334,0.6227,-0.2344,-0.6217,0.8627,0.2400,0.1321,0.8627,0.2400,0.1321,0.3000,0.0600,0.0002,0,-0.9243,-3.5000,-0.0010,-0.9243,-3.5000,-0.0010,41.5531,34.6786,0.0200,0.0700
15.6551,49.9964,7.2890,0.0829,0.0821,0.1200,0.4200,0.0000,0.0000,-0.1940,-0.4277,-0.0006,996,1502,1507,1500,2008,1000,1505,1000,1000,1009,1005,1000,1013,-0.0303,0.0081,0.0421,-0.0180,0.0062,1.0024,0.2331,0.6223,-0.2343,-0.6211,0.8627,0.2400,0.1321,0.8627,0.2400,0.1321,0.3000,0.0600,0.0002,0,-0.9243,-3.5000,-0.0010,-0.9243,-3.5000,-0.0010,41.5185,34.6618,0.0200,0.0700
15.6373,49.9640,7.2761,0.0829,-0.0821,0.1200,0.4200,0.0000,0.0000,-0.1938,-0.4275,-0.0006,996,1502,1507,1500,2008,1000,1505,1000,1000,1009,1005,1000,1013,-0.0626,0.0718,0.0708,-0.0180,0.0076,0.9965,0.2331,0.6219,-0.2343,-0.6207,0.8627,0.2400,0.1321,0.8627,0.2400,0.1321,0.3000,0.0600,0.0002,0,-0.9243,-3.5000,-0.0010,-0.9243,-3.5000,-0.0010,41.4830,34.6447,0.0200,0.0700
15.6192,49.9315,7.2628,0.0829,0.0000,0.1200,0.4200,0.0000,0.0000,-0.1936,-0.4271,-0.0005,996,1502,1507,1500,2008,1000,1505,1000,1000,1009,1005,1000,1013,-0.0497,-0.0160,0.0118,-0.0185,0.0049,0.9978,0.2330,0.6212,-0.2339,-0.6203,0.8627,0.2400,0.1321,0.8627,0.2400,0.1321,0.3000,0.0600,0.0002,0,-0.9243,-3.5000,-0.0010,-0.9243,-3.5000,-0.0010,41.4471,34.6271,0.0200,0.0700
15.6004,49.8984,7.2488,0.0829,0.0000,0.1200,0.4200,0.0000,0.0000,-0.1935,-0.4268,-0.0007,996,1502,1507,1500,2008,1000,1505,1000,1000,1009,1005,1000,1013,-0.0127,-0.0303,0.0842,-0.0150,0.0041,0.9991,0.2325,0.6211,-0.2340,-0.6196,0.8627,0.2400,0.1321,0.8627,0.2400,0.1321,0.3000,0.0600,0.0002,0,-0.9243,-3.5000,-0.0010,-0.9243,-3.5000,-0.0010,41.4111,34.6096,0.0200,0.0700
15.5828,49.8654,7.2359,-0.0000,0.0000,0.1200,0.4200,0.0000,0.0000,-0.1934,-0.4265,-0.0005,996,1502,1507,1500,2008,1000,1505,1000,1000,1009,1005,1000,1013,-0.0021,-0.0235,0.0153,-0.0158,0.0060,1.0005,0.2326,0.6205,-0.2337,-0.6194,0.8627,0.2400,0.1321,0.8627,0.2400,0.1321,0.3000,0.0600,0.0002,0,-0.9243,-3.5000,-0.0010,-0.9243,-3.5000,-0.0010,41.3746,34.5928,0.0200,0.0700
15.5640,49.8330,7.2216,0.0829,-0.0821,0.1200,0.4200,0.0000,0.0000,-0.1932,-0.4263,-0.0005,998,1504,1507,1501,2008,1000,1505,1000,1000,1009,1005,1000,1013,0.0017,0.0087,-0.0113,-0.0168,0.0063,0.9980,0.2326,0.6200,-0.2335,-0.6191,0.8627,0.2400,0.1321,0.8627,0.2400,0.1321,0.3000,0.0600,0.0002,0,-0.9243,-3.5000,-0.0010,-0.9243,-3.5000,-0.0010,41.3383,34.5764,0.0200,0.0700
15.5456,49.8006,7.2073,0.0829,-0.0821,0.1200,0.4200,0.0000,0.0000,-0.1931,-0.4260,-0.0005,996,1502,1507,1500,2008,1000,1505,1000,1000,1009,1005,1000,1013,0.0260,-0.0210,-0.0013,-0.0198,0.0043,1.0023,0.2324,0.6196,-0.2333,-0.6186,0.8627,0.2400,0.1321,0.8627,0.2400,0.1321,0.3000,0.0600,0.0002,0,-0.9243,-3.5000,-0.0010,-0.9243,-3.5000,-0.0010,41.3018,34.5598,0.0200,0.0700
15.5277,49.7682,7.1938,-0.0000,0.0000,0.1200,0.4200,0.0000,0.0000,-0.1929,-0.4257,-0.0006,996,1502,1507,1500,2008,1000,1505,1000,1000,1009,1005,1000,1013,0.0054,0.0012,0.0471,-0.0186,0.0078,1.0006,0.2322,0.6193,-0.2334,-0.6180,0.8627,0.2400,0.1321,0.8627,0.2400,0.1321,0.3000,0.0600,0.0002,0,-0.9243,-3.5000,-0.0010,-0.9243,-3.5000,-0.0010,41.2651,34.5424,0.0200,0.0700
15.5098,49.7363,7.1802,0.0829,0.0821,0.1200,0.4200,0.0000,0.0000,-0.1928,-0.4255,-0.0003,996,1502,1507,1500,2008,1000,1505,1000,1000,1009,1005,1000,1013,0.0034,0.0401,-0.0487,-0.0187,0.0063,0.9973,0.2324,0.6186,-0.2330,-0.6180,0.8627,0.2400,0.1321,0.8627,0.2400,0.1321,0.3000,0.0600,0.0002,0,-0.9243,-3.5000,-0.0010,-0.9243,-3.5000,-0.0010,41.2289,34.5251,0.0200,0.0700
15.4906,49.7040,7.1653,-0.0000,0.0000,0.1200,0.4200,0.0000,0.0000,-0.1925,-0.4252,-0.0004,996,1502,1507,1500,2008,1000,1505,1000,1000,1009,1005,1000,1013,-0.0558,0.0434,-0.0333,-0.0150,0.0069,0.9967,0.2323,0.6181,-0.2331,-0.6174,0.8627,0.2400,0.1321,0.8627,0.2400,0.1321,0.3000,0.0600,0.0002,0,-0.9243,-3.5000,-0.0010,-0.9243,-3.5000,-0.0010,41.1933,34.5086,0.0200,0.0700
15.4716,49.6720,7.1507,-0.0000,0.1642,0.1200,0.4200,0.0000,0.0000,-0.1924,-0.4249,-0.0003,996,1502,1507,1500,2008,1000,1505,1000,1000,1009,1005,1000,1013,-0.0202,0.0352,-0.0848,-0.0173,0.0076,0.9974,0.2323,0.6176,-0.2328,-0.6171,0.8627,0.2400,0.1321,0.8627,0.2400,0.1321,0.3000,0.0600,0.0002,0,-0.9243,-3.5000,-0.0010,-0.9243,-3.5000,-0.0010,41.1574,34.4918,0.0200,0.0700
15.4527,49.6398,7.1365,0.0829,-0.0821,0.1200,0.4200,0.0000,0.0000,-0.1922,-0.4247,-0.0002,998,1504,1507,1501,2008,1000,1505,1000,1000,1009,1005,1000,1013,-0.0287,0.0440,-0.0690,-0.0174,0.0067,0.9971,0.2322,0.6172,-0.2327,-0.6167,0.8627,0.2400,0.1321,0.8627,0.2400,0.1321,0.3000,0.0600,0.0002,0,-0.9243,-3.5000,-0.0010,-0.9243,-3.5000,-0.0010,41.1207,34.4757,0.0200,0.0700
15.4337,49.6073,7.1215,0.0829,0.0000,0.1200,0.4200,0.0000,0.0000,-0.1921,-0.4243,-0.0004,996,1502,1507,1500,2008,1000,1505,1000,1000,1009,1005,1000,1013,-0.0192,-0.0433,-0.0330,-0.0163,0.0050,0.9985,0.2318,0.6168,-0.2326,-0.6160,0.8627,0.2400,0.1321,0.8627,0.2400,0.1321,0.3000,0.0600,0.0002,0,-0.9243,-3.5000,-0.0010,-0.9243,-3.5000,-0.0010,41.0842,34.4587,0.0200,0.0700
15.4141,49.5743,7.1061,0.0829,0.0821,0.1200,0.4200,0.0000,0.0000,-0.1918,-0.4240,-0.0001,996,1502,1507,1500,2008,1000,1505,1000,1000,1009,1005,1000,1013,-0.0804,-0.0279,-0.1246,-0.0195,0.0035,0.9981,0.2321,0.6160,-0.2323,-0.6157,0.8627,0.2400,0.1321,0.8627,0.2400,0.1321,0.3000,0.0600,0.0002,0,-0.9243,-3.5000,-0.0010,-0.9243,-3.5000,-0.0010,41.0484,34.4425,0.0200,0.0700
15.3948,49.5417,7.0908,-0.0000,-0.0821,0.1200,0.4200,0.0000,0.0000,-0.1917,-0.4237,-0.0001,996,1502,1507,1500,2008,1000,1505,1000,1000,1009,1005,1000,1013,-0.0215,-0.0447,-0.1028,-0.0174,0.0057,1.0042,0.2318,0.6156,-0.2321,-0.6153,0.8627,0.2400,0.1321,0.8627,0.2400,0.1321,0.3000,0.0600,0.0002,0,-0.9243,-3.5000,-0.0010,-0.9243,-3.5000,-0.0010,41.0122,34.4266,0.0200,0.0700
15.3761,49.5089,7.0762,-0.0000,0.0821,0.1200,0.4200,0.0000,0.0000,-0.1916,-0.4235,-0.0005,996,1502,1507,1500,2008,1000,1505,1000,1000,1009,1005,1000,1013,-0.0139,-0.0049,0.0014,-0.0176,0.0044,1.0026,0.2314,0.6155,-0.2323,-0.6146,0.8627,0.2400,0.1321,0.8627,0.2400,0.1321,0.3000,0.0600,0.0002,0,-0.9243,-3.5000,-0.0010,-0.9243,-3.5000,-0.0010,40.9774,34.4098,0.0200,0.0700
15.3583,49.4762,7.0630,-0.0000,-0.0821,0.1200,0.4200,0.0000,0.0000,-0.1914,-0.4233,-0.0007,996,1502,1507,1500,2008,1000,1505,1000,1000,1009,1005,1000,1013,-0.0367,0.0402,0.0551,-0.0179,0.0078,0.9992,0.2312,0.6154,-0.2325,-0.6140,0.8627,0.2400,0.1321,0.8627,0.2400,0.1321,0.3000,0.0600,0.0002,0,-0.9243,-3.5000,-0.0010,-0.9243,-3.5000,-0.0010,40.9417,34.3927,0.0200,0.0700
15.3415,49.4432,7.0517,-0.0000,0.0000,0.1200,0.4200,0.0000,0.0000,-0.1912,-0.4229,-0.0011,998,1504,1507,1501,2008,1000,1505,1000,1000,1009,1005,1000,1013,-0.0719,0.0040,0.2135,-0.0178,0.0072,1.0019,0.2306,0.6153,-0.2329,-0.6130,0.8627,0.2400,0.1321,0.8627,0.2400,0.1321,0.3000,0.0600,0.0002,0,-0.9243,-3.5000,-0.0010,-0.9243,-3.5000,-0.0010,40.9063,34.3750,0.0200,0.0700
15.3254,49.4095,7.0409,-0.0829,-0.0821,0.1200,0.4200,0.0000,0.0000,-0.1912,-0.4226,-0.0013,996,1502,1507,1500,2008,1000,1505,1000,1000,1009,1005,1000,1013,0.0080,-0.0253,0.2649,-0.0177,0.0040,1.0001,0.2301,0.6151,-0.2327,-0.6125,0.8627,0.2400,0.1321,0.8627,0.2400,0.1321,0.3000,0.0600,0.0002,0,-0.9243,-3.5000,-0.0010,-0.9243,-3.5000,-0.0010,40.8716,34.3567,0.0200,0.0700
15.3100,49.3758,7.0307,0.0829,0.0000,0.1200,0.4200,0.0000,0.0000,-0.1910,-0.4223,-0.0010,996,1502,1507,1500,2008,1000,1505,1000,1000,1009,1005,1000,1013,-0.0030,0.0010,0.1887,-0.0179,0.0055,0.9976,0.2303,0.6144,-0.2323,-0.6124,0.8627,0.2400,0.1321,0.8627,0.2400,0.1321,0.3000,0.0600,0.0002,0,-0.9243,-3.5000,-0.0010,-0.9243,-3.5000,-0.0010,40.8372,34.3379,0.0200,0.0700
15.2950,49.3427,7.0207,0.0829,0.0000,0.1200,0.4200,0.0000,0.0000,-0.1910,-0.4222,-0.0012,996,1502,1507,1500,2008,1000,1505,1000,1000,1009,1005,1000,1013,0.0323,0.0803,0.2429,-0.0194,0.0048,0.9970,0.2300,0.6143,-0.2324,-0.6119,0.8627,0.2400,0.1321,0.8627,0.2400,0.1321,0.3000,0.0600,0.0002,0,-0.9243,-3.5000,-0.0010,-0.9243,-3.5000,-0.0010,40.8033,34.3190,0.0200,0.0700
15.2801,49.3092,7.0109,0.0829,0.0000,0.1200,0.4200,0.0000,0.0000,-0.1907,-0.4218,-0.0010,996,1502,1507,1500,2008,1000,1505,1000,1000,1009,1005,1000,1013,-0.0377,-0.0120,0.1745,-0.0200,0.0058,0.9970,0.2300,0.6135,-0.2320,-0.6115,0.8627,0.2400,0.1321,0.8627,0.2400,0.1321,0.3000,0.0600,0.0002,0,-0.9243,-3.5000,-0.0010,-0.9243,-3.5000,-0.0010,40.7690,34.3005,0.0200,0.0700
15.2641,49.2759,6.9997,0.0829,-0.0821,0.1200,0.4200,0.0000,0.0000,-0.1906,-0.4214,-0.0009,996,1502,1507,1500,2008,1000,1505,1000,1000,1009,1005,1000,1013,-0.0245,-0.0264,0.1191,-0.0189,0.0086,0.9999,0.2300,0.6129,-0.2317,-0.6112,0.8627,0.2400,0.1321,0.8627,0.2400,0.1321,0.3000,0.0600,0.0002,0,-0.9243,-3.5000,-0.0010,-0.9243,-3.5000,-0.0010,40.7341,34.2817,0.0200,0.0700
15.2467,49.2435,6.9869,-0.0000,0.0821,0.1200,0.4200,0.0000,0.0000,-0.1905,-0.4213,-0.0005,998,1504,1507,1501,2008,1000,1505,1000,1000,1009,1005,1000,1013,0.0087,0.0775,0.0056,-0.0208,0.0058,0.9991,0.2303,0.6123,-0.2313,-0.6113,0.8627,0.2400,0.1321,0.8627,0.2400,0.1321,0.3000,0.0600,0.0002,0,-0.9243,-3.5000,-0.0010,-0.9243,-3.5000,-0.0010,40.6979,34.2640,0.0200,0.0700
15.2285,49.2113,6.9732,0.0829,-0.0821,0.1200,0.4200,0.0000,0.0000,-0.1903,-0.4210,-0.0002,996,1502,1507,1500,2008,1000,1505,1000,1000,1009,1005,1000,1013,-0.0401,0.0622,-0.0840,-0.0151,0.0056,0.9971,0.2305,0.6115,-0.2309,-0.6111,0.8627,0.2400,0.1321,0.8627,0.2400,0.1321,0.3000,0.0600,0.0002,0,-0.9243,-3.5000,-0.0010,-0.9243,-3.5000,-0.0010,40.6613,34.2470,0.0200,0.0700
15.2091,49.1795,6.9584,0.0829,0.1642,0.1200,0.4200,0.0000,0.0000,-0.1902,-0.4208,-0.0001,996,1502,1507,1500,2008,1000,1505,1000,1000,1009,1005,1000,1013,-0.0016,0.1367,-0.1220,-0.0155,0.0040,1.0005,0.2306,0.6111,-0.2307,-0.6109,0.8627,0.2400,0.1321,0.8627,0.2400,0.1321,0.3000,0.0600,0.0002,0,-0.9243,-3.5000,-0.0010,-0.9243,-3.5000,-0.0010,40.6253,34.2312,0.0200,0.0700
15.1893,49.1474,6.9425,0.0829,0.0821,0.1200,0.4200,0.0000,0.0000,-0.1900,-0.4204,-0.0001,996,1502,1507,1500,2008,1000,1505,1000,1000,1009,1005,1000,1013,-0.0275,0.0031,-0.1254,-0.0175,0.0070,0.9990,0.2303,0.6105,-0.2305,-0.6102,0.8627,0.2400,0.1321,0.8627,0.2400,0.1321,0.3000,0.0600,0.0002,0,-0.9243,-3.5000,-0.0010,-0.9243,-3.5000,-0.0010,40.5887,34.2147,0.0200,0.0700
15.1698,49.1150,6.9272,0.0829,0.0000,0.1200,0.4200,0.0000,0.0000,-0.1899,-0.4202,-0.0000,996,1502,1507,1500,2008,1000,1505,1000,1000,1009,1005,1000,1013,0.0116,0.0750,-0.1498,-0.0193,0.0058,0.9963,0.2303,0.6100,-0.2303,-0.6100,0.8627,0.2400,0.1321,0.8627,0.2400,0.1321,0.3000,0.0600,0.0002,0,-0.9243,-3.5000,-0.0010,-0.9243,-3.5000,-0.0010,40.5511,34.1981,0.0200,0.0700
15.1503,49.0828,6.9114,-0.0000,0.1642,0.1200,0.4200,0.0000,0.0000,-0.1897,-0.4198,-0.0002,996,1502,1507,1500,2008,1000,1505,1000,1000,1009,1005,1000,1013,0.0226,0.0196,-0.1050,-0.0198,0.0067,0.9976,0.2300,0.6097,-0.2303,-0.6094,0.8627,0.2400,0.1321,0.8627,0.2400,0.1321,0.3000,0.0600,0.0002,0,-0.9243,-3.5000,-0.0010,-0.9243,-3.5000,-0.0010,40.5146,34.1819,0.0200,0.0700
15.1311,49.0502,6.8965,0.0829,0.0000,0.1200,0.4200,0.0000,0.0000,-0.1895,-0.4195,-0.0003,998,1504,1507,1501,2008,1000,1505,1000,1000,1009,1005,1000,1013,-0.0371,-0.0354,-0.0484,-0.0180,0.0052,0.9999,0.2297,0.6093,-0.2304,-0.6086,0.8627,0.2400,0.1321,0.8627,0.2400,0.1321,0.3000,0.0600,0.0002,0,-0.9243,-3.5000,-0.0010,-0.9243,-3.5000,-0.0010,40.4780,34.1653,0.0200,0.0700
15.1122,49.0170,6.8818,-0.0000,0.0000,0.1200,0.4200,0.0000,0.0000,-0.1893,-0.4192,-0.0003,996,1502,1507,1500,2008,1000,1505,1000,1000,1009,1005,1000,1013,-0.0285,-0.0564,-0.0554,-0.0177,0.0076,0.9976,0.2296,0.6088,-0.2302,-0.6082,0.8627,0.2400,0.1321,0.8627,0.2400,0.1321,0.3000,0.0600,0.0002,0,-0.9243,-3.5000,-0.0010,-0.9243,-3.5000,-0.0010,40.4415,34.1483,0.0200,0.0700
15.0930,48.9841,6.8669,-0.0829,0.0821,0.1200,0.4200,0.0000,0.0000,-0.1892,-0.4189,-0.0003,996,1502,1507,1500,2008,1000,1505,1000,1000,1009,1005,1000,1013,0.0202,-0.0176,-0.0780,-0.0202,0.0081,1.0042,0.2295,0.6084,-0.2300,-0.6079,0.8627,0.2400,0.1321,0.8627,0.2400,0.1321,0.3000,0.0600,0.0002,0,-0.9243,-3.5000,-0.0010,-0.9243,-3.5000,-0.0010,40.4053,34.1313,0.0200,0.0700
15.0747,48.9514,6.8528,0.0829,0.1642,0.1200,0.4200,0.0000,0.0000,-0.1890,-0.4187,-0.0006,996,1502,1507,1500,2008,1000,1505,1000,1000,1009,1005,1000,1013,-0.0284,-0.0140,0.0407,-0.0175,0.0089,0.9983,0.2291,0.6083,-0.2303,-0.6070,0.8627,0.2400,0.1321,0.8627,0.2400,0.1321,0.3000,0.0600,0.0002,0,-0.9243,-3.5000,-0.0010,-0.9243,-3.5000,-0.0010,40.3693,34.1149,0.0200,0.0700
15.0569,48.9186,6.8393,0.0829,0.0821,0.1200,0.4200,0.0000,0.0000,-0.1888,-0.4185,-0.0004,996,1502,1507,1500,2008,1000,1505,1000,1000,1009,1005,1000,1013,-0.0217,0.0582,-0.0165,-0.0175,0.0059,1.0029,0.2292,0.6077,-0.2301,-0.6069,0.8627,0.2400,0.1321,0.8627,0.2400,0.1321,0.3000,0.0600,0.0002,0,-0.9243,-3.5000,-0.0010,-0.9243,-3.5000,-0.0010,40.3340,34.0978,0.0200,0.0700
15.0395,48.8861,6.8265,-0.0000,0.0000,0.1200,0.4200,0.0000,0.0000,-0.1887,-0.4182,-0.0007,996,1502,1507,1500,2008,1000,1505,1000,1000,1009,1005,1000,1013,0.0172,0.0865,0.0773,-0.0152,0.0054,0.9981,0.2288,0.6077,-0.2302,-0.6062,0.8627,0.2400,0.1321,0.8627,0.2400,0.1321,0.3000,0.0600,0.0002,0,-0.9243,-3.5000,-0.0010,-0.9243,-3.5000,-0.0010,40.2983,34.0799,0.0200,0.0700
15.0221,48.8530,6.8142,-0.0829,-0.0821,0.1200,0.4200,0.0000,0.0000,-0.1885,-0.4178,-0.0007,998,1504,1507,1501,2008,1000,1505,1000,1000,1009,1005,1000,1013,-0.0548,0.0118,0.0930,-0.0188,0.0047,0.9987,0.2286,0.6071,-0.2301,-0.6056,0.8627,0.2400,0.1321,0.8627,0.2400,0.1321,0.3000,0.0600,0.0002,0,-0.9243,-3.5000,-0.0010,-0.9243,-3.5000,-0.0010,40.2635,34.0626,0.0200,0.0700
15.0051,48.8198,6.8024,0.0829,0.0000,0.1200,0.4200,0.0000,0.0000,-0.1884,-0.4176,-0.0007,996,1502,1507,1500,2008,1000,1505,1000,1000,1009,1005,1000,1013,-0.0247,0.0533,0.0899,-0.0181,0.0023,0.9998,0.2285,0.6067,-0.2300,-0.6053,0.8627,0.2400,0.1321,0.8627,0.2400,0.1321,0.3000,0.0600,0.0002,0,-0.9243,-3.5000,-0.0010,-0.9243,-3.5000,-0.0010,40.2282,34.0446,0.0200,0.0700
14.9880,48.7869,6.7904,-0.0829,0.0000,0.1200,0.4200,0.0000,0.0000,-0.1883,-0.4172,-0.0008,996,1502,1507,1500,2008,1000,1505,1000,1000,1009,1005,1000,1013,-0.0123,-0.0362,0.1021,-0.0166,0.0060,0.9980,0.2282,0.6063,-0.2298,-0.6047,0.8627,0.2400,0.1321,0.8627,0.2400,0.1321,0.3000,0.0600,0.0002,0,-0.9243,-3.5000,-0.0010,-0.9243,-3.5000,-0.0010,40.1932,34.0263,0.0200,0.0700
14.9722,48.7533,6.7793,-0.0000,0.0821,0.1200,0.4200,0.0000,0.0000,-0.1882,-0.4170,-0.0011,996,1502,1507,1500,2008,1000,1505,1000,1000,1009,1005,1000,1013,0.0498,0.0483,0.1946,-0.0179,0.0061,0.9994,0.2277,0.6063,-0.2299,-0.6041,0.8627,0.2400,0.1321,0.8627,0.2400,0.1321,0.3000,0.0600,0.0002,0,-0.9243,-3.5000,-0.0010,-0.9243,-3.5000,-0.0010,40.1582,34.0077,0.0200,0.0700
14.9566,48.7197,6.7684,0.0829,0.0821,0.1200,0.4200,0.0000,0.0000,-0.1880,-0.4167,-0.0010,996,1502,1507,1500,2008,1000,1505,1000,1000,1009,1005,1000,1013,0.0106,0.0201,0.1639,-0.0177,0.0051,1.0000,0.2277,0.6057,-0.2297,-0.6037,0.8627,0.2400,0.1321,0.8627,0.2400,0.1321,0.3000,0.0600,0.0002,0,-0.9243,-3.5000,-0.0010,-0.9243,-3.5000,-0.0010,40.1240,33.9893,0.0200,0.0700
14.9402,48.6863,6.7572,-0.0829,0.0000,0.1200,0.4200,0.0000,0.0000,-0.1878,-0.4164,-0.0010,996,1502,1507,1500,2008,1000,1505,1000,1000,1009,1005,1000,1013,-0.0251,0.0425,0.1521,-0.0188,0.0055,0.9986,0.2277,0.6052,-0.2296,-0.6033,0.8627,0.2400,0.1321,0.8627,0.2400,0.1321,0.3000,0.0600,0.0002,0,-0.9243,-3.5000,-0.0010,-0.9243,-3.5000,-0.0010,40.0897,33.9710,0.0200,0.0700
14.9241,48.6527,6.7462,0.0829,0.0000,0.1200,0.4200,0.0000,0.0000,-0.1877,-0.4161,-0.0008,998,1504,1507,1501,2008,1000,1505,1000,1000,1009,1005,1000,1013,0.0059,-0.0018,0.1174,-0.0179,0.0071,0.9996,0.2276,0.6046,-0.2292,-0.6030,0.8627,0.2400,0.1321,0.8627,0.2400,0.1321,0.3000,0.0600,0.0002,0,-0.9243,-3.5000,-0.0010,-0.9243,-3.5000,-0.0010,40.0547,33.9529,0.0200,0.0700
14.9072,48.6196,6.7336,-0.0000,0.0000,0.1200,0.4200,0.0000,0.0000,-0.1876,-0.4158,-0.0005,996,1502,1507,1500,2008,1000,1505,1000,1000,1009,1005,1000,1013,0.0302,0.0126,0.0201,-0.0157,0.0052,1.0018,0.2277,0.6040,-0.2287,-0.6029,0.8627,0.2400,0.1321,0.8627,0.2400,0.1321,0.3000,0.0600,0.0002,0,-0.9243,-3.5000,-0.0010,-0.9243,-3.5000,-0.0010,40.0197,33.9345,0.0200,0.0700
14.8897,48.5858,6.7209,0.1657,0.0000,0.1200,0.4200,0.0000,0.0000,-0.1873,-0.4155,-0.0006,996,1502,1507,1500,2008,1000,1505,1000,1000,1009,1005,1000,1013,-0.0563,-0.0179,0.0520,-0.0179,0.0082,0.9998,0.2276,0.6035,-0.2288,-0.6022,0.8627,0.2400,0.1321,0.8627,0.2400,0.1321,0.3000,0.0600,0.0002,0,-0.9243,-3.5000,-0.0010,-0.9243,-3.5000,-0.0010,39.9843,33.9167,0.0200,0.0700
14.8718,48.5528,6.7077,-0.0000,0.0000,0.1200,0.4200,0.0000,0.0000,-0.1872,-0.4153,-0.0004,996,1502,1507,1500,2008,1000,1505,1000,1000,1009,1005,1000,1013,-0.0378,0.0178,-0.0371,-0.0177,0.0070,1.0019,0.2277,0.6028,-0.2284,-0.6021,0.8627,0.2400,0.1321,0.8627,0.2400,0.1321,0.3000,0.0600,0.0002,0,-0.9243,-3.5000,-0.0010,-0.9243,-3.5000,-0.0010,39.9487,33.8994,0.0200,0.0700
14.8537,48.5197,6.6943,0.0829,0.0000,0.1200,0.4200,0.0000,0.0000,-0.1871,-0.4150,-0.0003,996,1502,1507,1500,2008,1000,1505,1000,1000,1009,1005,1000,1013,-0.0244,0.0258,-0.0430,-0.0167,0.0047,0.9988,0.2276,0.6024,-0.2282,-0.6018,0.8627,0.2400,0.1321,0.8627,0.2400,0.1321,0.3000,0.0600,0.0002,0,-0.9243,-3.5000,-0.0010,-0.9243,-3.5000,-0.0010,39.9132,33.8816,0.0200,0.0700
14.8353,48.4866,6.6804,0.0829,0.0000,0.1200,0.4200,0.0000,0.0000,-0.1870,-0.4147,-0.0002,996,1502,1507,1500,2008,1000,1505,1000,1000,1009,1005,1000,1013,0.0074,0.0533,-0.0691,-0.0191,0.0051,1.0002,0.2276,0.6019,-0.2280,-0.6015,0.8627,0.2400,0.1321,0.8627,0.2400,0.1321,0.3000,0.0600,0.0002,0,-0.9243,-3.5000,-0.0010,-0.9243,-3.5000,-0.0010,39.8772,33.8643,0.0200,0.0700
14.8168,48.4538,6.6657,0.0829,0.0000,0.1200,0.4200,0.0000,0.0000,-0.1868,-0.4144,-0.0003,998,1504,1507,1501,2008,1000,1505,1000,1000,1009,1005,1000,1013,0.0303,-0.0051,-0.0407,-0.0175,0.0060,0.9998,0.2272,0.6016,-0.2279,-0.6009,0.8627,0.2400,0.1321,0.8627,0.2400,0.1321,0.3000,0.0600,0.0002,0,-0.9243,-3.5000,-0.0010,-0.9243,-3.5000,-0.0010,39.8414,33.8469,0.0200,0.0700
14.7987,48.4202,6.6516,0.2486,0.0000,0.1200,0.4200,0.0000,0.0000,-0.1867,-0.4140,-0.0001,996,1502,1507,1500,2008,1000,1505,1000,1000,1009,1005,1000,1013,0.0579,-0.1116,-0.1328,-0.0205,0.0050,0.9983,0.2272,0.6007,-0.2273,-0.6006,0.8627,0.2400,0.1321,0.8627,0.2400,0.1321,0.3000,0.0600,0.0002,0,-0.9243,-3.5000,-0.0010,-0.9243,-3.5000,-0.0010,39.8050,33.8298,0.0200,0.0700
14.7795,48.3867,6.6364,-0.0000,0.0000,0.1200,0.4200,0.0000,0.0000,-0.1864,-0.4138,-0.0004,996,1502,1507,1500,2008,1000,1505,1000,1000,1009,1005,1000,1013,-0.0212,0.0098,-0.0419,-0.0168,0.0039,1.0051,0.2270,0.6006,-0.2278,-0.5999,0.8627,0.2400,0.1321,0.8627,0.2400,0.1321,0.3000,0.0600,0.0002,0,-0.9243,-3.5000,-0.0010,-0.9243,-3.5000,-0.0010,39.7680,33.8126,0.0200,0.0700
14.7612,48.3534,6.6221,-0.0000,0.0000,0.1200,0.4200,0.0000,0.0000,-0.1863,-0.4134,-0.0002,996,1502,1507,1500,2008,1000,1505,1000,1000,1009,1005,1000,1013,0.0236,-0.0918,-0.0941,-0.0182,0.0049,0.9999,0.2268,0.6000,-0.2273,-0.5995,0.8627,0.2400,0.1321,0.8627,0.2400,0.1321,0.3000,0.0600,0.0002,0,-0.9243,-3.5000,-0.0010,-0.9243,-3.5000,-0.0010,39.7312,33.7958,0.0200,0.0700
14.7429,48.3204,6.6082,-0.0000,0.0000,0.1200,0.4200,0.0000,0.0000,-0.1861,-0.4133,-0.0003,996,1502,1507,1500,2008,1000,1505,1000,1000,1009,1005,1000,1013,-0.0634,0.0297,-0.0413,-0.0212,0.0065,0.9997,0.2269,0.5997,-0.2276,-0.5990,0.8627,0.2400,0.1321,0.8627,0.2400,0.1321,0.3000,0.0600,0.0002,0,-0.9243,-3.5000,-0.0010,-0.9243,-3.5000,-0.0010,39.6951,33.7792,0.0200,0.0700
14.7253,48.2875,6.5949,0.0829,0.0000,0.1200,0.4200,0.0000,0.0000,-0.1860,-0.4130,-0.0005,996,1502,1507,1500,2008,1000,1505,1000,1000,1009,1005,1000,1013,-0.0131,0.0103,0.0001,-0.0179,0.0060,1.0001,0.2265,0.5995,-0.2275,-0.5984,0.8627,0.2400,0.1321,0.8627,0.2400,0.1321,0.3000,0.0600,0.0002,0,-0.9243,-3.5000,-0.0010,-0.9243,-3.5000,-0.0010,39.6587,33.7613,0.0200,0.0700
14.7087,48.2543,6.5832,0.1657,0.0000,0.1200,0.4200,0.0000,0.0000,-0.1859,-0.4128,-0.0007,998,1504,1507,1501,2008,1000,1505,1000,1000,1009,1005,1000,1013,0.0471,0.0755,0.0780,-0.0179,0.0069,1.0006,0.2262,0.5993,-0.2275,-0.5980,0.8627,0.2400,0.1321,0.8627,0.2400,0.1321,0.3000,0.0600,0.0002,0,-0.9243,-3.5000,-0.0010,-0.9243,-3.5000,-0.0010,39.6230,33.7435,0.0200,0.0700
14.6926,48.2213,6.5715,-0.0000,0.0000,0.1200,0.4200,0.0000,0.0000,-0.1858,-0.4124,-0.0008,996,1502,1507,1500,2008,1000,1505,1000,1000,1009,1005,1000,1013,0.0472,0.0174,0.0990,-0.0180,0.0072,1.0006,0.2259,0.5989,-0.2274,-0.5974,0.8627,0.2400,0.1321,0.8627,0.2400,0.1321,0.3000,0.0600,0.0002,0,-0.9243,-3.5000,-0.0010,-0.9243,-3.5000,-0.0010,39.5877,33.7256,0.0200,0.0700
14.6762,48.1878,6.5597,-0.0000,0.0821,0.1200,0.4200,0.0000,0.0000,-0.1856,-0.4122,-0.0008,996,1502,1507,1500,2008,1000,1505,1000,1000,1009,1005,1000,1013,0.0182,0.0632,0.1061,-0.0167,0.0059,1.0047,0.2258,0.5986,-0.2274,-0.5970,0.8627,0.2400,0.1321,0.8627,0.2400,0.1321,0.3000,0.0600,0.0002,0,-0.9243,-3.5000,-0.0010,-0.9243,-3.5000,-0.0010,39.5526,33.7076,0.0200,0.0700
14.6607,48.1545,6.5488,-0.1657,0.0000,0.1200,0.4200,0.0000,0.0000,-0.1855,-0.4118,-0.0007,996,1502,1507,1500,2008,1000,1505,1000,1000,1009,1005,1000,1013,0.0630,0.0053,0.0857,-0.0181,0.0087,1.0005,0.2256,0.5980,-0.2270,-0.5966,0.8627,0.2400,0.1321,0.8627,0.2400,0.1321,0.3000,0.0600,0.0002,0,-0.9243,-3.5000,-0.0010,-0.9243,-3.5000,-0.0010,39.5178,33.6895,0.0200,0.0700
14.6440,48.1210,6.5364,0.0829,0.0821,0.1200,0.4200,0.0000,0.0000,-0.1852,-0.4115,-0.0008,996,1502,1507,1500,2008,1000,1505,1000,1000,1009,1005,1000,1013,-0.0475,-0.0032,0.0842,-0.0189,0.0096,1.0015,0.2255,0.5975,-0.2270,-0.5960,0.8627,0.2400,0.1321,0.8627,0.2400,0.1321,0.3000,0.0600,0.0002,0,-0.9243,-3.5000,-0.0010,-0.9243,-3.5000,-0.0010,39.4837,33.6709,0.0200,0.0700
14.6274,48.0872,6.5248,-0.0829,-0.1642,0.1200,0.4200,0.0000,0.0000,-0.1852,-0.4112,-0.0007,996,1502,1507,1500,2008,1000,1505,1000,1000,1009,1005,1000,1013,-0.0030,-0.0240,0.0553,-0.0162,0.0069,1.0001,0.2254,0.5970,-0.2267,-0.5957,0.8627,0.2400,0.1321,0.8627,0.2400,0.1321,0.3000,0.0600,0.0002,0,-0.9243,-3.5000,-0.0010,-0.9243,-3.5000,-0.0010,39.4491,33.6527,0.0200,0.0700
14.6111,48.0537,6.5135,-0.0000,0.0821,0.1200,0.4200,0.0000,0.0000,-0.1850,-0.4109,-0.0008,998,1504,1507,1501,2008,1000,1505,1000,1000,1009,1005,1000,1013,-0.0334,0.0058,0.1200,-0.0138,0.0079,0.9994,0.2252,0.5967,-0.2268,-0.5951,0.8627,0.2400,0.1321,0.8627,0.2400,0.1321,0.3000,0.0600,0.0002,0,-0.9243,-3.5000,-0.0010,-0.9243,-3.5000,-0.0010,39.4145,33.6340,0.0200,0.0700
14.5953,48.0199,6.5021,0.0829,0.0000,0.1200,0.4200,0.0000,0.0000,-0.1849,-0.4105,-0.0008,996,1502,1507,1500,2008,1000,1505,1000,1000,1009,1005,1000,1013,0.0443,-0.0793,0.1041,-0.0194,0.0042,0.9998,0.2248,0.5963,-0.2264,-0.5947,0.8627,0.2400,0.1321,0.8627,0.2400,0.1321,0.3000,0.0600,0.0002,0,-0.9243,-3.5000,-0.0010,-0.9243,-3.5000,-0.0010,39.3797,33.6155,0.0200,0.0700
14.5787,47.9866,6.4905,0.0829,0.0000,0.1200,0.4200,0.0000,0.0000,-0.1847,-0.4104,-0.0006,996,1502,1507,1500,2008,1000,1505,1000,1000,1009,1005,1000,1013,-0.0255,0.0318,0.0663,-0.0146,0.0051,0.9986,0.2251,0.5957,-0.2263,-0.5945,0.8627,0.2400,0.1321,0.8627,0.2400,0.1321,0.3000,0.0600,0.0002,0,-0.9243,-3.5000,-0.0010,-0.9243,-3.5000,-0.0010,39.3447,33.5973,0.0200,0.0700
14.5624,47.9536,6.4792,-0.0000,0.0821,0.1200,0.4200,0.0000,0.0000,-0.1846,-0.4102,-0.0007,996,1502,1507,1500,2008,1000,1505,1000,1000,1009,1005,1000,1013,0.0113,0.1036,0.0905,-0.0178,0.0032,1.0003,0.2249,0.5955,-0.2263,-0.5941,0.8627,0.2400,0.1321,0.8627,0.2400,0.1321,0.3000,0.0600,0.0002,0,-0.9243,-3.5000,-0.0010,-0.9243,-3.5000,-0.0010,39.3097,33.5792,0.0200,0.0700
14.5459,47.9209,6.4677,0.0829,0.0000,0.1200,0.4200,0.0000,0.0000,-0.1844,-0.4099,-0.0007,996,1502,1507,1500,2008,1000,1505,1000,1000,1009,1005,1000,1013,-0.0316,0.0628,0.0639,-0.0166,0.0074,0.9999,0.2247,0.5950,-0.2262,-0.5936,0.8627,0.2400,0.1321,0.8627,0.2400,0.1321,0.3000,0.0600,0.0002,0,-0.9243,-3.5000,-0.0010,-0.9243,-3.5000,-0.0010,39.2746,33.5616,0.0200,0.0700
14.5288,47.8876,6.4552,-0.0000,0.0821,0.1200,0.4200,0.0000,0.0000,-0.1843,-0.4096,-0.0004,996,1502,1507,1500,2008,1000,1505,1000,1000,1009,1005,1000,1013,0.0255,0.0513,-0.0181,-0.0153,0.0073,0.9955,0.2248,0.5943,-0.2256,-0.5935,0.8627,0.2400,0.1321,0.8627,0.2400,0.1321,0.3000,0.0600,0.0002,0,-0.9243,-3.5000,-0.0010,-0.9243,-3.5000,-0.0010,39.2389,33.5442,0.0200,0.0700
14.5117,47.8546,6.4427,-0.0000,-0.0821,0.1200,0.4200,0.0000,0.0000,-0.1842,-0.4092,-0.0003,998,1504,1507,1501,2008,1000,1505,1000,1000,1009,1005,1000,1013,0.0042,0.0079,-0.0485,-0.0199,0.0071,1.0001,0.2248,0.5937,-0.2253,-0.5931,0.8627,0.2400,0.1321,0.8627,0.2400,0.1321,0.3000,0.0600,0.0002,0,-0.9243,-3.5000,-0.0010,-0.9243,-3.5000,-0.0010,39.2031,33.5265,0.0200,0.0700
14.4938,47.8209,6.4290,-0.0000,0.0000,0.1200,0.4200,0.0000,0.0000,-0.1841,-0.4088,-0.0003,996,1502,1507,1500,2008,1000,1505,1000,1000,1009,1005,1000,1013,0.0405,-0.0671,-0.0654,-0.0165,0.0042,1.0005,0.2245,0.5932,-0.2251,-0.5926,0.8627,0.2400,0.1321,0.8627,0.2400,0.1321,0.3000,0.0600,0.0002,0,-0.9243,-3.5000,-0.0010,-0.9243,-3.5000,-0.0010,39.1674,33.5090,0.0200,0.0700
14.4753,47.7874,6.4147,-0.0000,0.0000,0.1200,0.4200,0.0000,0.0000,-0.1838,-0.4086,-0.0002,996,1502,1507,1500,2008,1000,1505,1000,1000,1009,1005,1000,1013,-0.0449,-0.0185,-0.0913,-0.0192,0.0085,0.9977,0.2246,0.5926,-0.2250,-0.5922,0.8627,0.2400,0.1321,0.8627,0.2400,0.1321,0.3000,0.0600,0.0002,0,-0.9243,-3.5000,-0.0010,-0.9243,-3.5000,-0.0010,39.1316,33.4915,0.0200,0.0700
14.4574,47.7535,6.4010,-0.0000,0.0821,0.1200,0.4200,0.0000,0.0000,-0.1837,-0.4083,-0.0003,996,1502,1507,1500,2008,1000,1505,1000,1000,1009,1005,1000,1013,0.0221,-0.0587,-0.0598,-0.0189,0.0046,0.9997,0.2243,0.5923,-0.2248,-0.5917,0.8627,0.2400,0.1321,0.8627,0.2400,0.1321,0.3000,0.0600,0.0002,0,-0.9243,-3.5000,-0.0010,-0.9243,-3.5000,-0.0010,39.0956,33.4735,0.0200,0.0700
14.4389,47.7197,6.3867,-0.0000,0.0821,0.1200,0.4200,0.0000,0.0000,-0.1835,-0.4080,-0.0003,996,1502,1507,1500,2008,1000,1505,1000,1000,1009,1005,1000,1013,-0.0308,-0.0667,-0.0801,-0.0188,0.0072,0.9998,0.2242,0.5917,-0.2248,-0.5912,0.8627,0.2400,0.1321,0.8627,0.2400,0.1321,0.3000,0.0600,0.0002,0,-0.9243,-3.5000,-0.0010,-0.9243,-3.5000,-0.0010,39.0595,33.4554,0.0200,0.0700
14.4215,47.6863,6.3738,-0.0000,0.0821,0.1200,0.4200,0.0000,0.0000,-0.1833,-0.4078,-0.0006,996,1502,1507,1500,2008,1000,1505,1000,1000,1009,1005,1000,1013,-0.0404,0.0223,0.0349,-0.0199,0.0077,0.9978,0.2239,0.5917,-0.2251,-0.5905,0.8627,0.2400,0.1321,0.8627,0.2400,0.1321,0.3000,0.0600,0.0002,0,-0.9243,-3.5000,-0.0010,-0.9243,-3.5000,-0.0010,39.0239,33.4368,0.0200,0.0700
14.4038,47.6530,6.3609,0.0829,0.0000,0.1200,0.4200,0.0000,0.0000,-0.1832,-0.4075,-0.0003,998,1504,1507,1501,2008,1000,1505,1000,1000,1009,1005,1000,1013,-0.0352,0.0045,-0.0458,-0.0180,0.0053,1.0042,0.2240,0.5910,-0.2247,-0.5903,0.8627,0.2400,0.1321,0.8627,0.2400,0.1321,0.3000,0.0600,0.0002,0,-0.9243,-3.5000,-0.0010,-0.9243,-3.5000,-0.0010,38.9879,33.4184,0.0200,0.0700
14.3865,47.6200,6.3483,-0.0000,-0.0821,0.1200,0.4200,0.0000,0.0000,-0.1830,-0.4072,-0.0006,996,1502,1507,1500,2008,1000,1505,1000,1000,1009,1005,1000,1013,-0.0506,0.0413,0.0153,-0.0195,0.0066,1.0006,0.2237,0.5908,-0.2248,-0.5897,0.8627,0.2400,0.1321,0.8627,0.2400,0.1321,0.3000,0.0600,0.0002,0,-0.9243,-3.5000,-0.0010,-0.9243,-3.5000,-0.0010,38.9524,33.4006,0.0200,0.0700
14.3694,47.5863,6.3357,-0.0000,0.0000,0.1200,0.4200,0.0000,0.0000,-0.1829,-0.4068,-0.0005,996,1502,1507,1500,2008,1000,1505,1000,1000,1009,1005,1000,1013,0.0101,-0.0494,0.0059,-0.0173,0.0074,0.9973,0.2234,0.5903,-0.2244,-0.5893,0.8627,0.2400,0.1321,0.8627,0.2400,0.1321,0.3000,0.0600,0.0002,0,-0.9243,-3.5000,-0.0010,-0.9243,-3.5000,-0.0010,38.9172,33.3819,0.0200,0.0700
14.3528,47.5524,6.3234,-0.0000,0.0000,0.1200,0.4200,0.0000,0.0000,-0.1828,-0.4066,-0.0006,996,1502,1507,1500,2008,1000,1505,1000,1000,1009,1005,1000,1013,-0.0009,0.0257,0.0438,-0.0147,0.0069,1.0009,0.2233,0.5900,-0.2245,-0.5888,0.8627,0.2400,0.1321,0.8627,0.2400,0.1321,0.3000,0.0600,0.0002,0,-0.9243,-3.5000,-0.0010,-0.9243,-3.5000,-0.0010,38.8817,33.3631,0.0200,0.0700
14.3368,47.5189,6.3119,-0.0829,-0.1642,0.1200,0.4200,0.0000,0.0000,-0.1827,-0.4064,-0.0005,996,1502,1507,1500,2008,1000,1505,1000,1000,1009,1005,1000,1013,0.0061,0.0360,0.0109,-0.0166,0.0087,0.9993,0.2232,0.5895,-0.2242,-0.5886,0.8627,0.2400,0.1321,0.8627,0.2400,0.1321,0.3000,0.0600,0.0002,0,-0.9243,-3.5000,-0.0010,-0.9243,-3.5000,-0.0010,38.8466,33.3448,0.0200,0.0700
14.3204,47.4850,6.2998,0.0829,-0.0821,0.1200,0.4200,0.0000,0.0000,-0.1826,-0.4059,-0.0006,996,1502,1507,1500,2008,1000,1505,1000,1000,1009,1005,1000,1013,0.0428,-0.0687,0.0153,-0.0180,0.0068,0.9985,0.2228,0.5891,-0.2239,-0.5879,0.8627,0.2400,0.1321,0.8627,0.2400,0.1321,0.3000,0.0600,0.0002,0,-0.9243,-3.5000,-0.0010,-0.9243,-3.5000,-0.0010,38.8115,33.3262,0.0200,0.0700
14.3040,47.4507,6.2880,-0.0829,0.0000,0.1200,0.4200,0.0000,0.0000,-0.1824,-0.4058,-0.0007,998,1504,1507,1501,2008,1000,1505,1000,1000,1009,1005,1000,1013,0.0120,0.0126,0.0734,-0.0194,0.0090,0.9963,0.2227,0.5888,-0.2241,-0.5874,0.8627,0.2400,0.1321,0.8627,0.2400,0.1321,0.3000,0.0600,0.0002,0,-0.9243,-3.5000,-0.0010,-0.9243,-3.5000,-0.0010,38.7761,33.3073,0.0200,0.0700
14.2878,47.4169,6.2763,0.0829,0.0000,0.1200,0.4200,0.0000,0.0000,-0.1822,-0.4055,-0.0008,996,1502,1507,1500,2008,1000,1505,1000,1000,1009,1005,1000,1013,-0.0068,0.0336,0.1044,-0.0169,0.0087,0.9967,0.2225,0.5885,-0.2241,-0.5869,0.8627,0.2400,0.1321,0.8627,0.2400,0.1321,0.3000,0.0600,0.0002,0,-0.9243,-3.5000,-0.0010,-0.9243,-3.5000,-0.0010,38.7411,33.2888,0.0200,0.0700
14.2715,47.3831,6.2649,-0.0000,0.0000,0.1200,0.4200,0.0000,0.0000,-0.1821,-0.4052,-0.0006,996,1502,1507,1500,2008,1000,1505,1000,1000,1009,1005,1000,1013,-0.0023,0.0006,0.0521,-0.0176,0.0094,1.0001,0.2224,0.5879,-0.2237,-0.5866,0.8627,0.2400,0.1321,0.8627,0.2400,0.1321,0.3000,0.0600,0.0002,0,-0.9243,-3.5000,-0.0010,-0.9243,-3.5000,-0.0010,38.7060,33.2705,0.0200,0.0700
14.2557,47.3496,6.2537,-0.0000,0.0000,0.1200,0.4200,0.0000,0.0000,-0.1819,-0.4049,-0.0007,996,1502,1507,1500,2008,1000,1505,1000,1000,1009,1005,1000,1013,-0.0149,0.0342,0.0681,-0.0183,0.0067,0.9978,0.2223,0.5875,-0.2236,-0.5862,0.8627,0.2400,0.1321,0.8627,0.2400,0.1321,0.3000,0.0600,0.0002,0,-0.9243,-3.5000,-0.0010,-0.9243,-3.5000,-0.0010,38.6708,33.2522,0.0200,0.0700
14.2391,47.3160,6.2425,0.0829,0.0000,0.1200,0.4200,0.0000,0.0000,-0.1818,-0.4046,-0.0008,996,1502,1507,1500,2008,1000,1505,1000,1000,1009,1005,1000,1013,0.0170,0.0115,0.1000,-0.0177,0.0073,1.0007,0.2220,0.5872,-0.2235,-0.5857,0.8627,0.2400,0.1321,0.8627,0.2400,0.1321,0.3000,0.0600,0.0002,0,-0.9243,-3.5000,-0.0010,-0.9243,-3.5000,-0.0010,38.6359,33.2343,0.0200,0.0700
14.2230,47.2819,6.2311,-0.0000,0.0821,0.1200,0.4200,0.0000,0.0000,-0.1817,-0.4042,-0.0008,996,1502,1507,1500,2008,1000,1505,1000,1000,1009,1005,1000,1013,-0.0056,-0.0568,0.0749,-0.0174,0.0059,0.9988,0.2218,0.5866,-0.2233,-0.5851,0.8627,0.2400,0.1321,0.8627,0.2400,0.1321,0.3000,0.0600,0.0002,0,-0.9243,-3.5000,-0.0010,-0.9243,-3.5000,-0.0010,38.6005,33.2158,0.0200,0.0700
14.2068,47.2478,6.2198,0.0829,-0.0821,0.1200,0.4200,0.0000,0.0000,-0.1815,-0.4040,-0.0006,998,1504,1507,1501,2008,1000,1505,1000,1000,1009,1005,1000,1013,-0.0267,0.0143,0.0498,-0.0184,0.0079,1.0010,0.2219,0.5861,-0.2231,-0.5849,0.8627,0.2400,0.1321,0.8627,0.2400,0.1321,0.3000,0.0600,0.0002,0,-0.9243,-3.5000,-0.0010,-0.9243,-3.5000,-0.0010,38.5653,33.1974,0.0200,0.0700
14.1909,47.2141,6.2087,0.0829,0.0821,0.1200,0.4200,0.0000,0.0000,-0.1814,-0.4037,-0.0006,996,1502,1507,1500,2008,1000,1505,1000,1000,1009,1005,1000,1013,0.0163,0.0392,0.0682,-0.0162,0.0064,0.9990,0.2217,0.5858,-0.2230,-0.5845,0.8627,0.2400,0.1321,0.8627,0.2400,0.1321,0.3000,0.0600,0.0002,0,-0.9243,-3.5000,-0.0010,-0.9243,-3.5000,-0.0010,38.5297,33.1792,0.0200,0.0700
14.1747,47.1804,6.1969,0.0829,0.0000,0.1200,0.4200,0.0000,0.0000,-0.1813,-0.4035,-0.0006,996,1502,1507,1500,2008,1000,1505,1000,1000,1009,1005,1000,1013,0.0114,0.0627,0.0154,-0.0188,0.0061,1.0028,0.2217,0.5853,-0.2228,-0.5842,0.8627,0.2400,0.1321,0.8627,0.2400,0.1321,0.3000,0.0600,0.0002,0,-0.9243,-3.5000,-0.0010,-0.9243,-3.5000,-0.0010,38.4946,33.1604,0.0200,0.0700
14.1575,47.1467,6.1845,-0.0000,0.0821,0.1200,0.4200,0.0000,0.0000,-0.1811,-0.4031,-0.0002,996,1502,1507,1500,2008,1000,1505,1000,1000,1009,1005,1000,1013,-0.0078,0.0191,-0.0875,-0.0193,0.0014,1.0035,0.2219,0.5844,-0.2222,-0.5840,0.8627,0.2400,0.1321,0.8627,0.2400,0.1321,0.3000,0.0600,0.0002,0,-0.9243,-3.5000,-0.0010,-0.9243,-3.5000,-0.0010,38.4588,33.1423,0.0200,0.0700
14.1406,47.1129,6.1718,0.0829,0.0000,0.1200,0.4200,0.0000,0.0000,-0.1810,-0.4028,-0.0005,996,1502,1507,1500,2008,1000,1505,1000,1000,1009,1005,1000,1013,0.0139,-0.0213,0.0135,-0.0180,0.0066,0.9949,0.2213,0.5843,-0.2223,-0.5832,0.8627,0.2400,0.1321,0.8627,0.2400,0.1321,0.3000,0.0600,0.0002,0,-0.9243,-3.5000,-0.0010,-0.9243,-3.5000,-0.0010,38.4232,33.1236,0.0200,0.0700
14.1237,47.0791,6.1595,-0.0000,0.0000,0.1200,0.4200,0.0000,0.0000,-0.1809,-0.4025,-0.0003,996,1502,1507,1500,2008,1000,1505,1000,1000,1009,1005,1000,1013,0.0307,-0.0423,-0.0451,-0.0209,0.0047,0.9964,0.2213,0.5836,-0.2219,-0.5831,0.8627,0.2400,0.1321,0.8627,0.2400,0.1321,0.3000,0.0600,0.0002,0,-0.9243,-3.5000,-0.0010,-0.9243,-3.5000,-0.0010,38.3872,33.1059,0.0200,0.0700
14.1061,47.0455,6.1457,0.0829,-0.0821,0.1200,0.4200,0.0000,0.0000,-0.1807,-0.4023,-0.0003,998,1504,1507,1501,2008,1000,1505,1000,1000,1009,1005,1000,1013,0.0364,0.0484,-0.0670,-0.0178,0.0074,0.9996,0.2213,0.5833,-0.2219,-0.5827,0.8627,0.2400,0.1321,0.8627,0.2400,0.1321,0.3000,0.0600,0.0002,0,-0.9243,-3.5000,-0.0010,-0.9243,-3.5000,-0.0010,38.3513,33.0883,0.0200,0.0700
14.0887,47.0118,6.1328,-0.0000,0.0821,0.1200,0.4200,0.0000,0.0000,-0.1805,-0.4019,-0.0002,996,1502,1507,1500,2008,1000,1505,1000,1000,1009,1005,1000,1013,-0.0104,-0.0233,-0.0859,-0.0192,0.0070,0.9989,0.2212,0.5826,-0.2216,-0.5822,0.8627,0.2400,0.1321,0.8627,0.2400,0.1321,0.3000,0.0600,0.0002,0,-0.9243,-3.5000,-0.0010,-0.9243,-3.5000,-0.0010,38.3159,33.0706,0.0200,0.0700
14.0702,46.9778,6.1187,0.0829,0.0000,0.1200,0.4200,0.0000,0.0000,-0.1803,-0.4016,-0.0001,996,1502,1507,1500,2008,1000,1505,1000,1000,1009,1005,1000,1013,-0.0710,-0.0197,-0.1003,-0.0176,0.0055,1.0000,0.2212,0.5820,-0.2215,-0.5817,0.8627,0.2400,0.1321,0.8627,0.2400,0.1321,0.3000,0.0600,0.0002,0,-0.9243,-3.5000,-0.0010,-0.9243,-3.5000,-0.0010,38.2797,33.0525,0.0200,0.0700
14.0514,46.9442,6.1045,0.0829,-0.0821,0.1200,0.4200,0.0000,0.0000,-0.1802,-0.4014,-0.0004,996,1502,1507,1500,2008,1000,1505,1000,1000,1009,1005,1000,1013,0.0221,0.0291,-0.0501,-0.0175,0.0058,1.0009,0.2208,0.5820,-0.2216,-0.5812,0.8627,0.2400,0.1321,0.8627,0.2400,0.1321,0.3000,0.0600,0.0002,0,-0.9243,-3.5000,-0.0010,-0.9243,-3.5000,-0.0010,38.2434,33.0347,0.0200,0.0700
14.0342,46.9104,6.0913,-0.0000,0.0000,0.1200,0.4200,0.0000,0.0000,-0.1801,-0.4010,-0.0001,996,1502,1507,1500,2008,1000,1505,1000,1000,1009,1005,1000,1013,0.0432,-0.0263,-0.1168,-0.0169,0.0061,1.0014,0.2208,0.5813,-0.2211,-0.5810,0.8627,0.2400,0.1321,0.8627,0.2400,0.1321,0.3000,0.0600,0.0002,0,-0.9243,-3.5000,-0.0010,-0.9243,-3.5000,-0.0010,38.2067,33.0164,0.0200,0.0700
14.0175,46.8766,6.0786,-0.0000,-0.0821,0.1200,0.4200,0.0000,0.0000,-0.1799,-0.4008,-0.0005,996,1502,1507,1500,2008,1000,1505,1000,1000,1009,1005,1000,1013,0.0203,0.0159,-0.0144,-0.0180,0.0069,1.0004,0.2204,0.5812,-0.2213,-0.5803,0.8627,0.2400,0.1321,0.8627,0.2400,0.1321,0.3000,0.0600,0.0002,0,-0.9243,-3.5000,-0.0010,-0.9243,-3.5000,-0.0010,38.1709,32.9982,0.0200,0.0700
14.0013,46.8426,6.0663,0.0829,-0.0821,0.1200,0.4200,0.0000,0.0000,-0.1798,-0.4006,-0.0007,998,1504,1507,1501,2008,1000,1505,1000,1000,1009,1005,1000,1013,0.0351,0.0597,0.0632,-0.0224,0.0067,1.0012,0.2201,0.5811,-0.2215,-0.5797,0.8627,0.2400,0.1321,0.8627,0.2400,0.1321,0.3000,0.0600,0.0002,0,-0.9243,-3.5000,-0.0010,-0.9243,-3.5000,-0.0010,38.1356,32.9800,0.0200,0.0700
13.9856,46.8085,6.0554,-0.0829,-0.1642,0.1200,0.4200,0.0000,0.0000,-0.1796,-0.4002,-0.0009,996,1502,1507,1500,2008,1000,1505,1000,1000,1009,1005,1000,1013,0.0145,0.0237,0.1050,-0.0187,0.0085,1.0015,0.2197,0.5807,-0.2214,-0.5790,0.8627,0.2400,0.1321,0.8627,0.2400,0.1321,0.3000,0.0600,0.0002,0,-0.9243,-3.5000,-0.0010,-0.9243,-3.5000,-0.0010,38.1001,32.9611,0.0200,0.0700
13.9703,46.7744,6.0449,-0.0000,0.0000,0.1200,0.4200,0.0000,0.0000,-0.1795,-0.3999,-0.0007,996,1502,1507,1500,2008,1000,1505,1000,1000,1009,1005,1000,1013,-0.0217,-0.0001,0.0884,-0.0181,0.0083,1.0011,0.2197,0.5801,-0.2212,-0.5786,0.8627,0.2400,0.1321,0.8627,0.2400,0.1321,0.3000,0.0600,0.0002,0,-0.9243,-3.5000,-0.0010,-0.9243,-3.5000,-0.0010,38.0658,32.9414,0.0200,0.0700
13.9547,46.7400,6.0345,-0.0829,-0.0821,0.1200,0.4200,0.0000,0.0000,-0.1794,-0.3996,-0.0008,996,1502,1507,1500,2008,1000,1505,1000,1000,1009,1005,1000,1013,0.0212,0.0065,0.1291,-0.0208,0.0077,0.9990,0.2194,0.5798,-0.2211,-0.5782,0.8627,0.2400,0.1321,0.8627,0.2400,0.1321,0.3000,0.0600,0.0002,0,-0.9243,-3.5000,-0.0010,-0.9243,-3.5000,-0.0010,38.0309,32.9217,0.0200,0.0700
13.9392,46.7059,6.0239,0.0829,0.0000,0.1200,0.4200,0.0000,0.0000,-0.1792,-0.3993,-0.0007,996,1502,1507,1500,2008,1000,1505,1000,1000,1009,1005,1000,1013,-0.0126,0.0291,0.0831,-0.0149,0.0054,0.9968,0.2194,0.5793,-0.2209,-0.5778,0.8627,0.2400,0.1321,0.8627,0.2400,0.1321,0.3000,0.0600,0.0002,0,-0.9243,-3.5000,-0.0010,-0.9243,-3.5000,-0.0010,37.9962,32.9020,0.0200,0.0700
13.9235,46.6716,6.0130,0.0829,0.0000,0.1200,0.4200,0.0000,0.0000,-0.1791,-0.3990,-0.0006,996,1502,1507,1500,2008,1000,1505,1000,1000,1009,1005,1000,1013,0.0269,-0.0237,0.0395,-0.0179,0.0050,1.0005,0.2193,0.5787,-0.2204,-0.5775,0.8627,0.2400,0.1321,0.8627,0.2400,0.1321,0.3000,0.0600,0.0002,0,-0.9243,-3.5000,-0.0010,-0.9243,-3.5000,-0.0010,37.9618,32.8826,0.0200,0.0700
13.9073,46.6376,6.0017,-0.0000,0.0000,0.1200,0.4200,0.0000,0.0000,-0.1789,-0.3987,-0.0005,998,1504,1507,1501,2008,1000,1505,1000,1000,1009,1005,1000,1013,-0.0252,0.0010,0.0286,-0.0179,0.0059,1.0042,0.2193,0.5782,-0.2203,-0.5771,0.8627,0.2400,0.1321,0.8627,0.2400,0.1321,0.3000,0.0600,0.0002,0,-0.9243,-3.5000,-0.0010,-0.9243,-3.5000,-0.0010,37.9268,32.8634,0.0200,0.0700
13.8913,46.6038,5.9904,0.0829,-0.0821,0.1200,0.4200,0.0000,0.0000,-0.1788,-0.3985,-0.0004,996,1502,1507,1500,2008,1000,1505,1000,1000,1009,1005,1000,1013,0.0024,0.0371,-0.0160,-0.0160,0.0062,1.0010,0.2193,0.5777,-0.2201,-0.5769,0.8627,0.2400,0.1321,0.8627,0.2400,0.1321,0.3000,0.0600,0.0002,0,-0.9243,-3.5000,-0.0010,-0.9243,-3.5000,-0.0010,37.8914,32.8441,0.0200,0.0700
13.8755,46.5703,5.9792,0.0829,0.0821,0.1200,0.4200,0.0000,0.0000,-0.1787,-0.3983,-0.0007,996,1502,1507,1500,2008,1000,1505,1000,1000,1009,1005,1000,1013,0.0214,0.1050,0.0657,-0.0162,0.0039,1.0005,0.2189,0.5776,-0.2202,-0.5763,0.8627,0.2400,0.1321,0.8627,0.2400,0.1321,0.3000,0.0600,0.0002,0,-0.9243,-3.5000,-0.0010,-0.9243,-3.5000,-0.0010,37.8560,32.8251,0.0200,0.0700
13.8594,46.5367,5.9675,0.0829,0.0000,0.1200,0.4200,0.0000,0.0000,-0.1786,-0.3979,-0.0004,996,1502,1507,1500,2008,1000,1505,1000,1000,1009,1005,1000,1013,0.0243,0.0096,-0.0220,-0.0175,0.0086,0.9977,0.2189,0.5768,-0.2197,-0.5761,0.8627,0.2400,0.1321,0.8627,0.2400,0.1321,0.3000,0.0600,0.0002,0,-0.9243,-3.5000,-0.0010,-0.9243,-3.5000,-0.0010,37.8208,32.8060,0.0200,0.0700
13.8428,46.5028,5.9554,0.0829,0.0000,0.1200,0.4200,0.0000,0.0000,-0.1784,-0.3976,-0.0005,996,1502,1507,1500,2008,1000,1505,1000,1000,1009,1005,1000,1013,-0.0179,0.0104,0.0055,-0.0199,0.0063,1.0017,0.2187,0.5765,-0.2197,-0.5754,0.8627,0.2400,0.1321,0.8627,0.2400,0.1321,0.3000,0.0600,0.0002,0,-0.9243,-3.5000,-0.0010,-0.9243,-3.5000,-0.0010,37.7858,32.7871,0.0200,0.0700
13.8260,46.4684,5.9428,0.0829,0.0000,0.1200,0.4200,0.0000,0.0000,-0.1783,-0.3973,-0.0004,996,1502,1507,1500,2008,1000,1505,1000,1000,1009,1005,1000,1013,0.0382,0.0286,-0.0294,-0.0192,0.0045,1.0014,0.2186,0.5760,-0.2194,-0.5752,0.8627,0.2400,0.1321,0.8627,0.2400,0.1321,0.3000,0.0600,0.0002,0,-0.9243,-3.5000,-0.0010,-0.9243,-3.5000,-0.0010,37.7505,32.7677,0.0200,0.0700
13.8092,46.4349,5.9302,-0.0000,0.0000,0.1200,0.4200,0.0000,0.0000,-0.1781,-0.3971,-0.0003,998,1504,1507,1501,2008,1000,1505,1000,1000,1009,1005,1000,1013,0.0097,0.0685,-0.0678,-0.0180,0.0051,0.9999,0.2187,0.5755,-0.2192,-0.5749,0.8627,0.2400,0.1321,0.8627,0.2400,0.1321,0.3000,0.0600,0.0002,0,-0.9243,-3.5000,-0.0010,-0.9243,-3.5000,-0.0010,37.7149,32.7490,0.0200,0.0700
13.7921,46.4018,5.9174,0.0829,0.0000,0.1200,0.4200,0.0000,0.0000,-0.1780,-0.3967,-0.0001,996,1502,1507,1500,2008,1000,1505,1000,1000,1009,1005,1000,1013,0.0206,0.0332,-0.1150,-0.0164,0.0067,0.9985,0.2186,0.5748,-0.2189,-0.5746,0.8627,0.2400,0.1321,0.8627,0.2400,0.1321,0.3000,0.0600,0.0002,0,-0.9243,-3.5000,-0.0010,-0.9243,-3.5000,-0.0010,37.6789,32.7304,0.0200,0.0700
13.7749,46.3680,5.9045,-0.0000,0.0821,0.1200,0.4200,0.0000,0.0000,-0.1778,-0.3963,-0.0003,996,1502,1507,1500,2008,1000,1505,1000,1000,1009,1005,1000,1013,0.0009,-0.0496,-0.0702,-0.0160,0.0058,1.0023,0.2183,0.5744,-0.2188,-0.5739,0.8627,0.2400,0.1321,0.8627,0.2400,0.1321,0.3000,0.0600,0.0002,0,-0.9243,-3.5000,-0.0010,-0.9243,-3.5000,-0.0010,37.6427,32.7122,0.0200,0.0700
13.7574,46.3339,5.8910,0.0829,0.0000,0.1200,0.4200,0.0000,0.0000,-0.1776,-0.3961,-0.0000,996,1502,1507,1500,2008,1000,1505,1000,1000,1009,1005,1000,1013,-0.0155,0.0301,-0.1508,-0.0205,0.0081,1.0006,0.2185,0.5738,-0.2185,-0.5737,0.8627,0.2400,0.1321,0.8627,0.2400,0.1321,0.3000,0.0600,0.0002,0,-0.9243,-3.5000,-0.0010,-0.9243,-3.5000,-0.0010,37.6066,32.6944,0.0200,0.0700
13.7396,46.2996,5.8775,0.0829,0.0000,0.1200,0.4200,0.0000,0.0000,-0.1776,-0.3958,-0.0003,996,1502,1507,1500,2008,1000,1505,1000,1000,1009,1005,1000,1013,0.0423,0.0048,-0.0463,-0.0199,0.0066,0.9970,0.2179,0.5737,-0.2186,-0.5730,0.8627,0.2400,0.1321,0.8627,0.2400,0.1321,0.3000,0.0600,0.0002,0,-0.9243,-3.5000,-0.0010,-0.9243,-3.5000,-0.0010,37.5706,32.6760,0.0200,0.0700
13.7220,46.2658,5.8641,-0.0000,0.2462,0.1200,0.4200,0.0000,0.0000,-0.1774,-0.3955,-0.0001,996,1502,1507,1500,2008,1000,1505,1000,1000,1009,1005,1000,1013,0.0074,-0.0053,-0.1081,-0.0196,0.0060,0.9995,0.2180,0.5730,-0.2183,-0.5727,0.8627,0.2400,0.1321,0.8627,0.2400,0.1321,0.3000,0.0600,0.0002,0,-0.9243,-3.5000,-0.0010,-0.9243,-3.5000,-0.0010,37.5349,32.6578,0.0200,0.0700
13.7048,46.2314,5.8509,0.0829,0.0000,0.1200,0.4200,0.0000,0.0000,-0.1772,-0.3953,-0.0003,998,1504,1507,1501,2008,1000,1505,1000,1000,1009,1005,1000,1013,0.0377,0.0297,-0.0595,-0.0201,0.0067,1.0012,0.2177,0.5728,-0.2183,-0.5722,0.8627,0.2400,0.1321,0.8627,0.2400,0.1321,0.3000,0.0600,0.0002,0,-0.9243,-3.5000,-0.0010,-0.9243,-3.5000,-0.0010,37.4988,32.6400,0.0200,0.0700
13.6888,46.1975,5.8390,-0.0000,0.0000,0.1200,0.4200,0.0000,0.0000,-0.1771,-0.3949,-0.0004,996,1502,1507,1500,2008,1000,1505,1000,1000,1009,1005,1000,1013,0.0449,-0.0246,-0.0124,-0.0179,0.0074,0.9958,0.2173,0.5724,-0.2182,-0.5716,0.8627,0.2400,0.1321,0.8627,0.2400,0.1321,0.3000,0.0600,0.0002,0,-0.9243,-3.5000,-0.0010,-0.9243,-3.5000,-0.0010,37.4629,32.6215,0.0200,0.0700
13.6728,46.1632,5.8271,-0.0829,0.0000,0.1200,0.4200,0.0000,0.0000,-0.1769,-0.3947,-0.0005,996,1502,1507,1500,2008,1000,1505,1000,1000,1009,1005,1000,1013,0.0109,0.0278,-0.0004,-0.0178,0.0059,1.0042,0.2173,0.5721,-0.2182,-0.5711,0.8627,0.2400,0.1321,0.8627,0.2400,0.1321,0.3000,0.0600,0.0002,0,-0.9243,-3.5000,-0.0010,-0.9243,-3.5000,-0.0010,37.4275,32.6018,0.0200,0.0700
13.6570,46.1291,5.8161,-0.0000,-0.0821,0.1200,0.4200,0.0000,0.0000,-0.1768,-0.3944,-0.0004,996,1502,1507,1500,2008,1000,1505,1000,1000,1009,1005,1000,1013,-0.0076,0.0745,0.0053,-0.0196,0.0046,1.0025,0.2172,0.5717,-0.2181,-0.5708,0.8627,0.2400,0.1321,0.8627,0.2400,0.1321,0.3000,0.0600,0.0002,0,-0.9243,-3.5000,-0.0010,-0.9243,-3.5000,-0.0010,37.3923,32.5822,0.0200,0.0700
13.6408,46.0953,5.8045,-0.0000,-0.1642,0.1200,0.4200,0.0000,0.0000,-0.1766,-0.3941,-0.0004,996,1502,1507,1500,2008,1000,1505,1000,1000,1009,1005,1000,1013,0.0045,0.0470,-0.0284,-0.0198,0.0088,0.9968,0.2171,0.5711,-0.2178,-0.5704,0.8627,0.2400,0.1321,0.8627,0.2400,0.1321,0.3000,0.0600,0.0002,0,-0.9243,-3.5000,-0.0010,-0.9243,-3.5000,-0.0010,37.3563,32.5626,0.0200,0.0700
13.6253,46.0608,5.7932,0.0829,0.0000,0.1200,0.4200,0.0000,0.0000,-0.1766,-0.3938,-0.0006,996,1502,1507,1500,2008,1000,1505,1000,1000,1009,1005,1000,1013,0.0415,0.0156,0.0459,-0.0183,0.0069,1.0002,0.2166,0.5710,-0.2178,-0.5697,0.8627,0.2400,0.1321,0.8627,0.2400,0.1321,0.3000,0.0600,0.0002,0,-0.9243,-3.5000,-0.0010,-0.9243,-3.5000,-0.0010,37.3209,32.5430,0.0200,0.0700
13.6098,46.0268,5.7821,-0.1657,-0.1642,0.1200,0.4200,0.0000,0.0000,-0.1764,-0.3935,-0.0007,998,1504,1507,1501,2008,1000,1505,1000,1000,1009,1005,1000,1013,0.0437,0.0135,0.0607,-0.0193,0.0070,1.0011,0.2164,0.5706,-0.2177,-0.5692,0.8627,0.2400,0.1321,0.8627,0.2400,0.1321,0.3000,0.0600,0.0002,0,-0.9243,-3.5000,-0.0010,-0.9243,-3.5000,-0.0010,37.2862,32.5234,0.0200,0.0700
13.5941,45.9927,5.7711,0.0829,-0.0821,0.1200,0.4200,0.0000,0.0000,-0.1763,-0.3932,-0.0005,996,1502,1507,1500,2008,1000,1505,1000,1000,1009,1005,1000,1013,0.0127,0.0501,0.0224,-0.0184,0.0048,0.9985,0.2164,0.5700,-0.2175,-0.5689,0.8627,0.2400,0.1321,0.8627,0.2400,0.1321,0.3000,0.0600,0.0002,0,-0.9243,-3.5000,-0.0010,-0.9243,-3.5000,-0.0010,37.2515,32.5048,0.0200,0.0700
13.5785,45.9582,5.7602,0.0829,-0.0821,0.1200,0.4200,0.0000,0.0000,-0.1761,-0.3928,-0.0009,996,1502,1507,1500,2008,1000,1505,1000,1000,1009,1005,1000,1013,0.0054,-0.0362,0.1310,-0.0183,0.0071,0.9992,0.2158,0.5698,-0.2175,-0.5681,0.8627,0.2400,0.1321,0.8627,0.2400,0.1321,0.3000,0.0600,0.0002,0,-0.9243,-3.5000,-0.0010,-0.9243,-3.5000,-0.0010,37.2165,32.4860,0.0200,0.0700
13.5632,45.9239,5.7503,0.0829,0.0000,0.1200,0.4200,0.0000,0.0000,-0.1760,-0.3926,-0.0007,996,1502,1507,1500,2008,1000,1505,1000,1000,1009,1005,1000,1013,0.0009,0.0386,0.0854,-0.0176,0.0067,1.0019,0.2159,0.5693,-0.2174,-0.5679,0.8627,0.2400,0.1321,0.8627,0.2400,0.1321,0.3000,0.0600,0.0002,0,-0.9243,-3.5000,-0.0010,-0.9243,-3.5000,-0.0010,37.1819,32.4667,0.0200,0.0700
13.5483,45.8895,5.7403,-0.0000,0.0000,0.1200,0.4200,0.0000,0.0000,-0.1759,-0.3923,-0.0007,996,1502,1507,1500,2008,1000,1505,1000,1000,1009,1005,1000,1013,0.0349,-0.0072,0.0677,-0.0171,0.0057,1.0020,0.2156,0.5689,-0.2171,-0.5674,0.8627,0.2400,0.1321,0.8627,0.2400,0.1321,0.3000,0.0600,0.0002,0,-0.9243,-3.5000,-0.0010,-0.9243,-3.5000,-0.0010,37.1474,32.4473,0.0200,0.0700
13.5328,45.8551,5.7298,0.0829,0.0000,0.1200,0.4200,0.0000,0.0000,-0.1757,-0.3920,-0.0006,996,1502,1507,1500,2008,1000,1505,1000,1000,1009,1005,1000,1013,-0.0248,-0.0138,0.0294,-0.0163,0.0050,0.9991,0.2157,0.5682,-0.2168,-0.5671,0.8627,0.2400,0.1321,0.8627,0.2400,0.1321,0.3000,0.0600,0.0002,0,-0.9243,-3.5000,-0.0010,-0.9243,-3.5000,-0.0010,37.1127,32.4279,0.0200,0.0700
13.5168,45.8203,5.7190,-0.0000,0.0821,0.1200,0.4200,0.0000,0.0000,-0.1756,-0.3916,-0.0008,998,1504,1507,1501,2008,1000,1505,1000,1000,1009,1005,1000,1013,-0.0126,-0.0807,0.1127,-0.0166,0.0083,1.0016,0.2152,0.5680,-0.2168,-0.5663,0.8627,0.2400,0.1321,0.8627,0.2400,0.1321,0.3000,0.0600,0.0002,0,-0.9243,-3.5000,-0.0010,-0.9243,-3.5000,-0.0010,37.0782,32.4078,0.0200,0.0700
13.5017,45.7856,5.7092,0.0829,0.0000,0.1200,0.4200,0.0000,0.0000,-0.1754,-0.3914,-0.0010,996,1502,1507,1500,2008,1000,1505,1000,1000,1009,1005,1000,1013,-0.0234,0.0292,0.1434,-0.0198,0.0066,1.0003,0.2150,0.5678,-0.2170,-0.5659,0.8627,0.2400,0.1321,0.8627,0.2400,0.1321,0.3000,0.0600,0.0002,0,-0.9243,-3.5000,-0.0010,-0.9243,-3.5000,-0.0010,37.0431,32.3877,0.0200,0.0700
13.4868,45.7511,5.6996,0.0829,-0.0821,0.1200,0.4200,0.0000,0.0000,-0.1753,-0.3911,-0.0010,996,1502,1507,1500,2008,1000,1505,1000,1000,1009,1005,1000,1013,-0.0160,0.0388,0.1644,-0.0184,0.0036,0.9979,0.2148,0.5674,-0.2168,-0.5654,0.8627,0.2400,0.1321,0.8627,0.2400,0.1321,0.3000,0.0600,0.0002,0,-0.9243,-3.5000,-0.0010,-0.9243,-3.5000,-0.0010,37.0084,32.3672,0.0200,0.0700
13.4718,45.7168,5.6896,-0.0000,0.0000,0.1200,0.4200,0.0000,0.0000,-0.1753,-0.3908,-0.0005,996,1502,1507,1500,2008,1000,1505,1000,1000,1009,1005,1000,1013,0.0523,0.0127,0.0189,-0.0175,0.0055,1.0004,0.2151,0.5665,-0.2160,-0.5656,0.8627,0.2400,0.1321,0.8627,0.2400,0.1321,0.3000,0.0600,0.0002,0,-0.9243,-3.5000,-0.0010,-0.9243,-3.5000,-0.0010,36.9741,32.3473,0.0200,0.0700
13.4562,45.6822,5.6784,0.0829,0.0000,0.1200,0.4200,0.0000,0.0000,-0.1751,-0.3905,-0.0005,996,1502,1507,1500,2008,1000,1505,1000,1000,1009,1005,1000,1013,0.0164,0.0392,0.0185,-0.0217,0.0046,1.0008,0.2149,0.5661,-0.2160,-0.5651,0.8627,0.2400,0.1321,0.8627,0.2400,0.1321,0.3000,0.0600,0.0002,0,-0.9243,-3.5000,-0.0010,-0.9243,-3.5000,-0.0010,36.9386,32.3273,0.0200,0.0700
13.4392,45.6480,5.6655,-0.0000,0.0000,0.1200,0.4200,0.0000,0.0000,-0.1749,-0.3902,-0.0000,996,1502,1507,1500,2008,1000,1505,1000,1000,1009,1005,1000,1013,0.0093,-0.0140,-0.1391,-0.0175,0.0024,1.0036,0.2152,0.5651,-0.2153,-0.5651,0.8627,0.2400,0.1321,0.8627,0.2400,0.1321,0.3000,0.0600,0.0002,0,-0.9243,-3.5000,-0.0010,-0.9243,-3.5000,-0.0010,36.9030,32.3076,0.0200,0.0700
13.4219,45.6138,5.6523,-0.0000,-0.0821,0.1200,0.4200,0.0000,0.0000,-0.1748,-0.3899,-0.0003,998,1504,1507,1501,2008,1000,1505,1000,1000,1009,1005,1000,1013,0.0060,0.0167,-0.0757,-0.0169,0.0067,0.9979,0.2149,0.5649,-0.2154,-0.5644,0.8627,0.2400,0.1321,0.8627,0.2400,0.1321,0.3000,0.0600,0.0002,0,-0.9243,-3.5000,-0.0010,-0.9243,-3.5000,-0.0010,36.8667,32.2886,0.0200,0.0700
13.4043,45.5799,5.6387,-0.0000,0.0821,0.1200,0.4200,0.0000,0.0000,-0.1746,-0.3897,0.0001,996,1502,1507,1500,2008,1000,1505,1000,1000,1009,1005,1000,1013,-0.0023,0.0448,-0.1733,-0.0168,0.0035,0.9987,0.2151,0.5642,-0.2150,-0.5643,0.8627,0.2400,0.1321,0.8627,0.2400,0.1321,0.3000,0.0600,0.0002,0,-0.9243,-3.5000,-0.0010,-0.9243,-3.5000,-0.0010,36.8306,32.2701,0.0200,0.0700
13.3865,45.5461,5.6248,-0.0000,0.0821,0.1200,0.4200,0.0000,0.0000,-0.1745,-0.3894,-0.0001,996,1502,1507,1500,2008,1000,1505,1000,1000,1009,1005,1000,1013,0.0096,0.0688,-0.1229,-0.0178,0.0055,1.0016,0.2148,0.5640,-0.2150,-0.5638,0.8627,0.2400,0.1321,0.8627,0.2400,0.1321,0.3000,0.0600,0.0002,0,-0.9243,-3.5000,-0.0010,-0.9243,-3.5000,-0.0010,36.7942,32.2516,0.0200,0.0700
13.3689,45.5123,5.6110,-0.0000,-0.0821,0.1200,0.4200,0.0000,0.0000,-0.1743,-0.3890,-0.0000,996,1502,1507,1500,2008,1000,1505,1000,1000,1009,1005,1000,1013,0.0327,0.0038,-0.1587,-0.0185,0.0075,1.0014,0.2146,0.5634,-0.2147,-0.5633,0.8627,0.2400,0.1321,0.8627,0.2400,0.1321,0.3000,0.0600,0.0002,0,-0.9243,-3.5000,-0.0010,-0.9243,-3.5000,-0.0010,36.7577,32.2335,0.0200,0.0700
13.3519,45.4783,5.5988,0.0829,-0.0821,0.1200,0.4200,0.0000,0.0000,-0.1741,-0.3887,-0.0005,996,1502,1507,1500,2008,1000,1505,1000,1000,1009,1005,1000,1013,-0.0476,0.0173,0.0018,-0.0183,0.0041,1.0019,0.2141,0.5633,-0.2152,-0.5623,0.8627,0.2400,0.1321,0.8627,0.2400,0.1321,0.3000,0.0600,0.0002,0,-0.9243,-3.5000,-0.0010,-0.9243,-3.5000,-0.0010,36.7220,32.2150,0.0200,0.0700
13.3356,45.4437,5.5873,-0.0829,-0.1642,0.1200,0.4200,0.0000,0.0000,-0.1740,-0.3884,-0.0003,996,1502,1507,1500,2008,1000,1505,1000,1000,1009,1005,1000,1013,-0.0075,0.0147,-0.0283,-0.0197,0.0064,0.9977,0.2141,0.5628,-0.2148,-0.5621,0.8627,0.2400,0.1321,0.8627,0.2400,0.1321,0.3000,0.0600,0.0002,0,-0.9243,-3.5000,-0.0010,-0.9243,-3.5000,-0.0010,36.6867,32.1956,0.0200,0.0700
13.3186,45.4090,5.5752,-0.0000,0.0000,0.1200,0.4200,0.0000,0.0000,-0.1738,-0.3881,-0.0004,998,1504,1507,1501,2008,1000,1505,1000,1000,1009,1005,1000,1013,-0.0502,0.0067,-0.0181,-0.0172,0.0068,0.9998,0.2139,0.5623,-0.2147,-0.5615,0.8627,0.2400,0.1321,0.8627,0.2400,0.1321,0.3000,0.0600,0.0002,0,-0.9243,-3.5000,-0.0010,-0.9243,-3.5000,-0.0010,36.6518,32.1763,0.0200,0.0700
13.3018,45.3739,5.5630,-0.0000,0.0000,0.1200,0.4200,0.0000,0.0000,-0.1737,-0.3878,-0.0004,996,1502,1507,1500,2008,1000,1505,1000,1000,1009,1005,1000,1013,-0.0097,-0.0312,-0.0231,-0.0187,0.0046,0.9972,0.2136,0.5619,-0.2145,-0.5611,0.8627,0.2400,0.1321,0.8627,0.2400,0.1321,0.3000,0.0600,0.0002,0,-0.9243,-3.5000,-0.0010,-0.9243,-3.5000,-0.0010,36.6167,32.1575,0.0200,0.0700
13.2859,45.3393,5.5523,0.0829,0.0821,0.1200,0.4200,0.0000,0.0000,-0.1735,-0.3876,-0.0008,996,1502,1507,1500,2008,1000,1505,1000,1000,1009,1005,1000,1013,-0.0373,0.0393,0.1134,-0.0175,0.0043,0.9992,0.2133,0.5619,-0.2148,-0.5603,0.8627,0.2400,0.1321,0.8627,0.2400,0.1321,0.3000,0.0600,0.0002,0,-0.9243,-3.5000,-0.0010,-0.9243,-3.5000,-0.0010,36.5818,32.1383,0.0200,0.0700
13.2702,45.3045,5.5416,-0.0000,0.0821,0.1200,0.4200,0.0000,0.0000,-0.1734,-0.3872,-0.0008,996,1502,1507,1500,2008,1000,1505,1000,1000,1009,1005,1000,1013,-0.0617,-0.0411,0.1035,-0.0172,0.0074,0.9958,0.2130,0.5613,-0.2146,-0.5598,0.8627,0.2400,0.1321,0.8627,0.2400,0.1321,0.3000,0.0600,0.0002,0,-0.9243,-3.5000,-0.0010,-0.9243,-3.5000,-0.0010,36.5464,32.1190,0.0200,0.0700
13.2551,45.2697,5.5320,-0.0000,0.0000,0.1200,0.4200,0.0000,0.0000,-0.1733,-0.3869,-0.0010,996,1502,1507,1500,2008,1000,1505,1000,1000,1009,1005,1000,1013,-0.0147,-0.0279,0.1673,-0.0178,0.0057,1.0005,0.2126,0.5612,-0.2146,-0.5592,0.8627,0.2400,0.1321,0.8627,0.2400,0.1321,0.3000,0.0600,0.0002,0,-0.9243,-3.5000,-0.0010,-0.9243,-3.5000,-0.0010,36.5117,32.0992,0.0200,0.0700
13.2405,45.2345,5.5224,-0.0000,0.0000,0.1200,0.4200,0.0000,0.0000,-0.1732,-0.3866,-0.0008,996,1502,1507,1500,2008,1000,1505,1000,1000,1009,1005,1000,1013,0.0279,0.0027,0.1146,-0.0182,0.0064,1.0041,0.2126,0.5607,-0.2142,-0.5590,0.8627,0.2400,0.1321,0.8627,0.2400,0.1321,0.3000,0.0600,0.0002,0,-0.9243,-3.5000,-0.0010,-0.9243,-3.5000,-0.0010,36.4771,32.0792,0.0200,0.0700
13.2263,45.1997,5.5133,0.0829,0.0000,0.1200,0.4200,0.0000,0.0000,-0.1731,-0.3864,-0.0009,998,1504,1507,1501,2008,1000,1505,1000,1000,1009,1005,1000,1013,-0.0015,0.0565,0.1544,-0.0189,0.0057,1.0018,0.2124,0.5604,-0.2142,-0.5585,0.8627,0.2400,0.1321,0.8627,0.2400,0.1321,0.3000,0.0600,0.0002,0,-0.9243,-3.5000,-0.0010,-0.9243,-3.5000,-0.0010,36.4424,32.0585,0.0200,0.0700
13.2113,45.1646,5.5035,-0.0000,0.0000,0.1200,0.4200,0.0000,0.0000,-0.1729,-0.3860,-0.0008,996,1502,1507,1500,2008,1000,1505,1000,1000,1009,1005,1000,1013,-0.0071,0.0201,0.1008,-0.0211,0.0046,1.0023,0.2124,0.5597,-0.2139,-0.5582,0.8627,0.2400,0.1321,0.8627,0.2400,0.1321,0.3000,0.0600,0.0002,0,-0.9243,-3.5000,-0.0010,-0.9243,-3.5000,-0.0010,36.4079,32.0380,0.0200,0.0700
13.1963,45.1296,5.4941,0.0829,0.0821,0.1200,0.4200,0.0000,0.0000,-0.1728,-0.3857,-0.0008,996,1502,1507,1500,2008,1000,1505,1000,1000,1009,1005,1000,1013,0.0151,0.0157,0.1188,-0.0185,0.0066,0.9996,0.2121,0.5593,-0.2137,-0.5578,0.8627,0.2400,0.1321,0.8627,0.2400,0.1321,0.3000,0.0600,0.0002,0,-0.9243,-3.5000,-0.0010,-0.9243,-3.5000,-0.0010,36.3734,32.0175,0.0200,0.0700
13.1814,45.0947,5.4841,0.0829,0.0000,0.1200,0.4200,0.0000,0.0000,-0.1727,-0.3854,-0.0006,996,1502,1507,1500,2008,1000,1505,1000,1000,1009,1005,1000,1013,0.0389,-0.0021,0.0338,-0.0187,0.0064,1.0006,0.2121,0.5587,-0.2132,-0.5576,0.8627,0.2400,0.1321,0.8627,0.2400,0.1321,0.3000,0.0600,0.0002,0,-0.9243,-3.5000,-0.0010,-0.9243,-3.5000,-0.0010,36.3385,31.9973,0.0200,0.0700
13.1663,45.0597,5.4739,0.0829,0.0000,0.1200,0.4200,0.0000,0.0000,-0.1726,-0.3851,-0.0007,996,1502,1507,1500,2008,1000,1505,1000,1000,1009,1005,1000,1013,0.0527,-0.0249,0.0773,-0.0177,0.0045,0.9986,0.2118,0.5584,-0.2132,-0.5570,0.8627,0.2400,0.1321,0.8627,0.2400,0.1321,0.3000,0.0600,0.0002,0,-0.9243,-3.5000,-0.0010,-0.9243,-3.5000,-0.0010,36.3039,31.9777,0.0200,0.0700
13.1512,45.0251,5.4634,-0.0000,0.0000,0.1200,0.4200,0.0000,0.0000,-0.1725,-0.3849,-0.0007,996,1502,1507,1500,2008,1000,1505,1000,1000,1009,1005,1000,1013,0.0542,0.0465,0.0633,-0.0187,0.0057,0.9962,0.2117,0.5580,-0.2130,-0.5567,0.8627,0.2400,0.1321,0.8627,0.2400,0.1321,0.3000,0.0600,0.0002,0,-0.9243,-3.5000,-0.0010,-0.9243,-3.5000,-0.0010,36.2684,31.9579,0.0200,0.0700
13.1362,44.9904,5.4527,0.0829,-0.0821,0.1200,0.4200,0.0000,0.0000,-0.1724,-0.3844,-0.0005,998,1504,1507,1501,2008,1000,1505,1000,1000,1009,1005,1000,1013,0.0467,-0.0543,0.0043,-0.0184,0.0044,0.9996,0.2116,0.5573,-0.2126,-0.5563,0.8627,0.2400,0.1321,0.8627,0.2400,0.1321,0.3000,0.0600,0.0002,0,-0.9243,-3.5000,-0.0010,-0.9243,-3.5000,-0.0010,36.2329,31.9379,0.0200,0.0700
13.1201,44.9554,5.4409,-0.0000,0.0000,0.1200,0.4200,0.0000,0.0000,-0.1722,-0.3842,-0.0002,996,1502,1507,1500,2008,1000,1505,1000,1000,1009,1005,1000,1013,0.0005,-0.0404,-0.0812,-0.0177,0.0050,1.0053,0.2118,0.5565,-0.2122,-0.5561,0.8627,0.2400,0.1321,0.8627,0.2400,0.1321,0.3000,0.0600,0.0002,0,-0.9243,-3.5000,-0.0010,-0.9243,-3.5000,-0.0010,36.1973,31.9185,0.0200,0.0700
13.1032,44.9208,5.4282,0.0829,0.0821,0.1200,0.4200,0.0000,0.0000,-0.1720,-0.3839,-0.0002,996,1502,1507,1500,2008,1000,1505,1000,1000,1009,1005,1000,1013,-0.0011,-0.0436,-0.0843,-0.0179,0.0071,1.0031,0.2116,0.5561,-0.2121,-0.5556,0.8627,0.2400,0.1321,0.8627,0.2400,0.1321,0.3000,0.0600,0.0002,0,-0.9243,-3.5000,-0.0010,-0.9243,-3.5000,-0.0010,36.1609,31.8990,0.0200,0.0700
13.0861,44.8860,5.4150,0.0829,0.0821,0.1200,0.4200,0.0000,0.0000,-0.1719,-0.3836,-0.0003,996,1502,1507,1500,2008,1000,1505,1000,1000,1009,1005,1000,1013,0.0480,0.0070,-0.0585,-0.0193,0.0070,1.0007,0.2113,0.5559,-0.2120,-0.5552,0.8627,0.2400,0.1321,0.8627,0.2400,0.1321,0.3000,0.0600,0.0002,0,-0.9243,-3.5000,-0.0010,-0.9243,-3.5000,-0.0010,36.1251,31.8798,0.0200,0.0700
13.0697,44.8511,5.4026,0.0829,0.0000,0.1200,0.4200,0.0000,0.0000,-0.1718,-0.3832,-0.0003,996,1502,1507,1500,2008,1000,1505,1000,1000,1009,1005,1000,1013,0.0485,-0.0451,-0.0583,-0.0171,0.0049,1.0006,0.2111,0.5554,-0.2118,-0.5547,0.8627,0.2400,0.1321,0.8627,0.2400,0.1321,0.3000,0.0600,0.0002,0,-0.9243,-3.5000,-0.0010,-0.9243,-3.5000,-0.0010,36.0892,31.8608,0.0200,0.0700
13.0533,44.8158,5.3905,0.0829,0.0000,0.1200,0.4200,0.0000,0.0000,-0.1716,-0.3829,-0.0004,996,1502,1507,1500,2008,1000,1505,1000,1000,1009,1005,1000,1013,0.0038,-0.0439,-0.0225,-0.0190,0.0052,0.9980,0.2109,0.5549,-0.2118,-0.5541,0.8627,0.2400,0.1321,0.8627,0.2400,0.1321,0.3000,0.0600,0.0002,0,-0.9243,-3.5000,-0.0010,-0.9243,-3.5000,-0.0010,36.0539,31.8413,0.0200,0.0700
13.0369,44.7812,5.3784,-0.0829,-0.0821,0.1200,0.4200,0.0000,0.0000,-0.1716,-0.3827,-0.0003,998,1504,1507,1501,2008,1000,1505,1000,1000,1009,1005,1000,1013,0.1086,-0.0173,-0.0530,-0.0172,0.0043,0.9984,0.2108,0.5546,-0.2114,-0.5539,0.8627,0.2400,0.1321,0.8627,0.2400,0.1321,0.3000,0.0600,0.0002,0,-0.9243,-3.5000,-0.0010,-0.9243,-3.5000,-0.0010,36.0180,31.8221,0.0200,0.0700
13.0211,44.7467,5.3669,0.0829,0.0000,0.1200,0.4200,0.0000,0.0000,-0.1712,-0.3824,-0.0004,996,1502,1507,1500,2008,1000,1505,1000,1000,1009,1005,1000,1013,-0.0474,-0.0007,-0.0112,-0.0172,0.0066,1.0059,0.2107,0.5541,-0.2116,-0.5532,0.8627,0.2400,0.1321,0.8627,0.2400,0.1321,0.3000,0.0600,0.0002,0,-0.9243,-3.5000,-0.0010,-0.9243,-3.5000,-0.0010,35.9822,31.8033,0.0200,0.0700
13.0051,44.7119,5.3559,-0.0000,0.0000,0.1200,0.4200,0.0000,0.0000,-0.1712,-0.3822,-0.0006,996,1502,1507,1500,2008,1000,1505,1000,1000,1009,1005,1000,1013,-0.0010,0.0450,0.0634,-0.0214,0.0058,1.0001,0.2104,0.5540,-0.2116,-0.5527,0.8627,0.2400,0.1321,0.8627,0.2400,0.1321,0.3000,0.0600,0.0002,0,-0.9243,-3.5000,-0.0010,-0.9243,-3.5000,-0.0010,35.9468,31.7834,0.0200,0.0700
12.9900,44.6772,5.3458,0.0829,0.0821,0.1200,0.4200,0.0000,0.0000,-0.1711,-0.3819,-0.0009,996,1502,1507,1500,2008,1000,1505,1000,1000,1009,1005,1000,1013,0.0230,0.0430,0.1221,-0.0154,0.0095,1.0031,0.2099,0.5538,-0.2117,-0.5520,0.8627,0.2400,0.1321,0.8627,0.2400,0.1321,0.3000,0.0600,0.0002,0,-0.9243,-3.5000,-0.0010,-0.9243,-3.5000,-0.0010,35.9114,31.7638,0.0200,0.0700
12.9745,44.6421,5.3353,-0.0000,0.0821,0.1200,0.4200,0.0000,0.0000,-0.1709,-0.3815,-0.0006,996,1502,1507,1500,2008,1000,1505,1000,1000,1009,1005,1000,1013,-0.0281,0.0031,0.0557,-0.0199,0.0061,1.0001,0.2100,0.5530,-0.2113,-0.5517,0.8627,0.2400,0.1321,0.8627,0.2400,0.1321,0.3000,0.0600,0.0002,0,-0.9243,-3.5000,-0.0010,-0.9243,-3.5000,-0.0010,35.8767,31.7442,0.0200,0.0700
12.9583,44.6071,5.3244,-0.0000,0.0000,0.1200,0.4200,0.0000,0.0000,-0.1707,-0.3811,-0.0003,996,1502,1507,1500,2008,1000,1505,1000,1000,1009,1005,1000,1013,-0.0594,-0.0489,-0.0472,-0.0217,0.0055,1.0002,0.2101,0.5521,-0.2108,-0.5515,0.8627,0.2400,0.1321,0.8627,0.2400,0.1321,0.3000,0.0600,0.0002,0,-0.9243,-3.5000,-0.0010,-0.9243,-3.5000,-0.0010,35.8413,31.7240,0.0200,0.0700
12.9424,44.5722,5.3141,0.0829,-0.0821,0.1200,0.4200,0.0000,0.0000,-0.1705,-0.3809,-0.0009,998,1504,1507,1501,2008,1000,1505,1000,1000,1009,1005,1000,1013,-0.0654,0.0243,0.1365,-0.0153,0.0061,1.0030,0.2095,0.5524,-0.2113,-0.5506,0.8627,0.2400,0.1321,0.8627,0.2400,0.1321,0.3000,0.0600,0.0002,0,-0.9243,-3.5000,-0.0010,-0.9243,-3.5000,-0.0010,35.8065,31.7037,0.0200,0.0700
12.9274,44.5373,5.3051,0.0829,0.0000,0.1200,0.4200,0.0000,0.0000,-0.1703,-0.3806,-0.0009,996,1502,1507,1500,2008,1000,1505,1000,1000,1009,1005,1000,1013,-0.1141,0.0319,0.1337,-0.0175,0.0068,1.0024,0.2094,0.5519,-0.2112,-0.5501,0.8627,0.2400,0.1321,0.8627,0.2400,0.1321,0.3000,0.0600,0.0002,0,-0.9243,-3.5000,-0.0010,-0.9243,-3.5000,-0.0010,35.7715,31.6829,0.0200,0.0700
12.9125,44.5018,5.2959,-0.0000,0.0000,0.1200,0.4200,0.0000,0.0000,-0.1704,-0.3803,-0.0011,996,1502,1507,1500,2008,1000,1505,1000,1000,1009,1005,1000,1013,0.0038,-0.0309,0.2004,-0.0161,0.0054,0.9975,0.2088,0.5517,-0.2110,-0.5495,0.8627,0.2400,0.1321,0.8627,0.2400,0.1321,0.3000,0.0600,0.0002,0,-0.9243,-3.5000,-0.0010,-0.9243,-3.5000,-0.0010,35.7369,31.6619,0.0200,0.0700
12.8980,44.4667,5.2870,-0.0000,0.0000,0.1200,0.4200,0.0000,0.0000,-0.1702,-0.3800,-0.0010,996,1502,1507,1500,2008,1000,1505,1000,1000,1009,1005,1000,1013,-0.0592,0.0324,0.1495,-0.0168,0.0068,0.9976,0.2089,0.5512,-0.2108,-0.5492,0.8627,0.2400,0.1321,0.8627,0.2400,0.1321,0.3000,0.0600,0.0002,0,-0.9243,-3.5000,-0.0010,-0.9243,-3.5000,-0.0010,35.7020,31.6417,0.0200,0.0700
12.8831,44.4316,5.2776,-0.0000,0.0000,0.1200,0.4200,0.0000,0.0000,-0.1701,-0.3798,-0.0008,996,1502,1507,1500,2008,1000,1505,1000,1000,1009,1005,1000,1013,-0.0289,0.0874,0.0976,-0.0207,0.0045,0.9988,0.2090,0.5506,-0.2105,-0.5491,0.8627,0.2400,0.1321,0.8627,0.2400,0.1321,0.3000,0.0600,0.0002,0,-0.9243,-3.5000,-0.0010,-0.9243,-3.5000,-0.0010,35.6664,31.6218,0.0200,0.0700
12.8680,44.3971,5.2679,0.0829,0.0000,0.1200,0.4200,0.0000,0.0000,-0.1699,-0.3794,-0.0004,996,1502,1507,1500,2008,1000,1505,1000,1000,1009,1005,1000,1013,-0.0368,0.0011,0.0124,-0.0162,0.0071,1.0043,0.2090,0.5498,-0.2099,-0.5489,0.8627,0.2400,0.1321,0.8627,0.2400,0.1321,0.3000,0.0600,0.0002,0,-0.9243,-3.5000,-0.0010,-0.9243,-3.5000,-0.0010,35.6305,31.6021,0.0200,0.0700
12.8515,44.3619,5.2563,-0.0000,0.0000,0.1200,0.4200,0.0000,0.0000,-0.1698,-0.3790,-0.0002,998,1504,1507,1501,2008,1000,1505,1000,1000,1009,1005,1000,1013,-0.0226,-0.0342,-0.1022,-0.0194,0.0043,1.0001,0.2090,0.5491,-0.2094,-0.5486,0.8627,0.2400,0.1321,0.8627,0.2400,0.1321,0.3000,0.0600,0.0002,0,-0.9243,-3.5000,-0.0010,-0.9243,-3.5000,-0.0010,35.5951,31.5819,0.0200,0.0700
12.8355,44.3270,5.2452,0.0829,0.0000,0.1200,0.4200,0.0000,0.0000,-0.1697,-0.3788,-0.0004,996,1502,1507,1500,2008,1000,1505,1000,1000,1009,1005,1000,1013,-0.0173,0.0153,-0.0137,-0.0186,0.0067,1.0026,0.2087,0.5489,-0.2096,-0.5480,0.8627,0.2400,0.1321,0.8627,0.2400,0.1321,0.3000,0.0600,0.0002,0,-0.9243,-3.5000,-0.0010,-0.9243,-3.5000,-0.0010,35.5595,31.5615,0.0200,0.0700
12.8192,44.2924,5.2338,0.0829,0.0821,0.1200,0.4200,0.0000,0.0000,-0.1695,-0.3785,-0.0004,996,1502,1507,1500,2008,1000,1505,1000,1000,1009,1005,1000,1013,-0.0208,0.0147,-0.0209,-0.0210,0.0049,0.9972,0.2086,0.5485,-0.2094,-0.5476,0.8627,0.2400,0.1321,0.8627,0.2400,0.1321,0.3000,0.0600,0.0002,0,-0.9243,-3.5000,-0.0010,-0.9243,-3.5000,-0.0010,35.5239,31.5415,0.0200,0.0700
12.8029,44.2579,5.2219,-0.0000,0.0821,0.1200,0.4200,0.0000,0.0000,-0.1694,-0.3783,-0.0003,996,1502,1507,1500,2008,1000,1505,1000,1000,1009,1005,1000,1013,-0.0211,0.0724,-0.0575,-0.0178,0.0053,1.0015,0.2086,0.5480,-0.2092,-0.5473,0.8627,0.2400,0.1321,0.8627,0.2400,0.1321,0.3000,0.0600,0.0002,0,-0.9243,-3.5000,-0.0010,-0.9243,-3.5000,-0.0010,35.4878,31.5216,0.0200,0.0700
12.7864,44.2230,5.2100,-0.0000,0.0821,0.1200,0.4200,0.0000,0.0000,-0.1692,-0.3778,-0.0003,996,1502,1507,1500,2008,1000,1505,1000,1000,1009,1005,1000,1013,-0.0257,-0.0662,-0.0642,-0.0156,0.0042,0.9988,0.2083,0.5473,-0.2088,-0.5468,0.8627,0.2400,0.1321,0.8627,0.2400,0.1321,0.3000,0.0600,0.0002,0,-0.9243,-3.5000,-0.0010,-0.9243,-3.5000,-0.0010,35.4511,31.5020,0.0200,0.0700
12.7695,44.1879,5.1976,0.0829,0.0821,0.1200,0.4200,0.0000,0.0000,-0.1691,-0.3776,-0.0002,996,1502,1507,1500,2008,1000,1505,1000,1000,1009,1005,1000,1013,-0.0300,-0.0110,-0.0667,-0.0186,0.0083,1.0010,0.2082,0.5469,-0.2087,-0.5464,0.8627,0.2400,0.1321,0.8627,0.2400,0.1321,0.3000,0.0600,0.0002,0,-0.9243,-3.5000,-0.0010,-0.9243,-3.5000,-0.0010,35.4149,31.4827,0.0200,0.0700
12.7529,44.1531,5.1853,0.0829,-0.0821,0.1200,0.4200,0.0000,0.0000,-0.1690,-0.3773,-0.0002,998,1504,1507,1501,2008,1000,1505,1000,1000,1009,1005,1000,1013,-0.0219,-0.0173,-0.1054,-0.0212,0.0050,0.9983,0.2082,0.5464,-0.2085,-0.5461,0.8627,0.2400,0.1321,0.8627,0.2400,0.1321,0.3000,0.0600,0.0002,0,-0.9243,-3.5000,-0.0010,-0.9243,-3.5000,-0.0010,35.3794,31.4636,0.0200,0.0700
12.7363,44.1177,5.1729,-0.0829,0.0000,0.1200,0.4200,0.0000,0.0000,-0.1689,-0.3770,-0.0000,996,1502,1507,1500,2008,1000,1505,1000,1000,1009,1005,1000,1013,0.0348,-0.0073,-0.1364,-0.0192,0.0064,1.0041,0.2080,0.5459,-0.2081,-0.5458,0.8627,0.2400,0.1321,0.8627,0.2400,0.1321,0.3000,0.0600,0.0002,0,-0.9243,-3.5000,-0.0010,-0.9243,-3.5000,-0.0010,35.3440,31.4440,0.0200,0.0700
12.7199,44.0831,5.1612,0.1657,0.0000,0.1200,0.4200,0.0000,0.0000,-0.1687,-0.3768,-0.0004,996,1502,1507,1500,2008,1000,1505,1000,1000,1009,1005,1000,1013,-0.0151,0.0829,-0.0151,-0.0167,0.0060,1.0023,0.2077,0.5459,-0.2085,-0.5451,0.8627,0.2400,0.1321,0.8627,0.2400,0.1321,0.3000,0.0600,0.0002,0,-0.9243,-3.5000,-0.0010,-0.9243,-3.5000,-0.0010,35.3087,31.4240,0.0200,0.0700
12.7044,44.0482,5.1505,-0.0829,-0.0821,0.1200,0.4200,0.0000,0.0000,-0.1686,-0.3764,-0.0006,996,1502,1507,1500,2008,1000,1505,1000,1000,1009,1005,1000,1013,0.0108,0.0150,0.0309,-0.0182,0.0080,1.0015,0.2072,0.5456,-0.2084,-0.5444,0.8627,0.2400,0.1321,0.8627,0.2400,0.1321,0.3000,0.0600,0.0002,0,-0.9243,-3.5000,-0.0010,-0.9243,-3.5000,-0.0010,35.2734,31.4039,0.0200,0.0700
12.6888,44.0129,5.1404,0.0829,0.0000,0.1200,0.4200,0.0000,0.0000,-0.1684,-0.3761,-0.0008,996,1502,1507,1500,2008,1000,1505,1000,1000,1009,1005,1000,1013,-0.0235,-0.0115,0.0941,-0.0202,0.0066,0.9994,0.2069,0.5452,-0.2084,-0.5437,0.8627,0.2400,0.1321,0.8627,0.2400,0.1321,0.3000,0.0600,0.0002,0,-0.9243,-3.5000,-0.0010,-0.9243,-3.5000,-0.0010,35.2387,31.3834,0.0200,0.0700
12.6744,43.9777,5.1308,-0.0829,-0.0821,0.1200,0.4200,0.0000,0.0000,-0.1683,-0.3758,-0.0009,996,1502,1507,1500,2008,1000,1505,1000,1000,1009,1005,1000,1013,0.0019,0.0186,0.1286,-0.0208,0.0094,0.9977,0.2066,0.5450,-0.2084,-0.5432,0.8627,0.2400,0.1321,0.8627,0.2400,0.1321,0.3000,0.0600,0.0002,0,-0.9243,-3.5000,-0.0010,-0.9243,-3.5000,-0.0010,35.2036,31.3630,0.0200,0.0700
12.6597,43.9431,5.1209,0.0829,0.0000,0.1200,0.4200,0.0000,0.0000,-0.1682,-0.3756,-0.0006,998,1504,1507,1501,2008,1000,1505,1000,1000,1009,1005,1000,1013,0.0201,0.0707,0.0314,-0.0175,0.0064,0.9976,0.2068,0.5443,-0.2079,-0.5432,0.8627,0.2400,0.1321,0.8627,0.2400,0.1321,0.3000,0.0600,0.0002,0,-0.9243,-3.5000,-0.0010,-0.9243,-3.5000,-0.0010,35.1683,31.3423,0.0200,0.0700
12.6446,43.9080,5.1107,0.0829,0.0000,0.1200,0.4200,0.0000,0.0000,-0.1681,-0.3752,-0.0005,996,1502,1507,1500,2008,1000,1505,1000,1000,1009,1005,1000,1013,0.0078,-0.0158,0.0292,-0.0180,0.0064,1.0034,0.2066,0.5437,-0.2076,-0.5427,0.8627,0.2400,0.1321,0.8627,0.2400,0.1321,0.3000,0.0600,0.0002,0,-0.9243,-3.5000,-0.0010,-0.9243,-3.5000,-0.0010,35.1338,31.3218,0.0200,0.0700
12.6296,43.8732,5.1006,0.0829,0.0000,0.1200,0.4200,0.0000,0.0000,-0.1680,-0.3749,-0.0008,996,1502,1507,1500,2008,1000,1505,1000,1000,1009,1005,1000,1013,0.0884,0.0580,0.1111,-0.0191,0.0066,0.9986,0.2061,0.5438,-0.2077,-0.5422,0.8627,0.2400,0.1321,0.8627,0.2400,0.1321,0.3000,0.0600,0.0002,0,-0.9243,-3.5000,-0.0010,-0.9243,-3.5000,-0.0010,35.0993,31.3014,0.0200,0.0700
12.6149,43.8376,5.0911,-0.0000,0.0000,0.1200,0.4200,0.0000,0.0000,-0.1678,-0.3745,-0.0008,996,1502,1507,1500,2008,1000,1505,1000,1000,1009,1005,1000,1013,-0.0247,-0.0165,0.0891,-0.0168,0.0062,0.9994,0.2060,0.5431,-0.2076,-0.5415,0.8627,0.2400,0.1321,0.8627,0.2400,0.1321,0.3000,0.0600,0.0002,0,-0.9243,-3.5000,-0.0010,-0.9243,-3.5000,-0.0010,35.0650,31.2810,0.0200,0.0700
12.6005,43.8021,5.0822,-0.0000,0.0000,0.1200,0.4200,0.0000,0.0000,-0.1676,-0.3743,-0.0007,996,1502,1507,1500,2008,1000,1505,1000,1000,1009,1005,1000,1013,-0.0464,0.0355,0.0768,-0.0206,0.0058,1.0015,0.2060,0.5426,-0.2074,-0.5412,0.8627,0.2400,0.1321,0.8627,0.2400,0.1321,0.3000,0.0600,0.0002,0,-0.9243,-3.5000,-0.0010,-0.9243,-3.5000,-0.0010,35.0305,31.2601,0.0200,0.0700
12.5857,43.7661,5.0723,-0.0000,0.0000,0.1200,0.4200,0.0000,0.0000,-0.1676,-0.3738,-0.0007,996,1502,1507,1500,2008,1000,1505,1000,1000,1009,1005,1000,1013,0.0504,-0.0796,0.0776,-0.0195,0.0067,1.0005,0.2055,0.5421,-0.2069,-0.5408,0.8627,0.2400,0.1321,0.8627,0.2400,0.1321,0.3000,0.0600,0.0002,0,-0.9243,-3.5000,-0.0010,-0.9243,-3.5000,-0.0010,34.9966,31.2392,0.0200,0.0700
12.5705,43.7309,5.0624,-0.0000,0.0821,0.1200,0.4200,0.0000,0.0000,-0.1674,-0.3736,-0.0007,998,1504,1507,1501,2008,1000,1505,1000,1000,1009,1005,1000,1013,-0.0258,-0.0072,0.0842,-0.0159,0.0083,0.9986,0.2055,0.5417,-0.2070,-0.5403,0.8627,0.2400,0.1321,0.8627,0.2400,0.1321,0.3000,0.0600,0.0002,0,-0.9243,-3.5000,-0.0010,-0.9243,-3.5000,-0.0010,34.9617,31.2185,0.0200,0.0700
12.5557,43.6954,5.0527,0.0829,0.0000,0.1200,0.4200,0.0000,0.0000,-0.1673,-0.3733,-0.0007,996,1502,1507,1500,2008,1000,1505,1000,1000,1009,1005,1000,1013,0.0438,-0.0188,0.0975,-0.0146,0.0071,1.0025,0.2052,0.5414,-0.2067,-0.5399,0.8627,0.2400,0.1321,0.8627,0.2400,0.1321,0.3000,0.0600,0.0002,0,-0.9243,-3.5000,-0.0010,-0.9243,-3.5000,-0.0010,34.9271,31.1989,0.0200,0.0700
12.5404,43.6606,5.0425,-0.0000,0.0000,0.1200,0.4200,0.0000,0.0000,-0.1671,-0.3731,-0.0005,996,1502,1507,1500,2008,1000,1505,1000,1000,1009,1005,1000,1013,-0.0102,0.0487,0.0310,-0.0182,0.0043,1.0012,0.2054,0.5408,-0.2065,-0.5397,0.8627,0.2400,0.1321,0.8627,0.2400,0.1321,0.3000,0.0600,0.0002,0,-0.9243,-3.5000,-0.0010,-0.9243,-3.5000,-0.0010,34.8914,31.1789,0.0200,0.0700
12.5246,43.6258,5.0313,-0.0000,0.0000,0.1200,0.4200,0.0000,0.0000,-0.1669,-0.3728,-0.0002,996,1502,1507,1500,2008,1000,1505,1000,1000,1009,1005,1000,1013,-0.0644,0.0439,-0.0758,-0.0168,0.0058,0.9993,0.2056,0.5400,-0.2061,-0.5395,0.8627,0.2400,0.1321,0.8627,0.2400,0.1321,0.3000,0.0600,0.0002,0,-0.9243,-3.5000,-0.0010,-0.9243,-3.5000,-0.0010,34.8559,31.1595,0.0200,0.0700
12.5081,43.5914,5.0196,0.0829,0.0821,0.1200,0.4200,0.0000,0.0000,-0.1669,-0.3726,-0.0002,996,1502,1507,1500,2008,1000,1505,1000,1000,1009,1005,1000,1013,0.0502,0.0930,-0.0668,-0.0167,0.0042,1.0026,0.2054,0.5397,-0.2058,-0.5393,0.8627,0.2400,0.1321,0.8627,0.2400,0.1321,0.3000,0.0600,0.0002,0,-0.9243,-3.5000,-0.0010,-0.9243,-3.5000,-0.0010,34.8202,31.1401,0.0200,0.0700
12.4918,43.5573,5.0074,0.0829,0.0000,0.1200,0.4200,0.0000,0.0000,-0.1667,-0.3722,-0.0001,996,1502,1507,1500,2008,1000,1505,1000,1000,1009,1005,1000,1013,-0.0257,0.0720,-0.1289,-0.0174,0.0055,0.9973,0.2055,0.5390,-0.2056,-0.5389,0.8627,0.2400,0.1321,0.8627,0.2400,0.1321,0.3000,0.0600,0.0002,0,-0.9243,-3.5000,-0.0010,-0.9243,-3.5000,-0.0010,34.7845,31.1206,0.0200,0.0700
12.4749,43.5221,4.9950,-0.0000,0.0000,0.1200,0.4200,0.0000,0.0000,-0.1666,-0.3718,-0.0001,998,1504,1507,1501,2008,1000,1505,1000,1000,1009,1005,1000,1013,0.0038,-0.0184,-0.1170,-0.0184,0.0049,0.9969,0.2051,0.5385,-0.2053,-0.5383,0.8627,0.2400,0.1321,0.8627,0.2400,0.1321,0.3000,0.0600,0.0002,0,-0.9243,-3.5000,-0.0010,-0.9243,-3.5000,-0.0010,34.7490,31.1011,0.0200,0.0700
12.4582,43.4868,4.9824,0.0829,0.0000,0.1200,0.4200,0.0000,0.0000,-0.1664,-0.3715,0.0000,996,1502,1507,1500,2008,1000,1505,1000,1000,1009,1005,1000,1013,-0.0091,-0.0438,-0.1612,-0.0190,0.0081,0.9979,0.2051,0.5379,-0.2050,-0.5379,0.8627,0.2400,0.1321,0.8627,0.2400,0.1321,0.3000,0.0600,0.0002,0,-0.9243,-3.5000,-0.0010,-0.9243,-3.5000,-0.0010,34.7132,31.0821,0.0200,0.0700
12.4418,43.4513,4.9701,0.0829,0.0821,0.1200,0.4200,0.0000,0.0000,-0.1664,-0.3712,-0.0002,996,1502,1507,1500,2008,1000,1505,1000,1000,1009,1005,1000,1013,0.0423,-0.0226,-0.0758,-0.0202,0.0093,0.9973,0.2046,0.5378,-0.2051,-0.5373,0.8627,0.2400,0.1321,0.8627,0.2400,0.1321,0.3000,0.0600,0.0002,0,-0.9243,-3.5000,-0.0010,-0.9243,-3.5000,-0.0010,34.6775,31.0626,0.0200,0.0700
12.4255,43.4157,4.9582,0.0829,-0.0821,0.1200,0.4200,0.0000,0.0000,-0.1661,-0.3709,-0.0001,996,1502,1507,1500,2008,1000,1505,1000,1000,1009,1005,1000,1013,-0.0511,-0.0248,-0.1223,-0.0176,0.0044,0.9997,0.2047,0.5371,-0.2049,-0.5369,0.8627,0.2400,0.1321,0.8627,0.2400,0.1321,0.3000,0.0600,0.0002,0,-0.9243,-3.5000,-0.0010,-0.9243,-3.5000,-0.0010,34.6420,31.0426,0.0200,0.0700
12.4096,43.3802,4.9466,-0.0829,-0.1642,0.1200,0.4200,0.0000,0.0000,-0.1661,-0.3706,-0.0004,996,1502,1507,1500,2008,1000,1505,1000,1000,1009,1005,1000,1013,0.0332,0.0007,-0.0325,-0.0178,0.0051,1.0015,0.2042,0.5371,-0.2049,-0.5363,0.8627,0.2400,0.1321,0.8627,0.2400,0.1321,0.3000,0.0600,0.0002,0,-0.9243,-3.5000,-0.0010,-0.9243,-3.5000,-0.0010,34.6063,31.0227,0.0200,0.0700
12.3939,43.3445,4.9354,-0.0000,-0.0821,0.1200,0.4200,0.0000,0.0000,-0.1659,-0.3703,-0.0003,996,1502,1507,1500,2008,1000,1505,1000,1000,1009,1005,1000,1013,0.0306,-0.0066,-0.0455,-0.0198,0.0070,1.0007,0.2041,0.5365,-0.2047,-0.5359,0.8627,0.2400,0.1321,0.8627,0.2400,0.1321,0.3000,0.0600,0.0002,0,-0.9243,-3.5000,-0.0010,-0.9243,-3.5000,-0.0010,34.5703,31.0019,0.0200,0.0700
12.3784,43.3088,4.9248,-0.0829,0.0000,0.1200,0.4200,0.0000,0.0000,-0.1657,-0.3701,-0.0005,998,1504,1507,1501,2008,1000,1505,1000,1000,1009,1005,1000,1013,-0.0644,0.0457,0.0099,-0.0173,0.0092,0.9968,0.2039,0.5362,-0.2049,-0.5352,0.8627,0.2400,0.1321,0.8627,0.2400,0.1321,0.3000,0.0600,0.0002,0,-0.9243,-3.5000,-0.0010,-0.9243,-3.5000,-0.0010,34.5349,30.9818,0.0200,0.0700
12.3629,43.2737,4.9145,-0.0000,0.0000,0.1200,0.4200,0.0000,0.0000,-0.1656,-0.3697,-0.0006,996,1502,1507,1500,2008,1000,1505,1000,1000,1009,1005,1000,1013,0.0094,0.0231,0.0431,-0.0168,0.0029,1.0006,0.2035,0.5360,-0.2047,-0.5347,0.8627,0.2400,0.1321,0.8627,0.2400,0.1321,0.3000,0.0600,0.0002,0,-0.9243,-3.5000,-0.0010,-0.9243,-3.5000,-0.0010,34.5004,30.9621,0.0200,0.0700
12.3482,43.2384,4.9049,-0.0829,-0.1642,0.1200,0.4200,0.0000,0.0000,-0.1655,-0.3695,-0.0006,996,1502,1507,1500,2008,1000,1505,1000,1000,1009,1005,1000,1013,0.0153,0.0431,0.0538,-0.0171,0.0060,0.9986,0.2033,0.5356,-0.2045,-0.5344,0.8627,0.2400,0.1321,0.8627,0.2400,0.1321,0.3000,0.0600,0.0002,0,-0.9243,-3.5000,-0.0010,-0.9243,-3.5000,-0.0010,34.4655,30.9416,0.0200,0.0700
12.3336,43.2030,4.8958,0.0829,0.0000,0.1200,0.4200,0.0000,0.0000,-0.1653,-0.3692,-0.0007,996,1502,1507,1500,2008,1000,1505,1000,1000,1009,1005,1000,1013,-0.0227,0.1068,0.0939,-0.0184,0.0065,1.0003,0.2032,0.5353,-0.2046,-0.5338,0.8627,0.2400,0.1321,0.8627,0.2400,0.1321,0.3000,0.0600,0.0002,0,-0.9243,-3.5000,-0.0010,-0.9243,-3.5000,-0.0010,34.4305,30.9205,0.0200,0.0700
12.3186,43.1673,4.8864,0.0829,0.0000,0.1200,0.4200,0.0000,0.0000,-0.1652,-0.3688,-0.0009,996,1502,1507,1500,2008,1000,1505,1000,1000,1009,1005,1000,1013,-0.0212,0.0443,0.1230,-0.0177,0.0091,0.9998,0.2028,0.5349,-0.2045,-0.5332,0.8627,0.2400,0.1321,0.8627,0.2400,0.1321,0.3000,0.0600,0.0002,0,-0.9243,-3.5000,-0.0010,-0.9243,-3.5000,-0.0010,34.3957,30.8993,0.0200,0.0700
12.3044,43.1321,4.8777,-0.0000,0.0000,0.1200,0.4200,0.0000,0.0000,-0.1652,-0.3685,-0.0008,996,1502,1507,1500,2008,1000,1505,1000,1000,1009,1005,1000,1013,0.0271,0.0507,0.1284,-0.0171,0.0051,1.0010,0.2025,0.5345,-0.2042,-0.5328,0.8627,0.2400,0.1321,0.8627,0.2400,0.1321,0.3000,0.0600,0.0002,0,-0.9243,-3.5000,-0.0010,-0.9243,-3.5000,-0.0010,34.3614,30.8782,0.0200,0.0700
12.2901,43.0964,4.8689,0.0829,0.0000,0.1200,0.4200,0.0000,0.0000,-0.1650,-0.3682,-0.0008,998,1504,1507,1501,2008,1000,1505,1000,1000,1009,1005,1000,1013,0.0187,0.0248,0.1137,-0.0199,0.0058,0.9984,0.2024,0.5340,-0.2040,-0.5324,0.8627,0.2400,0.1321,0.8627,0.2400,0.1321,0.3000,0.0600,0.0002,0,-0.9243,-3.5000,-0.0010,-0.9243,-3.5000,-0.0010,34.3264,30.8576,0.0200,0.0700
12.2751,43.0607,4.8595,-0.0000,0.0000,0.1200,0.4200,0.0000,0.0000,-0.1649,-0.3679,-0.0006,996,1502,1507,1500,2008,1000,1505,1000,1000,1009,1005,1000,1013,0.0227,0.0316,0.0425,-0.0171,0.0069,0.9992,0.2024,0.5334,-0.2036,-0.5322,0.8627,0.2400,0.1321,0.8627,0.2400,0.1321,0.3000,0.0600,0.0002,0,-0.9243,-3.5000,-0.0010,-0.9243,-3.5000,-0.0010,34.2916,30.8369,0.0200,0.0700
12.2608,43.0251,4.8504,-0.0000,0.0821,0.1200,0.4200,0.0000,0.0000,-0.1648,-0.3676,-0.0007,996,1502,1507,1500,2008,1000,1505,1000,1000,1009,1005,1000,1013,0.0404,0.0286,0.0758,-0.0164,0.0052,1.0043,0.2021,0.5330,-0.2035,-0.5317,0.8627,0.2400,0.1321,0.8627,0.2400,0.1321,0.3000,0.0600,0.0002,0,-0.9243,-3.5000,-0.0010,-0.9243,-3.5000,-0.0010,34.2573,30.8158,0.0200,0.0700
12.2459,42.9897,4.8408,0.0829,0.0821,0.1200,0.4200,0.0000,0.0000,-0.1647,-0.3672,-0.0007,996,1502,1507,1500,2008,1000,1505,1000,1000,1009,1005,1000,1013,0.0449,-0.0276,0.0685,-0.0194,0.0037,0.9973,0.2019,0.5326,-0.2032,-0.5312,0.8627,0.2400,0.1321,0.8627,0.2400,0.1321,0.3000,0.0600,0.0002,0,-0.9243,-3.5000,-0.0010,-0.9243,-3.5000,-0.0010,34.2221,30.7945,0.0200,0.0700
12.2310,42.9539,4.8307,0.0829,0.0000,0.1200,0.4200,0.0000,0.0000,-0.1644,-0.3670,-0.0005,996,1502,1507,1500,2008,1000,1505,1000,1000,1009,1005,1000,1013,-0.0277,0.0296,0.0050,-0.0191,0.0056,1.0046,0.2021,0.5319,-0.2030,-0.5309,0.8627,0.2400,0.1321,0.8627,0.2400,0.1321,0.3000,0.0600,0.0002,0,-0.9243,-3.5000,-0.0010,-0.9243,-3.5000,-0.0010,34.1871,30.7733,0.0200,0.0700
12.2159,42.9186,4.8203,0.0829,0.0000,0.1200,0.4200,0.0000,0.0000,-0.1644,-0.3666,-0.0004,996,1502,1507,1500,2008,1000,1505,1000,1000,1009,1005,1000,1013,0.0212,-0.0080,-0.0053,-0.0161,0.0076,1.0036,0.2018,0.5314,-0.2027,-0.5306,0.8627,0.2400,0.1321,0.8627,0.2400,0.1321,0.3000,0.0600,0.0002,0,-0.9243,-3.5000,-0.0010,-0.9243,-3.5000,-0.0010,34.1516,30.7524,0.0200,0.0700
12.2005,42.8828,4.8099,-0.0000,0.0000,0.1200,0.4200,0.0000,0.0000,-0.1642,-0.3663,-0.0004,998,1504,1507,1501,2008,1000,1505,1000,1000,1009,1005,1000,1013,-0.0030,-0.0052,-0.0325,-0.0189,0.0052,0.9987,0.2017,0.5309,-0.2025,-0.5301,0.8627,0.2400,0.1321,0.8627,0.2400,0.1321,0.3000,0.0600,0.0002,0,-0.9243,-3.5000,-0.0010,-0.9243,-3.5000,-0.0010,34.1163,30.7316,0.0200,0.0700
12.1848,42.8476,4.7990,-0.0000,0.0000,0.1200,0.4200,0.0000,0.0000,-0.1640,-0.3660,-0.0001,996,1502,1507,1500,2008,1000,1505,1000,1000,1009,1005,1000,1013,-0.0254,-0.0187,-0.1228,-0.0197,0.0074,0.9977,0.2019,0.5301,-0.2020,-0.5300,0.8627,0.2400,0.1321,0.8627,0.2400,0.1321,0.3000,0.0600,0.0002,0,-0.9243,-3.5000,-0.0010,-0.9243,-3.5000,-0.0010,34.0806,30.7114,0.0200,0.0700
12.1694,42.8120,4.7885,0.0829,0.0821,0.1200,0.4200,0.0000,0.0000,-0.1639,-0.3657,-0.0004,996,1502,1507,1500,2008,1000,1505,1000,1000,1009,1005,1000,1013,-0.0114,0.0047,-0.0106,-0.0195,0.0044,1.0003,0.2014,0.5301,-0.2022,-0.5292,0.8627,0.2400,0.1321,0.8627,0.2400,0.1321,0.3000,0.0600,0.0002,0,-0.9243,-3.5000,-0.0010,-0.9243,-3.5000,-0.0010,34.0451,30.6906,0.0200,0.0700
12.1540,42.7764,4.7779,-0.0000,0.0000,0.1200,0.4200,0.0000,0.0000,-0.1638,-0.3654,-0.0003,996,1502,1507,1500,2008,1000,1505,1000,1000,1009,1005,1000,1013,-0.0249,0.0221,-0.0268,-0.0189,0.0080,0.9951,0.2013,0.5296,-0.2020,-0.5289,0.8627,0.2400,0.1321,0.8627,0.2400,0.1321,0.3000,0.0600,0.0002,0,-0.9243,-3.5000,-0.0010,-0.9243,-3.5000,-0.0010,34.0093,30.6700,0.0200,0.0700
12.1386,42.7409,4.7669,-0.0000,0.0000,0.1200,0.4200,0.0000,0.0000,-0.1637,-0.3651,-0.0003,996,1502,1507,1500,2008,1000,1505,1000,1000,1009,1005,1000,1013,0.0062,-0.0109,-0.0575,-0.0164,0.0041,0.9970,0.2011,0.5291,-0.2017,-0.5285,0.8627,0.2400,0.1321,0.8627,0.2400,0.1321,0.3000,0.0600,0.0002,0,-0.9243,-3.5000,-0.0010,-0.9243,-3.5000,-0.0010,33.9734,30.6494,0.0200,0.0700
12.1231,42.7051,4.7555,0.0829,-0.0821,0.1200,0.4200,0.0000,0.0000,-0.1637,-0.3649,-0.0003,996,1502,1507,1500,2008,1000,1505,1000,1000,1009,1005,1000,1013,0.0902,0.0810,-0.0716,-0.0187,0.0052,0.9996,0.2009,0.5289,-0.2015,-0.5283,0.8627,0.2400,0.1321,0.8627,0.2400,0.1321,0.3000,0.0600,0.0002,0,-0.9243,-3.5000,-0.0010,-0.9243,-3.5000,-0.0010,33.9381,30.6291,0.0200,0.0700
12.1072,42.6701,4.7443,0.0829,0.0821,0.1200,0.4200,0.0000,0.0000,-0.1634,-0.3645,-0.0004,998,1504,1507,1501,2008,1000,1505,1000,1000,1009,1005,1000,1013,-0.0178,0.0406,-0.0357,-0.0177,0.0072,0.9996,0.2008,0.5283,-0.2015,-0.5276,0.8627,0.2400,0.1321,0.8627,0.2400,0.1321,0.3000,0.0600,0.0002,0,-0.9243,-3.5000,-0.0010,-0.9243,-3.5000,-0.0010,33.9030,30.6087,0.0200,0.0700
12.0919,42.6344,4.7338,-0.0829,-0.1642,0.1200,0.4200,0.0000,0.0000,-0.1633,-0.3642,-0.0006,996,1502,1507,1500,2008,1000,1505,1000,1000,1009,1005,1000,1013,0.0284,-0.0210,0.0432,-0.0188,0.0065,0.9970,0.2002,0.5281,-0.2015,-0.5268,0.8627,0.2400,0.1321,0.8627,0.2400,0.1321,0.3000,0.0600,0.0002,0,-0.9243,-3.5000,-0.0010,-0.9243,-3.5000,-0.0010,33.8682,30.5883,0.0200,0.0700
12.0768,42.5984,4.7238,0.0829,0.0000,0.1200,0.4200,0.0000,0.0000,-0.1631,-0.3639,-0.0004,996,1502,1507,1500,2008,1000,1505,1000,1000,1009,1005,1000,1013,-0.0015,-0.0028,-0.0367,-0.0150,0.0066,1.0025,0.2003,0.5274,-0.2011,-0.5266,0.8627,0.2400,0.1321,0.8627,0.2400,0.1321,0.3000,0.0600,0.0002,0,-0.9243,-3.5000,-0.0010,-0.9243,-3.5000,-0.0010,33.8329,30.5676,0.0200,0.0700
12.0617,42.5628,4.7138,-0.0829,-0.1642,0.1200,0.4200,0.0000,0.0000,-0.1630,-0.3636,-0.0004,996,1502,1507,1500,2008,1000,1505,1000,1000,1009,1005,1000,1013,-0.0118,0.0024,-0.0219,-0.0167,0.0085,0.9981,0.2001,0.5270,-0.2010,-0.5262,0.8627,0.2400,0.1321,0.8627,0.2400,0.1321,0.3000,0.0600,0.0002,0,-0.9243,-3.5000,-0.0010,-0.9243,-3.5000,-0.0010,33.7973,30.5467,0.0200,0.0700
12.0470,42.5266,4.7038,-0.0000,0.0000,0.1200,0.4200,0.0000,0.0000,-0.1629,-0.3632,-0.0006,996,1502,1507,1500,2008,1000,1505,1000,1000,1009,1005,1000,1013,0.0266,-0.0059,0.0472,-0.0158,0.0043,1.0017,0.1997,0.5268,-0.2010,-0.5255,0.8627,0.2400,0.1321,0.8627,0.2400,0.1321,0.3000,0.0600,0.0002,0,-0.9243,-3.5000,-0.0010,-0.9243,-3.5000,-0.0010,33.7614,30.5253,0.0200,0.0700
12.0326,42.4908,4.6945,-0.0000,0.0000,0.1200,0.4200,0.0000,0.0000,-0.1628,-0.3630,-0.0009,996,1502,1507,1500,2008,1000,1505,1000,1000,1009,1005,1000,1013,0.0213,0.0214,0.1229,-0.0198,0.0060,0.9996,0.1993,0.5266,-0.2010,-0.5249,0.8627,0.2400,0.1321,0.8627,0.2400,0.1321,0.3000,0.0600,0.0002,0,-0.9243,-3.5000,-0.0010,-0.9243,-3.5000,-0.0010,33.7265,30.5040,0.0200,0.0700
12.0180,42.4549,4.6851,-0.0000,0.0000,0.1200,0.4200,0.0000,0.0000,-0.1627,-0.3626,-0.0007,998,1504,1507,1501,2008,1000,1505,1000,1000,1009,1005,1000,1013,0.0208,-0.0174,0.0564,-0.0175,0.0034,1.0026,0.1993,0.5259,-0.2006,-0.5246,0.8627,0.2400,0.1321,0.8627,0.2400,0.1321,0.3000,0.0600,0.0002,0,-0.9243,-3.5000,-0.0010,-0.9243,-3.5000,-0.0010,33.6919,30.4827,0.0200,0.0700
12.0035,42.4193,4.6758,-0.0829,0.0821,0.1200,0.4200,0.0000,0.0000,-0.1626,-0.3624,-0.0007,996,1502,1507,1500,2008,1000,1505,1000,1000,1009,1005,1000,1013,0.0262,0.0783,0.0604,-0.0166,0.0068,0.9968,0.1992,0.5256,-0.2005,-0.5243,0.8627,0.2400,0.1321,0.8627,0.2400,0.1321,0.3000,0.0600,0.0002,0,-0.9243,-3.5000,-0.0010,-0.9243,-3.5000,-0.0010,33.6575,30.4610,0.0200,0.0700
11.9898,42.3834,4.6672,-0.0000,0.0821,0.1200,0.4200,0.0000,0.0000,-0.1624,-0.3620,-0.0010,996,1502,1507,1500,2008,1000,1505,1000,1000,1009,1005,1000,1013,0.0091,0.0032,0.1610,-0.0198,0.0072,0.9983,0.1986,0.5254,-0.2006,-0.5235,0.8627,0.2400,0.1321,0.8627,0.2400,0.1321,0.3000,0.0600,0.0002,0,-0.9243,-3.5000,-0.0010,-0.9243,-3.5000,-0.0010,33.6228,30.4395,0.0200,0.0700
11.9753,42.3469,4.6588,0.1657,0.0000,0.1200,0.4200,0.0000,0.0000,-0.1623,-0.3617,-0.0007,996,1502,1507,1500,2008,1000,1505,1000,1000,1009,1005,1000,1013,-0.0015,0.0037,0.0720,-0.0161,0.0073,0.9998,0.1988,0.5246,-0.2001,-0.5233,0.8627,0.2400,0.1321,0.8627,0.2400,0.1321,0.3000,0.0600,0.0002,0,-0.9243,-3.5000,-0.0010,-0.9243,-3.5000,-0.0010,33.5881,30.4176,0.0200,0.0700
11.9612,42.3108,4.6496,0.0829,0.0000,0.1200,0.4200,0.0000,0.0000,-0.1622,-0.3613,-0.0007,996,1502,1507,1500,2008,1000,1505,1000,1000,1009,1005,1000,1013,0.0536,-0.0619,0.0658,-0.0178,0.0060,1.0007,0.1984,0.5242,-0.1998,-0.5229,0.8627,0.2400,0.1321,0.8627,0.2400,0.1321,0.3000,0.0600,0.0002,0,-0.9243,-3.5000,-0.0010,-0.9243,-3.5000,-0.0010,33.5531,30.3962,0.0200,0.0700
11.9465,42.2741,4.6401,0.0829,0.0821,0.1200,0.4200,0.0000,0.0000,-0.1621,-0.3610,-0.0007,996,1502,1507,1500,2008,1000,1505,1000,1000,1009,1005,1000,1013,0.0263,-0.0415,0.0652,-0.0166,0.0040,1.0019,0.1982,0.5238,-0.1997,-0.5224,0.8627,0.2400,0.1321,0.8627,0.2400,0.1321,0.3000,0.0600,0.0002,0,-0.9243,-3.5000,-0.0010,-0.9243,-3.5000,-0.0010,33.5189,30.3748,0.0200,0.0700
11.9317,42.2376,4.6303,0.0829,0.0000,0.1200,0.4200,0.0000,0.0000,-0.1619,-0.3607,-0.0005,998,1504,1507,1501,2008,1000,1505,1000,1000,1009,1005,1000,1013,0.0234,-0.0086,-0.0008,-0.0186,0.0065,0.9948,0.1983,0.5232,-0.1993,-0.5222,0.8627,0.2400,0.1321,0.8627,0.2400,0.1321,0.3000,0.0600,0.0002,0,-0.9243,-3.5000,-0.0010,-0.9243,-3.5000,-0.0010,33.4843,30.3541,0.0200,0.0700
11.9167,42.2018,4.6199,0.1657,0.0000,0.1200,0.4200,0.0000,0.0000,-0.1618,-0.3605,-0.0002,996,1502,1507,1500,2008,1000,1505,1000,1000,1009,1005,1000,1013,0.0039,0.0106,-0.0808,-0.0201,0.0058,0.9983,0.1985,0.5225,-0.1989,-0.5220,0.8627,0.2400,0.1321,0.8627,0.2400,0.1321,0.3000,0.0600,0.0002,0,-0.9243,-3.5000,-0.0010,-0.9243,-3.5000,-0.0010,33.4486,30.3327,0.0200,0.0700
11.9012,42.1666,4.6091,0.0829,-0.0821,0.1200,0.4200,0.0000,0.0000,-0.1616,-0.3601,-0.0005,996,1502,1507,1500,2008,1000,1505,1000,1000,1009,1005,1000,1013,0.0052,-0.0095,-0.0047,-0.0225,0.0066,1.0038,0.1980,0.5222,-0.1990,-0.5213,0.8627,0.2400,0.1321,0.8627,0.2400,0.1321,0.3000,0.0600,0.0002,0,-0.9243,-3.5000,-0.0010,-0.9243,-3.5000,-0.0010,33.4133,30.3120,0.0200,0.0700
11.8854,42.1306,4.5982,-0.0000,0.1642,0.1200,0.4200,0.0000,0.0000,-0.1614,-0.3598,-0.0003,996,1502,1507,1500,2008,1000,1505,1000,1000,1009,1005,1000,1013,-0.0505,-0.0124,-0.0604,-0.0159,0.0048,1.0017,0.1981,0.5215,-0.1987,-0.5210,0.8627,0.2400,0.1321,0.8627,0.2400,0.1321,0.3000,0.0600,0.0002,0,-0.9243,-3.5000,-0.0010,-0.9243,-3.5000,-0.0010,33.3776,30.2914,0.0200,0.0700
11.8697,42.0951,4.5875,0.0829,0.0000,0.1200,0.4200,0.0000,0.0000,-0.1614,-0.3596,-0.0004,996,1502,1507,1500,2008,1000,1505,1000,1000,1009,1005,1000,1013,0.0318,0.0560,-0.0291,-0.0215,0.0044,0.9974,0.1978,0.5214,-0.1986,-0.5206,0.8627,0.2400,0.1321,0.8627,0.2400,0.1321,0.3000,0.0600,0.0002,0,-0.9243,-3.5000,-0.0010,-0.9243,-3.5000,-0.0010,33.3418,30.2704,0.0200,0.0700
11.8543,42.0592,4.5769,0.0829,-0.0821,0.1200,0.4200,0.0000,0.0000,-0.1612,-0.3592,-0.0002,996,1502,1507,1500,2008,1000,1505,1000,1000,1009,1005,1000,1013,-0.0034,0.0042,-0.0831,-0.0173,0.0071,0.9969,0.1978,0.5207,-0.1982,-0.5202,0.8627,0.2400,0.1321,0.8627,0.2400,0.1321,0.3000,0.0600,0.0002,0,-0.9243,-3.5000,-0.0010,-0.9243,-3.5000,-0.0010,33.3064,30.2498,0.0200,0.0700
11.8386,42.0236,4.5660,0.0829,-0.0821,0.1200,0.4200,0.0000,0.0000,-0.1611,-0.3589,-0.0004,998,1504,1507,1501,2008,1000,1505,1000,1000,1009,1005,1000,1013,0.0163,-0.0153,-0.0293,-0.0183,0.0036,1.0007,0.1974,0.5204,-0.1981,-0.5196,0.8627,0.2400,0.1321,0.8627,0.2400,0.1321,0.3000,0.0600,0.0002,0,-0.9243,-3.5000,-0.0010,-0.9243,-3.5000,-0.0010,33.2708,30.2287,0.0200,0.0700
11.8232,41.9876,4.5553,-0.0000,0.0000,0.1200,0.4200,0.0000,0.0000,-0.1610,-0.3587,-0.0005,996,1502,1507,1500,2008,1000,1505,1000,1000,1009,1005,1000,1013,-0.0023,0.0470,-0.0027,-0.0210,0.0061,1.0020,0.1973,0.5201,-0.1982,-0.5192,0.8627,0.2400,0.1321,0.8627,0.2400,0.1321,0.3000,0.0600,0.0002,0,-0.9243,-3.5000,-0.0010,-0.9243,-3.5000,-0.0010,33.2352,30.2081,0.0200,0.0700
11.8081,41.9520,4.5451,-0.0829,0.0000,0.1200,0.4200,0.0000,0.0000,-0.1608,-0.3582,-0.0005,996,1502,1507,1500,2008,1000,1505,1000,1000,1009,1005,1000,1013,0.0074,-0.0482,0.0131,-0.0189,0.0066,0.9963,0.1968,0.5196,-0.1979,-0.5185,0.8627,0.2400,0.1321,0.8627,0.2400,0.1321,0.3000,0.0600,0.0002,0,-0.9243,-3.5000,-0.0010,-0.9243,-3.5000,-0.0010,33.1998,30.1879,0.0200,0.0700
11.7929,41.9158,4.5350,0.0829,0.0000,0.1200,0.4200,0.0000,0.0000,-0.1607,-0.3579,-0.0005,996,1502,1507,1500,2008,1000,1505,1000,1000,1009,1005,1000,1013,-0.0267,-0.0398,0.0199,-0.0166,0.0078,0.9960,0.1968,0.5191,-0.1978,-0.5181,0.8627,0.2400,0.1321,0.8627,0.2400,0.1321,0.3000,0.0600,0.0002,0,-0.9243,-3.5000,-0.0010,-0.9243,-3.5000,-0.0010,33.1646,30.1671,0.0200,0.0700
11.7776,41.8790,4.5248,-0.0000,-0.1642,0.1200,0.4200,0.0000,0.0000,-0.1605,-0.3576,-0.0005,996,1502,1507,1500,2008,1000,1505,1000,1000,1009,1005,1000,1013,-0.0313,-0.0294,0.0090,-0.0158,0.0065,1.0020,0.1966,0.5187,-0.1976,-0.5176,0.8627,0.2400,0.1321,0.8627,0.2400,0.1321,0.3000,0.0600,0.0002,0,-0.9243,-3.5000,-0.0010,-0.9243,-3.5000,-0.0010,33.1293,30.1461,0.0200,0.0700
11.7625,41.8432,4.5151,-0.0000,0.0000,0.1200,0.4200,0.0000,0.0000,-0.1604,-0.3575,-0.0005,996,1502,1507,1500,2008,1000,1505,1000,1000,1009,1005,1000,1013,-0.0003,0.0858,0.0278,-0.0203,0.0085,0.9978,0.1965,0.5184,-0.1976,-0.5174,0.8627,0.2400,0.1321,0.8627,0.2400,0.1321,0.3000,0.0600,0.0002,0,-0.9243,-3.5000,-0.0010,-0.9243,-3.5000,-0.0010,33.0946,30.1248,0.0200,0.0700
11.7478,41.8075,4.5055,-0.0829,-0.1642,0.1200,0.4200,0.0000,0.0000,-0.1603,-0.3571,-0.0009,998,1504,1507,1501,2008,1000,1505,1000,1000,1009,1005,1000,1013,-0.0045,0.0284,0.1131,-0.0161,0.0057,0.9988,0.1959,0.5183,-0.1977,-0.5165,0.8627,0.2400,0.1321,0.8627,0.2400,0.1321,0.3000,0.0600,0.0002,0,-0.9243,-3.5000,-0.0010,-0.9243,-3.5000,-0.0010,33.0599,30.1039,0.0200,0.0700
11.7341,41.7716,4.4972,-0.0000,0.0000,0.1200,0.4200,0.0000,0.0000,-0.1602,-0.3568,-0.0005,996,1502,1507,1500,2008,1000,1505,1000,1000,1009,1005,1000,1013,0.0332,0.0275,0.0055,-0.0170,0.0072,1.0048,0.1961,0.5175,-0.1970,-0.5165,0.8627,0.2400,0.1321,0.8627,0.2400,0.1321,0.3000,0.0600,0.0002,0,-0.9243,-3.5000,-0.0010,-0.9243,-3.5000,-0.0010,33.0249,30.0824,0.0200,0.0700
11.7201,41.7356,4.4884,-0.0000,0.0821,0.1200,0.4200,0.0000,0.0000,-0.1601,-0.3565,-0.0009,996,1502,1507,1500,2008,1000,1505,1000,1000,1009,1005,1000,1013,0.0252,0.0282,0.1360,-0.0158,0.0054,0.9990,0.1955,0.5175,-0.1972,-0.5157,0.8627,0.2400,0.1321,0.8627,0.2400,0.1321,0.3000,0.0600,0.0002,0,-0.9243,-3.5000,-0.0010,-0.9243,-3.5000,-0.0010,32.9897,30.0609,0.0200,0.0700
11.7058,41.6996,4.4800,-0.0000,0.0000,0.1200,0.4200,0.0000,0.0000,-0.1599,-0.3561,-0.0007,996,1502,1507,1500,2008,1000,1505,1000,1000,1009,1005,1000,1013,-0.0471,0.0186,0.0943,-0.0196,0.0075,1.0030,0.1955,0.5168,-0.1970,-0.5153,0.8627,0.2400,0.1321,0.8627,0.2400,0.1321,0.3000,0.0600,0.0002,0,-0.9243,-3.5000,-0.0010,-0.9243,-3.5000,-0.0010,32.9549,30.0393,0.0200,0.0700
11.6914,41.6633,4.4710,-0.0000,-0.0821,0.1200,0.4200,0.0000,0.0000,-0.1598,-0.3559,-0.0007,996,1502,1507,1500,2008,1000,1505,1000,1000,1009,1005,1000,1013,0.0106,0.0422,0.0649,-0.0173,0.0070,1.0038,0.1953,0.5164,-0.1967,-0.5150,0.8627,0.2400,0.1321,0.8627,0.2400,0.1321,0.3000,0.0600,0.0002,0,-0.9243,-3.5000,-0.0010,-0.9243,-3.5000,-0.0010,32.9205,30.0182,0.0200,0.0700
11.6769,41.6274,4.4621,0.0829,0.0821,0.1200,0.4200,0.0000,0.0000,-0.1597,-0.3555,-0.0008,996,1502,1507,1500,2008,1000,1505,1000,1000,1009,1005,1000,1013,-0.0215,-0.0075,0.0930,-0.0186,0.0071,1.0081,0.1950,0.5160,-0.1966,-0.5143,0.8627,0.2400,0.1321,0.8627,0.2400,0.1321,0.3000,0.0600,0.0002,0,-0.9243,-3.5000,-0.0010,-0.9243,-3.5000,-0.0010,32.8859,29.9970,0.0200,0.0700
11.6631,41.5912,4.4537,0.0829,0.0821,0.1200,0.4200,0.0000,0.0000,-0.1596,-0.3552,-0.0007,998,1504,1507,1501,2008,1000,1505,1000,1000,1009,1005,1000,1013,0.0294,0.0131,0.0911,-0.0190,0.0060,1.0021,0.1948,0.5156,-0.1963,-0.5141,0.8627,0.2400,0.1321,0.8627,0.2400,0.1321,0.3000,0.0600,0.0002,0,-0.9243,-3.5000,-0.0010,-0.9243,-3.5000,-0.0010,32.8513,29.9756,0.0200,0.0700
11.6483,41.5549,4.4442,0.0829,0.0000,0.1200,0.4200,0.0000,0.0000,-0.1595,-0.3548,-0.0005,996,1502,1507,1500,2008,1000,1505,1000,1000,1009,1005,1000,1013,0.0084,-0.0200,0.0147,-0.0211,0.0063,1.0004,0.1949,0.5148,-0.1959,-0.5138,0.8627,0.2400,0.1321,0.8627,0.2400,0.1321,0.3000,0.0600,0.0002,0,-0.9243,-3.5000,-0.0010,-0.9243,-3.5000,-0.0010,32.8167,29.9542,0.0200,0.0700
11.6340,41.5183,4.4347,0.0829,0.0000,0.1200,0.4200,0.0000,0.0000,-0.1594,-0.3545,-0.0008,996,1502,1507,1500,2008,1000,1505,1000,1000,1009,1005,1000,1013,0.0240,-0.0616,0.1112,-0.0181,0.0070,1.0010,0.1943,0.5146,-0.1959,-0.5130,0.8627,0.2400,0.1321,0.8627,0.2400,0.1321,0.3000,0.0600,0.0002,0,-0.9243,-3.5000,-0.0010,-0.9243,-3.5000,-0.0010,32.7819,29.9324,0.0200,0.0700
11.6194,41.4820,4.4251,-0.0000,0.0821,0.1200,0.4200,0.0000,0.0000,-0.1592,-0.3543,-0.0004,996,1502,1507,1500,2008,1000,1505,1000,1000,1009,1005,1000,1013,-0.0200,0.0082,-0.0111,-0.0195,0.0062,0.9984,0.1947,0.5138,-0.1955,-0.5130,0.8627,0.2400,0.1321,0.8627,0.2400,0.1321,0.3000,0.0600,0.0002,0,-0.9243,-3.5000,-0.0010,-0.9243,-3.5000,-0.0010,32.7469,29.9105,0.0200,0.0700
11.6041,41.4462,4.4150,-0.0000,-0.0821,0.1200,0.4200,0.0000,0.0000,-0.1591,-0.3539,-0.0004,996,1502,1507,1500,2008,1000,1505,1000,1000,1009,1005,1000,1013,0.0465,-0.0145,-0.0133,-0.0204,0.0065,1.0011,0.1943,0.5135,-0.1952,-0.5126,0.8627,0.2400,0.1321,0.8627,0.2400,0.1321,0.3000,0.0600,0.0002,0,-0.9243,-3.5000,-0.0010,-0.9243,-3.5000,-0.0010,32.7110,29.8893,0.0200,0.0700
11.5902,41.4100,4.4057,-0.0000,0.0000,0.1200,0.4200,0.0000,0.0000,-0.1590,-0.3536,-0.0005,996,1502,1507,1500,2008,1000,1505,1000,1000,1009,1005,1000,1013,0.0423,-0.0064,0.0003,-0.0201,0.0057,1.0001,0.1941,0.5131,-0.1951,-0.5121,0.8627,0.2400,0.1321,0.8627,0.2400,0.1321,0.3000,0.0600,0.0002,0,-0.9243,-3.5000,-0.0010,-0.9243,-3.5000,-0.0010,32.6757,29.8680,0.0200,0.0700
11.5753,41.3737,4.3956,0.0829,0.0821,0.1200,0.4200,0.0000,0.0000,-0.1589,-0.3534,-0.0004,998,1504,1507,1501,2008,1000,1505,1000,1000,1009,1005,1000,1013,0.0404,0.0526,-0.0330,-0.0194,0.0084,0.9973,0.1941,0.5126,-0.1949,-0.5119,0.8627,0.2400,0.1321,0.8627,0.2400,0.1321,0.3000,0.0600,0.0002,0,-0.9243,-3.5000,-0.0010,-0.9243,-3.5000,-0.0010,32.6404,29.8470,0.0200,0.0700
11.5605,41.3376,4.3854,0.0829,0.0000,0.1200,0.4200,0.0000,0.0000,-0.1587,-0.3529,-0.0003,996,1502,1507,1500,2008,1000,1505,1000,1000,1009,1005,1000,1013,0.0292,-0.0423,-0.0553,-0.0165,0.0070,1.0016,0.1939,0.5120,-0.1945,-0.5114,0.8627,0.2400,0.1321,0.8627,0.2400,0.1321,0.3000,0.0600,0.0002,0,-0.9243,-3.5000,-0.0010,-0.9243,-3.5000,-0.0010,32.6056,29.8259,0.0200,0.0700
11.5454,41.3011,4.3754,-0.1657,0.0000,0.1200,0.4200,0.0000,0.0000,-0.1585,-0.3527,-0.0005,996,1502,1507,1500,2008,1000,1505,1000,1000,1009,1005,1000,1013,-0.0336,0.0085,0.0040,-0.0193,0.0078,1.0006,0.1937,0.5117,-0.1947,-0.5107,0.8627,0.2400,0.1321,0.8627,0.2400,0.1321,0.3000,0.0600,0.0002,0,-0.9243,-3.5000,-0.0010,-0.9243,-3.5000,-0.0010,32.5706,29.8048,0.0200,0.0700
11.5308,41.2645,4.3663,0.0829,0.0000,0.1200,0.4200,0.0000,0.0000,-0.1585,-0.3523,-0.0007,996,1502,1507,1500,2008,1000,1505,1000,1000,1009,1005,1000,1013,0.0145,-0.0853,0.0777,-0.0189,0.0072,1.0030,0.1930,0.5115,-0.1945,-0.5100,0.8627,0.2400,0.1321,0.8627,0.2400,0.1321,0.3000,0.0600,0.0002,0,-0.9243,-3.5000,-0.0010,-0.9243,-3.5000,-0.0010,32.5357,29.7835,0.0200,0.0700
11.5166,41.2279,4.3573,0.0829,0.0000,0.1200,0.4200,0.0000,0.0000,-0.1583,-0.3521,-0.0006,996,1502,1507,1500,2008,1000,1505,1000,1000,1009,1005,1000,1013,0.0009,0.0059,0.0485,-0.0167,0.0046,1.0037,0.1932,0.5110,-0.1943,-0.5098,0.8627,0.2400,0.1321,0.8627,0.2400,0.1321,0.3000,0.0600,0.0002,0,-0.9243,-3.5000,-0.0010,-0.9243,-3.5000,-0.0010,32.5007,29.7618,0.0200,0.0700
11.5018,41.1914,4.3478,-0.0829,0.0000,0.1200,0.4200,0.0000,0.0000,-0.1582,-0.3517,-0.0007,996,1502,1507,1500,2008,1000,1505,1000,1000,1009,1005,1000,1013,-0.0071,-0.0164,0.0598,-0.0188,0.0035,0.9951,0.1929,0.5106,-0.1942,-0.5092,0.8627,0.2400,0.1321,0.8627,0.2400,0.1321,0.3000,0.0600,0.0002,0,-0.9243,-3.5000,-0.0010,-0.9243,-3.5000,-0.0010,32.4657,29.7402,0.0200,0.0700
11.4872,41.1550,4.3386,0.0829,0.0821,0.1200,0.4200,0.0000,0.0000,-0.1581,-0.3514,-0.0006,998,1504,1507,1501,2008,1000,1505,1000,1000,1009,1005,1000,1013,-0.0072,0.0159,0.0407,-0.0179,0.0061,0.9968,0.1928,0.5101,-0.1940,-0.5089,0.8627,0.2400,0.1321,0.8627,0.2400,0.1321,0.3000,0.0600,0.0002,0,-0.9243,-3.5000,-0.0010,-0.9243,-3.5000,-0.0010,32.4317,29.7184,0.0200,0.0700
11.4725,41.1187,4.3292,-0.0000,-0.0821,0.1200,0.4200,0.0000,0.0000,-0.1579,-0.3511,-0.0007,996,1502,1507,1500,2008,1000,1505,1000,1000,1009,1005,1000,1013,-0.0056,0.0297,0.0683,-0.0151,0.0037,1.0013,0.1925,0.5098,-0.1939,-0.5084,0.8627,0.2400,0.1321,0.8627,0.2400,0.1321,0.3000,0.0600,0.0002,0,-0.9243,-3.5000,-0.0010,-0.9243,-3.5000,-0.0010,32.3976,29.6969,0.0200,0.0700
11.4584,41.0824,4.3207,-0.0000,0.0821,0.1200,0.4200,0.0000,0.0000,-0.1578,-0.3508,-0.0009,996,1502,1507,1500,2008,1000,1505,1000,1000,1009,1005,1000,1013,0.0122,-0.0108,0.1434,-0.0152,0.0065,1.0055,0.1921,0.5095,-0.1938,-0.5077,0.8627,0.2400,0.1321,0.8627,0.2400,0.1321,0.3000,0.0600,0.0002,0,-0.9243,-3.5000,-0.0010,-0.9243,-3.5000,-0.0010,32.3629,29.6752,0.0200,0.0700
11.4448,41.0457,4.3125,-0.0000,0.0000,0.1200,0.4200,0.0000,0.0000,-0.1577,-0.3505,-0.0007,996,1502,1507,1500,2008,1000,1505,1000,1000,1009,1005,1000,1013,0.0045,0.0146,0.0810,-0.0206,0.0064,1.0036,0.1921,0.5089,-0.1935,-0.5075,0.8627,0.2400,0.1321,0.8627,0.2400,0.1321,0.3000,0.0600,0.0002,0,-0.9243,-3.5000,-0.0010,-0.9243,-3.5000,-0.0010,32.3280,29.6532,0.0200,0.0700
11.4305,41.0094,4.3036,0.0829,0.0000,0.1200,0.4200,0.0000,0.0000,-0.1576,-0.3502,-0.0007,996,1502,1507,1500,2008,1000,1505,1000,1000,1009,1005,1000,1013,-0.0189,0.0043,0.0564,-0.0181,0.0068,1.0009,0.1919,0.5084,-0.1933,-0.5070,0.8627,0.2400,0.1321,0.8627,0.2400,0.1321,0.3000,0.0600,0.0002,0,-0.9243,-3.5000,-0.0010,-0.9243,-3.5000,-0.0010,32.2926,29.6313,0.0200,0.0700
11.4165,40.9727,4.2948,-0.0829,0.0821,0.1200,0.4200,0.0000,0.0000,-0.1574,-0.3499,-0.0005,996,1502,1507,1500,2008,1000,1505,1000,1000,1009,1005,1000,1013,-0.0172,0.0243,0.0164,-0.0192,0.0048,0.9999,0.1920,0.5078,-0.1929,-0.5068,0.8627,0.2400,0.1321,0.8627,0.2400,0.1321,0.3000,0.0600,0.0002,0,-0.9243,-3.5000,-0.0010,-0.9243,-3.5000,-0.0010,32.2584,29.6095,0.0200,0.0700
11.4020,40.9365,4.2859,-0.0000,0.0000,0.1200,0.4200,0.0000,0.0000,-0.1573,-0.3497,-0.0005,998,1504,1507,1501,2008,1000,1505,1000,1000,1009,1005,1000,1013,-0.0329,0.1248,0.0202,-0.0179,0.0045,1.0020,0.1920,0.5074,-0.1929,-0.5065,0.8627,0.2400,0.1321,0.8627,0.2400,0.1321,0.3000,0.0600,0.0002,0,-0.9243,-3.5000,-0.0010,-0.9243,-3.5000,-0.0010,32.2242,29.5885,0.0200,0.0700
11.3876,40.9004,4.2771,0.0829,0.0000,0.1200,0.4200,0.0000,0.0000,-0.1572,-0.3493,-0.0006,996,1502,1507,1500,2008,1000,1505,1000,1000,1009,1005,1000,1013,-0.0093,0.0261,0.0825,-0.0209,0.0082,0.9963,0.1914,0.5071,-0.1927,-0.5058,0.8627,0.2400,0.1321,0.8627,0.2400,0.1321,0.3000,0.0600,0.0002,0,-0.9243,-3.5000,-0.0010,-0.9243,-3.5000,-0.0010,32.1896,29.5668,0.0200,0.0700
11.3732,40.8641,4.2683,0.0829,0.0821,0.1200,0.4200,0.0000,0.0000,-0.1571,-0.3489,-0.0005,996,1502,1507,1500,2008,1000,1505,1000,1000,1009,1005,1000,1013,-0.0054,0.0253,0.0235,-0.0157,0.0068,1.0008,0.1913,0.5065,-0.1924,-0.5055,0.8627,0.2400,0.1321,0.8627,0.2400,0.1321,0.3000,0.0600,0.0002,0,-0.9243,-3.5000,-0.0010,-0.9243,-3.5000,-0.0010,32.1553,29.5452,0.0200,0.0700
11.3586,40.8271,4.2586,-0.0000,0.0000,0.1200,0.4200,0.0000,0.0000,-0.1569,-0.3486,-0.0007,996,1502,1507,1500,2008,1000,1505,1000,1000,1009,1005,1000,1013,-0.0066,-0.0113,0.0636,-0.0169,0.0064,0.9964,0.1909,0.5062,-0.1924,-0.5048,0.8627,0.2400,0.1321,0.8627,0.2400,0.1321,0.3000,0.0600,0.0002,0,-0.9243,-3.5000,-0.0010,-0.9243,-3.5000,-0.0010,32.1203,29.5233,0.0200,0.0700
11.3443,40.7905,4.2498,-0.0000,0.0000,0.1200,0.4200,0.0000,0.0000,-0.1568,-0.3483,-0.0005,996,1502,1507,1500,2008,1000,1505,1000,1000,1009,1005,1000,1013,0.0065,-0.0017,0.0014,-0.0172,0.0076,1.0045,0.1910,0.5056,-0.1919,-0.5046,0.8627,0.2400,0.1321,0.8627,0.2400,0.1321,0.3000,0.0600,0.0002,0,-0.9243,-3.5000,-0.0010,-0.9243,-3.5000,-0.0010,32.0854,29.5018,0.0200,0.0700
11.3303,40.7535,4.2405,0.0829,0.0000,0.1200,0.4200,0.0000,0.0000,-0.1567,-0.3479,-0.0005,996,1502,1507,1500,2008,1000,1505,1000,1000,1009,1005,1000,1013,0.0180,-0.0624,0.0156,-0.0176,0.0044,1.0017,0.1906,0.5051,-0.1917,-0.5041,0.8627,0.2400,0.1321,0.8627,0.2400,0.1321,0.3000,0.0600,0.0002,0,-0.9243,-3.5000,-0.0010,-0.9243,-3.5000,-0.0010,32.0506,29.4799,0.0200,0.0700
11.3158,40.7169,4.2308,-0.0829,0.0821,0.1200,0.4200,0.0000,0.0000,-0.1566,-0.3476,-0.0003,998,1504,1507,1501,2008,1000,1505,1000,1000,1009,1005,1000,1013,-0.0135,-0.0003,-0.0589,-0.0155,0.0070,0.9962,0.1908,0.5045,-0.1914,-0.5039,0.8627,0.2400,0.1321,0.8627,0.2400,0.1321,0.3000,0.0600,0.0002,0,-0.9243,-3.5000,-0.0010,-0.9243,-3.5000,-0.0010,32.0155,29.4582,0.0200,0.0700
11.3012,40.6806,4.2213,0.0829,0.0000,0.1200,0.4200,0.0000,0.0000,-0.1565,-0.3475,-0.0006,996,1502,1507,1500,2008,1000,1505,1000,1000,1009,1005,1000,1013,0.0367,0.1077,0.0242,-0.0227,0.0087,1.0009,0.1904,0.5045,-0.1915,-0.5034,0.8627,0.2400,0.1321,0.8627,0.2400,0.1321,0.3000,0.0600,0.0002,0,-0.9243,-3.5000,-0.0010,-0.9243,-3.5000,-0.0010,31.9799,29.4369,0.0200,0.0700
11.2870,40.6442,4.2123,0.0829,0.0821,0.1200,0.4200,0.0000,0.0000,-0.1564,-0.3470,-0.0006,996,1502,1507,1500,2008,1000,1505,1000,1000,1009,1005,1000,1013,0.0355,-0.0034,0.0379,-0.0173,0.0067,1.0019,0.1900,0.5040,-0.1912,-0.5028,0.8627,0.2400,0.1321,0.8627,0.2400,0.1321,0.3000,0.0600,0.0002,0,-0.9243,-3.5000,-0.0010,-0.9243,-3.5000,-0.0010,31.9444,29.4153,0.0200,0.0700
11.2728,40.6077,4.2031,0.0829,0.0000,0.1200,0.4200,0.0000,0.0000,-0.1562,-0.3467,-0.0003,996,1502,1507,1500,2008,1000,1505,1000,1000,1009,1005,1000,1013,0.0072,0.0289,-0.0490,-0.0180,0.0051,1.0030,0.1902,0.5033,-0.1908,-0.5027,0.8627,0.2400,0.1321,0.8627,0.2400,0.1321,0.3000,0.0600,0.0002,0,-0.9243,-3.5000,-0.0010,-0.9243,-3.5000,-0.0010,31.9087,29.3936,0.0200,0.0700
11.2583,40.5715,4.1937,0.2486,-0.0821,0.1200,0.4200,0.0000,0.0000,-0.1561,-0.3464,-0.0005,996,1502,1507,1500,2008,1000,1505,1000,1000,1009,1005,1000,1013,0.0322,-0.0145,0.0177,-0.0178,0.0062,0.9975,0.1897,0.5030,-0.1908,-0.5020,0.8627,0.2400,0.1321,0.8627,0.2400,0.1321,0.3000,0.0600,0.0002,0,-0.9243,-3.5000,-0.0010,-0.9243,-3.5000,-0.0010,31.8736,29.3715,0.0200,0.0700
11.2440,40.5348,4.1843,-0.0000,0.0000,0.1200,0.4200,0.0000,0.0000,-0.1559,-0.3461,-0.0006,996,1502,1507,1500,2008,1000,1505,1000,1000,1009,1005,1000,1013,-0.0129,0.0271,0.0373,-0.0190,0.0060,0.9986,0.1896,0.5027,-0.1908,-0.5015,0.8627,0.2400,0.1321,0.8627,0.2400,0.1321,0.3000,0.0600,0.0002,0,-0.9243,-3.5000,-0.0010,-0.9243,-3.5000,-0.0010,31.8388,29.3496,0.0200,0.0700
11.2297,40.4980,4.1753,-0.0829,0.0000,0.1200,0.4200,0.0000,0.0000,-0.1558,-0.3458,-0.0006,998,1504,1507,1501,2008,1000,1505,1000,1000,1009,1005,1000,1013,-0.0265,0.0146,0.0531,-0.0177,0.0054,0.9987,0.1893,0.5022,-0.1906,-0.5009,0.8627,0.2400,0.1321,0.8627,0.2400,0.1321,0.3000,0.0600,0.0002,0,-0.9243,-3.5000,-0.0010,-0.9243,-3.5000,-0.0010,31.8042,29.3282,0.0200,0.0700
11.2155,40.4609,4.1663,0.0829,-0.0821,0.1200,0.4200,0.0000,0.0000,-0.1557,-0.3454,-0.0007,996,1502,1507,1500,2008,1000,1505,1000,1000,1009,1005,1000,1013,0.0081,-0.0152,0.0625,-0.0173,0.0079,1.0037,0.1889,0.5019,-0.1904,-0.5004,0.8627,0.2400,0.1321,0.8627,0.2400,0.1321,0.3000,0.0600,0.0002,0,-0.9243,-3.5000,-0.0010,-0.9243,-3.5000,-0.0010,31.7688,29.3063,0.0200,0.0700
11.2017,40.4245,4.1576,-0.0829,-0.0821,0.1200,0.4200,0.0000,0.0000,-0.1556,-0.3452,-0.0005,996,1502,1507,1500,2008,1000,1505,1000,1000,1009,1005,1000,1013,-0.0065,0.0440,-0.0040,-0.0162,0.0056,0.9999,0.1891,0.5012,-0.1900,-0.5003,0.8627,0.2400,0.1321,0.8627,0.2400,0.1321,0.3000,0.0600,0.0002,0,-0.9243,-3.5000,-0.0010,-0.9243,-3.5000,-0.0010,31.7337,29.2845,0.0200,0.0700
11.1870,40.3884,4.1483,-0.0000,0.0000,0.1200,0.4200,0.0000,0.0000,-0.1554,-0.3448,-0.0004,996,1502,1507,1500,2008,1000,1505,1000,1000,1009,1005,1000,1013,-0.0728,0.0176,-0.0155,-0.0176,0.0067,1.0003,0.1890,0.5006,-0.1899,-0.4998,0.8627,0.2400,0.1321,0.8627,0.2400,0.1321,0.3000,0.0600,0.0002,0,-0.9243,-3.5000,-0.0010,-0.9243,-3.5000,-0.0010,31.6989,29.2619,0.0200,0.0700
11.1725,40.3521,4.1389,0.0829,0.0000,0.1200,0.4200,0.0000,0.0000,-0.1553,-0.3445,-0.0006,996,1502,1507,1500,2008,1000,1505,1000,1000,1009,1005,1000,1013,-0.0402,-0.0047,0.0408,-0.0208,0.0039,0.9943,0.1885,0.5004,-0.1898,-0.4991,0.8627,0.2400,0.1321,0.8627,0.2400,0.1321,0.3000,0.0600,0.0002,0,-0.9243,-3.5000,-0.0010,-0.9243,-3.5000,-0.0010,31.6639,29.2396,0.0200,0.0700
11.1575,40.3152,4.1297,-0.0000,0.0821,0.1200,0.4200,0.0000,0.0000,-0.1551,-0.3442,-0.0005,996,1502,1507,1500,2008,1000,1505,1000,1000,1009,1005,1000,1013,-0.0594,-0.0127,0.0055,-0.0158,0.0052,0.9971,0.1885,0.4998,-0.1895,-0.4988,0.8627,0.2400,0.1321,0.8627,0.2400,0.1321,0.3000,0.0600,0.0002,0,-0.9243,-3.5000,-0.0010,-0.9243,-3.5000,-0.0010,31.6293,29.2179,0.0200,0.0700
11.1429,40.2783,4.1202,-0.0000,0.0000,0.1200,0.4200,0.0000,0.0000,-0.1551,-0.3438,-0.0005,998,1504,1507,1501,2008,1000,1505,1000,1000,1009,1005,1000,1013,0.0314,-0.0210,0.0252,-0.0192,0.0081,1.0017,0.1882,0.4995,-0.1892,-0.4984,0.8627,0.2400,0.1321,0.8627,0.2400,0.1321,0.3000,0.0600,0.0002,0,-0.9243,-3.5000,-0.0010,-0.9243,-3.5000,-0.0010,31.5948,29.1953,0.0200,0.0700
11.1286,40.2414,4.1113,-0.0000,0.0821,0.1200,0.4200,0.0000,0.0000,-0.1550,-0.3436,-0.0008,996,1502,1507,1500,2008,1000,1505,1000,1000,1009,1005,1000,1013,0.0207,0.0162,0.0936,-0.0200,0.0061,0.9996,0.1878,0.4993,-0.1893,-0.4978,0.8627,0.2400,0.1321,0.8627,0.2400,0.1321,0.3000,0.0600,0.0002,0,-0.9243,-3.5000,-0.0010,-0.9243,-3.5000,-0.0010,31.5598,29.1728,0.0200,0.0700
11.1152,40.2039,4.1034,-0.0000,0.0821,0.1200,0.4200,0.0000,0.0000,-0.1549,-0.3431,-0.0009,996,1502,1507,1500,2008,1000,1505,1000,1000,1009,1005,1000,1013,0.0288,-0.0884,0.1330,-0.0151,0.0054,1.0034,0.1873,0.4989,-0.1891,-0.4971,0.8627,0.2400,0.1321,0.8627,0.2400,0.1321,0.3000,0.0600,0.0002,0,-0.9243,-3.5000,-0.0010,-0.9243,-3.5000,-0.0010,31.5247,29.1508,0.0200,0.0700
11.1013,40.1667,4.0952,0.0829,0.0000,0.1200,0.4200,0.0000,0.0000,-0.1547,-0.3429,-0.0005,996,1502,1507,1500,2008,1000,1505,1000,1000,1009,1005,1000,1013,-0.0440,0.0087,0.0094,-0.0160,0.0059,0.9981,0.1878,0.4981,-0.1887,-0.4971,0.8627,0.2400,0.1321,0.8627,0.2400,0.1321,0.3000,0.0600,0.0002,0,-0.9243,-3.5000,-0.0010,-0.9243,-3.5000,-0.0010,31.4897,29.1282,0.0200,0.0700
11.0873,40.1303,4.0864,0.0829,0.0000,0.1200,0.4200,0.0000,0.0000,-0.1546,-0.3427,-0.0006,996,1502,1507,1500,2008,1000,1505,1000,1000,1009,1005,1000,1013,0.0114,0.0783,0.0369,-0.0205,0.0078,0.9992,0.1875,0.4979,-0.1886,-0.4967,0.8627,0.2400,0.1321,0.8627,0.2400,0.1321,0.3000,0.0600,0.0002,0,-0.9243,-3.5000,-0.0010,-0.9243,-3.5000,-0.0010,31.4550,29.1054,0.0200,0.0700
11.0729,40.0938,4.0774,-0.0000,0.0000,0.1200,0.4200,0.0000,0.0000,-0.1545,-0.3423,-0.0005,996,1502,1507,1500,2008,1000,1505,1000,1000,1009,1005,1000,1013,0.0225,0.0196,0.0077,-0.0180,0.0056,1.0029,0.1873,0.4973,-0.1883,-0.4963,0.8627,0.2400,0.1321,0.8627,0.2400,0.1321,0.3000,0.0600,0.0002,0,-0.9243,-3.5000,-0.0010,-0.9243,-3.5000,-0.0010,31.4192,29.0836,0.0200,0.0700
11.0581,40.0566,4.0680,0.0829,0.0000,0.1200,0.4200,0.0000,0.0000,-0.1543,-0.3419,-0.0004,998,1504,1507,1501,2008,1000,1505,1000,1000,1009,1005,1000,1013,-0.0145,-0.0222,-0.0258,-0.0182,0.0050,0.9984,0.1872,0.4967,-0.1880,-0.4959,0.8627,0.2400,0.1321,0.8627,0.2400,0.1321,0.3000,0.0600,0.0002,0,-0.9243,-3.5000,-0.0010,-0.9243,-3.5000,-0.0010,31.3838,29.0615,0.0200,0.0700
11.0435,40.0198,4.0586,-0.0000,0.0000,0.1200,0.4200,0.0000,0.0000,-0.1542,-0.3417,-0.0005,996,1502,1507,1500,2008,1000,1505,1000,1000,1009,1005,1000,1013,0.0073,0.0362,0.0129,-0.0175,0.0052,0.9991,0.1869,0.4964,-0.1879,-0.4954,0.8627,0.2400,0.1321,0.8627,0.2400,0.1321,0.3000,0.0600,0.0002,0,-0.9243,-3.5000,-0.0010,-0.9243,-3.5000,-0.0010,31.3484,29.0390,0.0200,0.0700
