roll_imu,pitch_imu,yaw_imu,alpha,beta,roll_des,pitch_des,yaw_des,throttle_des,roll_pid,pitch_pid,yaw_pid,radio_ch1,radio_ch2,radio_ch3,radio_ch4,radio_ch5,radio_ch6,radio_ch7,radio_ch8,radio_ch9,radio_ch10,radio_ch11,radio_ch12,radio_ch13,GyroX,GyroY,GyroZ,AccX,AccY,AccZ,s1_command,s2_command,s3_command,s4_command,kp_roll,ki_roll,kd_roll,kp_pitch,ki_pitch,kd_pitch,kp_yaw,ki_yaw,kd_yaw,failsafeTriggered,kp_alphaRoll,ki_alphaRoll,kd_alphaRoll,kp_betaPitch,ki_betaPitch,kd_betaPitch,ripIMU_roll,ripIMU_pitch,ripRoll_des,ripPitch_des
0.0000,0.0000,0.0000,-28.3425,13.8304,0.0000,0.0000,0.0000,0.0000,0.0000,0.0000,0.0000,1000,1500,1500,1500,2000,1000,1000,1000,1500,1500,1500,1500,1500,0.0000,0.0000,0.0000,0.0000,0.0000,0.0000,0.0000,0.0000,0.0000,0.0000,0.3000,0.0100,0.0700,0.3000,0.0100,0.0700,0.3000,0.0600,0.0002,0,-0.3000,-100.0000,-0.0010,-0.3000,-100.0000,-0.0010,0.0000,0.0000,0.0000,0.0000
27.3353,13.4571,3.2383,-0.1657,0.0821,0.0000,-8.0400,-42.8800,0.0000,-0.1864,-0.0653,-0.1289,910,1369,1366,1366,2008,1000,1505,1505,1505,1006,2008,1000,1014,0.1073,0.0272,0.0378,-0.0320,0.0643,0.9364,-0.2500,0.3806,-0.0079,-0.1227,0.3036,0.4132,0.0700,0.3036,0.4132,0.0700,0.3000,0.0600,0.0002,0,-0.3000,-100.0000,-0.0010,-0.3000,-100.0000,-0.0010,7.1590,29.8144,-1.3100,-1.3400
27.2962,13.4395,3.2290,-0.0829,0.0000,0.0000,-8.0400,-42.8800,0.0000,-0.1862,-0.0652,-0.1292,973,1464,1461,1461,2008,1000,1505,1505,1505,1006,2008,1000,1014,0.0258,-0.0355,0.0092,-0.0344,0.0702,0.9893,-0.2502,0.3805,-0.0082,-0.1222,0.3036,0.4132,0.0700,0.3036,0.4132,0.0700,0.3000,0.0600,0.0002,0,-0.3000,-100.0000,-0.0010,-0.3000,-100.0000,-0.0010,7.1920,29.8574,-1.3100,-1.3400
27.2570,13.4217,3.2200,-0.0829,0.1642,0.0000,-0.7800,-3.2000,0.0000,-0.1861,-0.0431,-0.0102,991,1490,1487,1490,2008,1000,1505,1505,1505,1006,2008,1000,1013,0.0692,-0.0086,0.0113,-0.0346,0.0714,0.9916,-0.1532,0.2394,0.1328,-0.2190,0.3036,0.4132,0.0700,0.3036,0.4132,0.0700,0.3000,0.0600,0.0002,0,-0.3000,-100.0000,-0.0010,-0.3000,-100.0000,-0.0010,7.2262,29.9003,-0.1000,-0.1300
27.2180,13.4041,3.2116,-0.0000,0.0000,0.0000,-0.1800,-0.9600,0.0000,-0.1860,-0.0413,-0.0037,996,1500,1497,1497,2008,1000,1505,1505,1505,1006,2008,1000,1013,0.0887,0.0284,0.0934,-0.0354,0.0731,0.9872,-0.1484,0.2310,0.1410,-0.2235,0.3036,0.4132,0.0700,0.3036,0.4132,0.0700,0.3000,0.0600,0.0002,0,-0.3000,-100.0000,-0.0010,-0.3000,-100.0000,-0.0010,7.2605,29.9433,0.0000,-0.0300
27.1789,13.3863,3.2025,-0.0000,0.0821,0.0000,0.0000,0.0000,0.0000,-0.1858,-0.0406,-0.0007,996,1502,1500,1500,2008,1000,1505,1505,1505,1006,2008,1000,1013,0.0329,-0.0457,0.0266,-0.0346,0.0678,0.9901,-0.1459,0.2271,0.1446,-0.2258,0.3036,0.4132,0.0700,0.3036,0.4132,0.0700,0.3000,0.0600,0.0002,0,-0.3000,-100.0000,-0.0010,-0.3000,-100.0000,-0.0010,7.2949,29.9862,0.0200,0.0000
27.1393,13.3683,3.1933,-0.0829,0.1642,0.0000,0.0000,0.6400,0.0000,-0.1857,-0.0406,0.0013,996,1502,1500,1502,2008,1000,1505,1505,1505,1006,2008,1000,1013,0.0115,-0.0074,0.0324,-0.0308,0.0707,0.9887,-0.1439,0.2250,0.1464,-0.2276,0.3036,0.4132,0.0700,0.3036,0.4132,0.0700,0.3000,0.0600,0.0002,0,-0.3000,-100.0000,-0.0010,-0.3000,-100.0000,-0.0010,7.3293,30.0290,0.0200,0.0000
27.1001,13.3500,3.1843,-0.0829,0.0821,0.0000,0.0000,0.6400,0.0000,-0.1856,-0.0405,0.0014,996,1502,1500,1502,2008,1000,1505,1505,1505,1006,2008,1000,1013,0.0222,-0.0813,-0.0099,-0.0335,0.0709,0.9929,-0.1437,0.2246,0.1466,-0.2275,0.3036,0.4132,0.0700,0.3036,0.4132,0.0700,0.3000,0.0600,0.0002,0,-0.3000,-100.0000,-0.0010,-0.3000,-100.0000,-0.0010,7.3636,30.0719,0.0200,0.0000
27.0604,13.3325,3.1741,-0.0000,0.0000,0.0000,0.0000,0.6400,0.0000,-0.1855,-0.0405,0.0015,998,1504,1501,1502,2008,1000,1505,1505,1505,1006,2008,1000,1014,0.0412,0.0074,-0.0603,-0.0337,0.0699,0.9956,-0.1435,0.2244,0.1465,-0.2275,0.3036,0.4132,0.0700,0.3036,0.4132,0.0700,0.3000,0.0600,0.0002,0,-0.3000,-100.0000,-0.0010,-0.3000,-100.0000,-0.0010,7.3980,30.1148,0.0200,0.0000
27.0213,13.3152,3.1655,-0.1657,0.1642,0.0000,0.0000,0.6400,0.0000,-0.1854,-0.0405,0.0013,996,1502,1500,1502,2008,1000,1505,1505,1505,1006,2008,1000,1014,0.0811,0.1129,0.0311,-0.0342,0.0708,0.9929,-0.1436,0.2246,0.1462,-0.2272,0.3036,0.4132,0.0700,0.3036,0.4132,0.0700,0.3000,0.0600,0.0002,0,-0.3000,-100.0000,-0.0010,-0.3000,-100.0000,-0.0010,7.4323,30.1576,0.0200,0.0000
26.9826,13.2980,3.1571,-0.0829,0.0821,0.0000,0.0000,0.6400,0.0000,-0.1853,-0.0404,0.0012,996,1502,1500,1502,2008,1000,1505,1505,1505,1006,2008,1000,1013,0.0931,0.0404,0.0818,-0.0351,0.0738,0.9951,-0.1437,0.2245,0.1461,-0.2269,0.3036,0.4132,0.0700,0.3036,0.4132,0.0700,0.3000,0.0600,0.0002,0,-0.3000,-100.0000,-0.0010,-0.3000,-100.0000,-0.0010,7.4667,30.2003,0.0200,0.0000
26.9436,13.2805,3.1491,-0.0829,0.0000,0.0000,0.0000,0.6400,0.0000,-0.1851,-0.0404,0.0012,996,1502,1500,1502,2008,1000,1505,1505,1505,1006,2008,1000,1013,0.0490,0.0929,0.0783,-0.0342,0.0700,0.9933,-0.1436,0.2244,0.1459,-0.2267,0.3036,0.4132,0.0700,0.3036,0.4132,0.0700,0.3000,0.0600,0.0002,0,-0.3000,-100.0000,-0.0010,-0.3000,-100.0000,-0.0010,7.5011,30.2431,0.0200,0.0000
26.9044,13.2625,3.1402,-0.0829,0.1642,0.0000,0.0000,0.6400,0.0000,-0.1850,-0.0402,0.0013,996,1502,1500,1502,2008,1000,1505,1505,1505,1006,2008,1000,1013,0.0955,-0.0423,0.0286,-0.0354,0.0686,0.9959,-0.1435,0.2240,0.1461,-0.2266,0.3036,0.4132,0.0700,0.3036,0.4132,0.0700,0.3000,0.0600,0.0002,0,-0.3000,-100.0000,-0.0010,-0.3000,-100.0000,-0.0010,7.5355,30.2859,0.0200,0.0000
26.8651,13.2443,3.1307,-0.1657,0.0821,0.0000,0.0000,0.6400,0.0000,-0.1849,-0.0402,0.0014,996,1502,1500,1502,2008,1000,1505,1505,1505,1006,2008,1000,1013,0.0406,-0.0591,-0.0134,-0.0328,0.0686,0.9893,-0.1433,0.2236,0.1461,-0.2265,0.3036,0.4132,0.0700,0.3036,0.4132,0.0700,0.3000,0.0600,0.0002,0,-0.3000,-100.0000,-0.0010,-0.3000,-100.0000,-0.0010,7.5699,30.3287,0.0200,0.0000
26.8259,13.2264,3.1217,-0.0000,0.0821,0.0000,0.0000,0.6400,0.0000,-0.1848,-0.0402,0.0012,998,1504,1501,1502,2008,1000,1505,1505,1505,1006,2008,1000,1013,0.0112,-0.0002,0.0509,-0.0324,0.0697,0.9916,-0.1434,0.2237,0.1458,-0.2261,0.3036,0.4132,0.0700,0.3036,0.4132,0.0700,0.3000,0.0600,0.0002,0,-0.3000,-100.0000,-0.0010,-0.3000,-100.0000,-0.0010,7.6043,30.3715,0.0200,0.0000
26.7865,13.2080,3.1128,-0.0829,0.0821,0.0000,0.0000,0.6400,0.0000,-0.1846,-0.0400,0.0013,996,1502,1500,1502,2008,1000,1505,1505,1505,1006,2008,1000,1013,-0.0109,-0.1193,0.0492,-0.0302,0.0680,0.9984,-0.1433,0.2233,0.1459,-0.2259,0.3036,0.4132,0.0700,0.3036,0.4132,0.0700,0.3000,0.0600,0.0002,0,-0.3000,-100.0000,-0.0010,-0.3000,-100.0000,-0.0010,7.6387,30.4142,0.0200,0.0000
26.7472,13.1895,3.1046,-0.0829,0.1642,0.0000,0.0000,0.6400,0.0000,-0.1845,-0.0401,0.0012,996,1502,1500,1502,2008,1000,1505,1505,1505,1006,2008,1000,1013,0.0361,0.0298,0.0875,-0.0334,0.0720,0.9967,-0.1433,0.2234,0.1456,-0.2258,0.3036,0.4132,0.0700,0.3036,0.4132,0.0700,0.3000,0.0600,0.0002,0,-0.3000,-100.0000,-0.0010,-0.3000,-100.0000,-0.0010,7.6731,30.4569,0.0200,0.0000
26.7078,13.1718,3.0959,-0.0829,0.1642,0.0000,0.0000,0.6400,0.0000,-0.1844,-0.0400,0.0016,996,1502,1500,1502,2008,1000,1505,1505,1505,1006,2008,1000,1013,0.0073,0.0228,-0.0181,-0.0340,0.0679,0.9920,-0.1428,0.2228,0.1459,-0.2260,0.3036,0.4132,0.0700,0.3036,0.4132,0.0700,0.3000,0.0600,0.0002,0,-0.3000,-100.0000,-0.0010,-0.3000,-100.0000,-0.0010,7.7075,30.4996,0.0200,0.0000
26.6683,13.1544,3.0866,-0.1657,0.1642,0.0000,0.0000,0.6400,0.0000,-0.1843,-0.0399,0.0015,996,1502,1500,1502,2008,1000,1505,1505,1505,1006,2008,1000,1013,0.0698,-0.0054,-0.0205,-0.0358,0.0723,0.9854,-0.1429,0.2228,0.1458,-0.2257,0.3036,0.4132,0.0700,0.3036,0.4132,0.0700,0.3000,0.0600,0.0002,0,-0.3000,-100.0000,-0.0010,-0.3000,-100.0000,-0.0010,7.7419,30.5423,0.0200,0.0000
26.6290,13.1365,3.0775,-0.0000,0.0821,0.0000,0.0000,0.6400,0.0000,-0.1842,-0.0399,0.0015,996,1502,1500,1502,2008,1000,1505,1505,1505,1006,2008,1000,1013,0.0178,-0.0198,-0.0160,-0.0313,0.0707,0.9911,-0.1428,0.2225,0.1458,-0.2255,0.3036,0.4132,0.0700,0.3036,0.4132,0.0700,0.3000,0.0600,0.0002,0,-0.3000,-100.0000,-0.0010,-0.3000,-100.0000,-0.0010,7.7763,30.5850,0.0200,0.0000
26.5895,13.1185,3.0679,-0.0000,0.0821,0.0000,0.0000,0.6400,0.0000,-0.1840,-0.0398,0.0014,998,1504,1501,1502,2008,1000,1505,1505,1505,1006,2008,1000,1013,0.0141,-0.0455,-0.0070,-0.0336,0.0712,0.9908,-0.1428,0.2224,0.1457,-0.2253,0.3036,0.4132,0.0700,0.3036,0.4132,0.0700,0.3000,0.0600,0.0002,0,-0.3000,-100.0000,-0.0010,-0.3000,-100.0000,-0.0010,7.8107,30.6277,0.0200,0.0000
26.5502,13.1000,3.0587,-0.1657,0.0000,0.0000,0.0000,0.6400,0.0000,-0.1839,-0.0397,0.0012,996,1502,1500,1502,2008,1000,1505,1505,1505,1006,2008,1000,1013,0.0061,-0.0916,0.0631,-0.0318,0.0702,0.9915,-0.1430,0.2224,0.1454,-0.2249,0.3036,0.4132,0.0700,0.3036,0.4132,0.0700,0.3000,0.0600,0.0002,0,-0.3000,-100.0000,-0.0010,-0.3000,-100.0000,-0.0010,7.8451,30.6704,0.0200,0.0000
26.5108,13.0819,3.0499,-0.0829,0.0821,0.0000,0.0000,0.6400,0.0000,-0.1838,-0.0397,0.0011,996,1502,1500,1502,2008,1000,1505,1505,1505,1006,2008,1000,1014,0.0634,-0.0278,0.0984,-0.0337,0.0710,0.9906,-0.1430,0.2224,0.1452,-0.2246,0.3036,0.4132,0.0700,0.3036,0.4132,0.0700,0.3000,0.0600,0.0002,0,-0.3000,-100.0000,-0.0010,-0.3000,-100.0000,-0.0010,7.8796,30.7131,0.0200,0.0000
26.4712,13.0634,3.0415,-0.0000,0.1642,0.0000,0.0000,0.6400,0.0000,-0.1837,-0.0396,0.0012,996,1502,1500,1502,2008,1000,1505,1505,1505,1006,2008,1000,1014,0.0556,-0.0474,0.0604,-0.0324,0.0685,0.9947,-0.1428,0.2221,0.1453,-0.2246,0.3036,0.4132,0.0700,0.3036,0.4132,0.0700,0.3000,0.0600,0.0002,0,-0.3000,-100.0000,-0.0010,-0.3000,-100.0000,-0.0010,7.9140,30.7558,0.0200,0.0000
26.4317,13.0452,3.0332,-0.0829,0.0821,0.0000,0.0000,0.6400,0.0000,-0.1835,-0.0396,0.0013,996,1502,1500,1502,2008,1000,1505,1505,1505,1006,2008,1000,1013,-0.0406,0.0624,0.0447,-0.0299,0.0704,0.9916,-0.1426,0.2219,0.1452,-0.2245,0.3036,0.4132,0.0700,0.3036,0.4132,0.0700,0.3000,0.0600,0.0002,0,-0.3000,-100.0000,-0.0010,-0.3000,-100.0000,-0.0010,7.9485,30.7985,0.0200,0.0000
26.3922,13.0271,3.0247,-0.0000,0.0821,0.0000,0.0000,0.6400,0.0000,-0.1835,-0.0395,0.0012,996,1502,1500,1502,2008,1000,1505,1505,1505,1006,2008,1000,1013,0.0452,-0.0208,0.0828,-0.0308,0.0697,0.9894,-0.1427,0.2218,0.1451,-0.2242,0.3036,0.4132,0.0700,0.3036,0.4132,0.0700,0.3000,0.0600,0.0002,0,-0.3000,-100.0000,-0.0010,-0.3000,-100.0000,-0.0010,7.9829,30.8411,0.0200,0.0000
26.3525,13.0090,3.0161,-0.0829,0.1642,0.0000,0.0000,0.6400,0.0000,-0.1833,-0.0395,0.0014,998,1504,1501,1502,2008,1000,1505,1505,1505,1006,2008,1000,1013,0.0286,0.0050,0.0200,-0.0358,0.0698,0.9914,-0.1424,0.2214,0.1452,-0.2242,0.3036,0.4132,0.0700,0.3036,0.4132,0.0700,0.3000,0.0600,0.0002,0,-0.3000,-100.0000,-0.0010,-0.3000,-100.0000,-0.0010,8.0174,30.8838,0.0200,0.0000
26.3123,12.9908,3.0071,-0.0829,0.0000,0.0000,0.0000,0.6400,0.0000,-0.1832,-0.0393,0.0013,996,1502,1500,1502,2008,1000,1505,1505,1505,1006,2008,1000,1013,-0.0299,-0.1296,0.0581,-0.0343,0.0683,0.9910,-0.1426,0.2213,0.1451,-0.2238,0.3036,0.4132,0.0700,0.3036,0.4132,0.0700,0.3000,0.0600,0.0002,0,-0.3000,-100.0000,-0.0010,-0.3000,-100.0000,-0.0010,8.0518,30.9264,0.0200,0.0000
26.2724,12.9722,2.9980,-0.0829,0.0821,0.0000,0.0000,0.6400,0.0000,-0.1831,-0.0393,0.0013,996,1502,1500,1502,2008,1000,1505,1505,1505,1006,2008,1000,1013,0.0258,-0.0767,0.0349,-0.0337,0.0701,0.9885,-0.1424,0.2211,0.1451,-0.2237,0.3036,0.4132,0.0700,0.3036,0.4132,0.0700,0.3000,0.0600,0.0002,0,-0.3000,-100.0000,-0.0010,-0.3000,-100.0000,-0.0010,8.0863,30.9690,0.0200,0.0000
26.2326,12.9545,2.9893,-0.0829,0.0821,0.0000,0.0000,0.6400,0.0000,-0.1829,-0.0394,0.0016,996,1502,1500,1502,2008,1000,1505,1505,1505,1006,2008,1000,1013,-0.0294,0.0642,-0.0340,-0.0334,0.0704,0.9902,-0.1420,0.2207,0.1451,-0.2239,0.3036,0.4132,0.0700,0.3036,0.4132,0.0700,0.3000,0.0600,0.0002,0,-0.3000,-100.0000,-0.0010,-0.3000,-100.0000,-0.0010,8.1207,31.0116,0.0200,0.0000
26.1927,12.9368,2.9798,-0.0829,0.1642,0.0000,0.0000,0.6400,0.0000,-0.1828,-0.0393,0.0016,996,1502,1500,1502,2008,1000,1505,1505,1505,1006,2008,1000,1013,0.0096,-0.0350,-0.0493,-0.0352,0.0698,0.9920,-0.1420,0.2205,0.1452,-0.2237,0.3036,0.4132,0.0700,0.3036,0.4132,0.0700,0.3000,0.0600,0.0002,0,-0.3000,-100.0000,-0.0010,-0.3000,-100.0000,-0.0010,8.1552,31.0542,0.0200,0.0000
26.1532,12.9191,2.9705,-0.0000,0.1642,0.0000,0.0000,0.6400,0.0000,-0.1828,-0.0393,0.0016,996,1502,1500,1502,2008,1000,1505,1505,1505,1006,2008,1000,1013,0.0793,0.0426,-0.0351,-0.0353,0.0703,0.9898,-0.1420,0.2205,0.1451,-0.2236,0.3036,0.4132,0.0700,0.3036,0.4132,0.0700,0.3000,0.0600,0.0002,0,-0.3000,-100.0000,-0.0010,-0.3000,-100.0000,-0.0010,8.1897,31.0968,0.0200,0.0000
26.1135,12.9016,2.9615,-0.0000,0.1642,0.0000,0.0000,0.6400,0.0000,-0.1826,-0.0392,0.0015,998,1504,1501,1502,2008,1000,1505,1505,1505,1006,2008,1000,1013,0.0034,0.0132,-0.0221,-0.0367,0.0682,0.9907,-0.1419,0.2202,0.1449,-0.2233,0.3036,0.4132,0.0700,0.3036,0.4132,0.0700,0.3000,0.0600,0.0002,0,-0.3000,-100.0000,-0.0010,-0.3000,-100.0000,-0.0010,8.2242,31.1394,0.0200,0.0000
26.0741,12.8840,2.9533,-0.0829,0.1642,0.0000,0.0000,0.6400,0.0000,-0.1825,-0.0391,0.0012,996,1502,1500,1502,2008,1000,1505,1505,1505,1006,2008,1000,1013,0.0311,0.0219,0.0937,-0.0371,0.0706,0.9898,-0.1421,0.2204,0.1446,-0.2228,0.3036,0.4132,0.0700,0.3036,0.4132,0.0700,0.3000,0.0600,0.0002,0,-0.3000,-100.0000,-0.0010,-0.3000,-100.0000,-0.0010,8.2587,31.1821,0.0200,0.0000
26.0348,12.8659,2.9446,-0.0000,0.0000,0.0000,0.0000,0.6400,0.0000,-0.1824,-0.0390,0.0014,996,1502,1500,1502,2008,1000,1505,1505,1505,1006,2008,1000,1014,0.0895,-0.0327,0.0135,-0.0342,0.0710,0.9891,-0.1419,0.2200,0.1448,-0.2229,0.3036,0.4132,0.0700,0.3036,0.4132,0.0700,0.3000,0.0600,0.0002,0,-0.3000,-100.0000,-0.0010,-0.3000,-100.0000,-0.0010,8.2932,31.2247,0.0200,0.0000
25.9956,12.8475,2.9354,-0.0829,0.0821,0.0000,0.0000,0.6400,0.0000,-0.1823,-0.0389,0.0014,996,1502,1500,1502,2008,1000,1505,1505,1505,1006,2008,1000,1014,0.1130,-0.0787,0.0100,-0.0382,0.0691,0.9927,-0.1419,0.2198,0.1448,-0.2227,0.3036,0.4132,0.0700,0.3036,0.4132,0.0700,0.3000,0.0600,0.0002,0,-0.3000,-100.0000,-0.0010,-0.3000,-100.0000,-0.0010,8.3277,31.2672,0.0200,0.0000
25.9564,12.8286,2.9264,-0.1657,0.0000,0.0000,0.0000,0.6400,0.0000,-0.1821,-0.0389,0.0014,996,1502,1500,1502,2008,1000,1505,1505,1505,1006,2008,1000,1013,0.0291,-0.0415,0.0111,-0.0316,0.0699,0.9907,-0.1418,0.2196,0.1447,-0.2225,0.3036,0.4132,0.0700,0.3036,0.4132,0.0700,0.3000,0.0600,0.0002,0,-0.3000,-100.0000,-0.0010,-0.3000,-100.0000,-0.0010,8.3622,31.3097,0.0200,0.0000
25.9167,12.8103,2.9174,-0.0829,0.1642,0.0000,0.0000,0.6400,0.0000,-0.1820,-0.0389,0.0013,996,1502,1500,1502,2008,1000,1505,1505,1505,1006,2008,1000,1013,0.0514,-0.0046,0.0502,-0.0359,0.0691,0.9919,-0.1418,0.2196,0.1444,-0.2222,0.3036,0.4132,0.0700,0.3036,0.4132,0.0700,0.3000,0.0600,0.0002,0,-0.3000,-100.0000,-0.0010,-0.3000,-100.0000,-0.0010,8.3967,31.3523,0.0200,0.0000
25.8768,12.7922,2.9087,-0.0829,0.0000,0.0000,0.0000,0.6400,0.0000,-0.1819,-0.0388,0.0014,998,1504,1501,1502,2008,1000,1505,1505,1505,1006,2008,1000,1014,0.0504,0.0156,0.0213,-0.0357,0.0693,0.9929,-0.1416,0.2193,0.1445,-0.2222,0.3036,0.4132,0.0700,0.3036,0.4132,0.0700,0.3000,0.0600,0.0002,0,-0.3000,-100.0000,-0.0010,-0.3000,-100.0000,-0.0010,8.4312,31.3948,0.0200,0.0000
25.8372,12.7744,2.9000,-0.0000,0.0821,0.0000,0.0000,0.6400,0.0000,-0.1817,-0.0388,0.0016,996,1502,1500,1502,2008,1000,1505,1505,1505,1006,2008,1000,1013,-0.0145,0.0579,-0.0199,-0.0312,0.0707,0.9922,-0.1413,0.2190,0.1445,-0.2221,0.3036,0.4132,0.0700,0.3036,0.4132,0.0700,0.3000,0.0600,0.0002,0,-0.3000,-100.0000,-0.0010,-0.3000,-100.0000,-0.0010,8.4657,31.4373,0.0200,0.0000
25.7970,12.7566,2.8916,-0.0000,0.1642,0.0000,0.0000,0.6400,0.0000,-0.1816,-0.0388,0.0012,996,1502,1500,1502,2008,1000,1505,1505,1505,1006,2008,1000,1013,-0.0116,0.0429,0.0892,-0.0350,0.0719,0.9913,-0.1416,0.2192,0.1441,-0.2216,0.3036,0.4132,0.0700,0.3036,0.4132,0.0700,0.3000,0.0600,0.0002,0,-0.3000,-100.0000,-0.0010,-0.3000,-100.0000,-0.0010,8.5002,31.4798,0.0200,0.0000
25.7570,12.7387,2.8832,-0.1657,0.0821,0.0000,0.0000,0.6400,0.0000,-0.1815,-0.0387,0.0016,996,1502,1500,1502,2008,1000,1505,1505,1505,1006,2008,1000,1013,-0.0124,0.0185,-0.0328,-0.0357,0.0701,0.9847,-0.1412,0.2186,0.1444,-0.2218,0.3036,0.4132,0.0700,0.3036,0.4132,0.0700,0.3000,0.0600,0.0002,0,-0.3000,-100.0000,-0.0010,-0.3000,-100.0000,-0.0010,8.5348,31.5223,0.0200,0.0000
25.7170,12.7197,2.8744,-0.1657,0.0821,0.0000,0.0000,0.6400,0.0000,-0.1814,-0.0386,0.0013,996,1502,1500,1502,2008,1000,1505,1505,1505,1006,2008,1000,1013,0.0084,-0.0942,0.0762,-0.0324,0.0708,0.9873,-0.1416,0.2187,0.1441,-0.2212,0.3036,0.4132,0.0700,0.3036,0.4132,0.0700,0.3000,0.0600,0.0002,0,-0.3000,-100.0000,-0.0010,-0.3000,-100.0000,-0.0010,8.5693,31.5649,0.0200,0.0000
25.6779,12.7006,2.8655,-0.0000,0.1642,0.0000,0.0000,0.6400,0.0000,-0.1813,-0.0385,0.0016,996,1502,1500,1502,2008,1000,1505,1505,1505,1006,2008,1000,1013,0.0525,-0.0569,-0.0204,-0.0338,0.0717,0.9853,-0.1412,0.2182,0.1444,-0.2214,0.3036,0.4132,0.0700,0.3036,0.4132,0.0700,0.3000,0.0600,0.0002,0,-0.3000,-100.0000,-0.0010,-0.3000,-100.0000,-0.0010,8.6038,31.6073,0.0200,0.0000
25.6384,12.6822,2.8567,-0.0000,0.0821,0.0000,0.0000,0.6400,0.0000,-0.1812,-0.0385,0.0014,998,1504,1501,1502,2008,1000,1505,1505,1505,1006,2008,1000,1014,0.0314,-0.0112,0.0435,-0.0351,0.0697,0.9925,-0.1412,0.2182,0.1441,-0.2211,0.3036,0.4132,0.0700,0.3036,0.4132,0.0700,0.3000,0.0600,0.0002,0,-0.3000,-100.0000,-0.0010,-0.3000,-100.0000,-0.0010,8.6384,31.6498,0.0200,0.0000
25.5991,12.6638,2.8483,-0.0000,0.0821,0.0000,0.0000,0.6400,0.0000,-0.1811,-0.0384,0.0012,996,1502,1500,1502,2008,1000,1505,1505,1505,1006,2008,1000,1014,0.0722,-0.0625,0.0906,-0.0331,0.0693,0.9907,-0.1414,0.2182,0.1439,-0.2207,0.3036,0.4132,0.0700,0.3036,0.4132,0.0700,0.3000,0.0600,0.0002,0,-0.3000,-100.0000,-0.0010,-0.3000,-100.0000,-0.0010,8.6729,31.6922,0.0200,0.0000
25.5594,12.6453,2.8397,-0.0000,0.0000,0.0000,0.0000,0.6400,0.0000,-0.1809,-0.0384,0.0014,996,1502,1500,1502,2008,1000,1505,1505,1505,1006,2008,1000,1014,0.0415,0.0409,0.0229,-0.0359,0.0681,0.9885,-0.1411,0.2179,0.1440,-0.2208,0.3036,0.4132,0.0700,0.3036,0.4132,0.0700,0.3000,0.0600,0.0002,0,-0.3000,-100.0000,-0.0010,-0.3000,-100.0000,-0.0010,8.7075,31.7346,0.0200,0.0000
25.5198,12.6276,2.8310,-0.0829,0.0821,0.0000,0.0000,0.6400,0.0000,-0.1808,-0.0384,0.0018,996,1502,1500,1502,2008,1000,1505,1505,1505,1006,2008,1000,1014,0.0256,0.0240,-0.0789,-0.0361,0.0725,0.9895,-0.1407,0.2174,0.1442,-0.2209,0.3036,0.4132,0.0700,0.3036,0.4132,0.0700,0.3000,0.0600,0.0002,0,-0.3000,-100.0000,-0.0010,-0.3000,-100.0000,-0.0010,8.7420,31.7771,0.0200,0.0000
25.4802,12.6099,2.8225,-0.0829,0.0821,0.0000,0.0000,0.6400,0.0000,-0.1807,-0.0383,0.0013,996,1502,1500,1502,2008,1000,1505,1505,1505,1006,2008,1000,1014,0.0572,0.0329,0.0550,-0.0332,0.0710,0.9888,-0.1411,0.2177,0.1437,-0.2203,0.3036,0.4132,0.0700,0.3036,0.4132,0.0700,0.3000,0.0600,0.0002,0,-0.3000,-100.0000,-0.0010,-0.3000,-100.0000,-0.0010,8.7766,31.8195,0.0200,0.0000
25.4411,12.5914,2.8144,-0.0829,0.0821,0.0000,0.0000,0.6400,0.0000,-0.1806,-0.0382,0.0013,996,1502,1500,1502,2008,1000,1505,1505,1505,1006,2008,1000,1014,0.0564,-0.0749,0.0668,-0.0361,0.0680,0.9897,-0.1411,0.2174,0.1437,-0.2201,0.3036,0.4132,0.0700,0.3036,0.4132,0.0700,0.3000,0.0600,0.0002,0,-0.3000,-100.0000,-0.0010,-0.3000,-100.0000,-0.0010,8.8112,31.8620,0.0200,0.0000
25.4013,12.5727,2.8054,-0.0000,0.0000,0.0000,0.0000,0.6400,0.0000,-0.1804,-0.0382,0.0014,998,1504,1501,1502,2008,1000,1505,1505,1505,1006,2008,1000,1013,0.0155,-0.0284,0.0509,-0.0361,0.0719,0.9915,-0.1409,0.2172,0.1437,-0.2200,0.3036,0.4132,0.0700,0.3036,0.4132,0.0700,0.3000,0.0600,0.0002,0,-0.3000,-100.0000,-0.0010,-0.3000,-100.0000,-0.0010,8.8457,31.9044,0.0200,0.0000
25.3617,12.5538,2.7970,-0.0000,0.1642,0.0000,0.0000,0.6400,0.0000,-0.1803,-0.0381,0.0015,996,1502,1500,1502,2008,1000,1505,1505,1505,1006,2008,1000,1013,0.0347,-0.0886,0.0213,-0.0358,0.0716,0.9913,-0.1408,0.2169,0.1438,-0.2199,0.3036,0.4132,0.0700,0.3036,0.4132,0.0700,0.3000,0.0600,0.0002,0,-0.3000,-100.0000,-0.0010,-0.3000,-100.0000,-0.0010,8.8803,31.9468,0.0200,0.0000
25.3222,12.5355,2.7884,-0.0829,0.0000,0.0000,0.0000,0.6400,0.0000,-0.1802,-0.0380,0.0015,996,1502,1500,1502,2008,1000,1505,1505,1505,1006,2008,1000,1013,0.0361,-0.0152,0.0118,-0.0350,0.0696,0.9942,-0.1406,0.2167,0.1437,-0.2198,0.3036,0.4132,0.0700,0.3036,0.4132,0.0700,0.3000,0.0600,0.0002,0,-0.3000,-100.0000,-0.0010,-0.3000,-100.0000,-0.0010,8.9149,31.9892,0.0200,0.0000
25.2827,12.5171,2.7802,-0.0000,0.0821,0.0000,0.0000,0.6400,0.0000,-0.1801,-0.0380,0.0016,996,1502,1500,1502,2008,1000,1505,1505,1505,1006,2008,1000,1013,0.0793,0.0077,0.0021,-0.0349,0.0693,0.9868,-0.1405,0.2165,0.1437,-0.2197,0.3036,0.4132,0.0700,0.3036,0.4132,0.0700,0.3000,0.0600,0.0002,0,-0.3000,-100.0000,-0.0010,-0.3000,-100.0000,-0.0010,8.9495,32.0315,0.0200,0.0000
25.2434,12.4986,2.7713,-0.0829,0.0821,0.0000,0.0000,0.6400,0.0000,-0.1800,-0.0379,0.0013,996,1502,1500,1502,2008,1000,1505,1505,1505,1006,2008,1000,1013,0.0688,-0.0224,0.0833,-0.0344,0.0697,0.9967,-0.1407,0.2166,0.1434,-0.2192,0.3036,0.4132,0.0700,0.3036,0.4132,0.0700,0.3000,0.0600,0.0002,0,-0.3000,-100.0000,-0.0010,-0.3000,-100.0000,-0.0010,8.9841,32.0737,0.0200,0.0000
25.2039,12.4798,2.7630,-0.0000,0.1642,0.0000,0.0000,0.6400,0.0000,-0.1798,-0.0379,0.0015,996,1502,1500,1502,2008,1000,1505,1505,1505,1006,2008,1000,1013,0.0417,-0.0008,0.0232,-0.0333,0.0691,0.9911,-0.1405,0.2162,0.1434,-0.2192,0.3036,0.4132,0.0700,0.3036,0.4132,0.0700,0.3000,0.0600,0.0002,0,-0.3000,-100.0000,-0.0010,-0.3000,-100.0000,-0.0010,9.0187,32.1160,0.0200,0.0000
25.1639,12.4612,2.7545,-0.1657,0.0821,0.0000,0.0000,0.6400,0.0000,-0.1797,-0.0378,0.0016,998,1504,1501,1502,2008,1000,1505,1505,1505,1006,2008,1000,1013,-0.0366,-0.0324,-0.0058,-0.0370,0.0732,0.9948,-0.1402,0.2159,0.1435,-0.2191,0.3036,0.4132,0.0700,0.3036,0.4132,0.0700,0.3000,0.0600,0.0002,0,-0.3000,-100.0000,-0.0010,-0.3000,-100.0000,-0.0010,9.0533,32.1583,0.0200,0.0000
25.1241,12.4424,2.7461,-0.0829,0.1642,0.0000,0.0000,0.6400,0.0000,-0.1796,-0.0377,0.0013,996,1502,1500,1502,2008,1000,1505,1505,1505,1006,2008,1000,1013,0.0377,-0.0785,0.0834,-0.0344,0.0712,0.9908,-0.1406,0.2160,0.1432,-0.2186,0.3036,0.4132,0.0700,0.3036,0.4132,0.0700,0.3000,0.0600,0.0002,0,-0.3000,-100.0000,-0.0010,-0.3000,-100.0000,-0.0010,9.0879,32.2006,0.0200,0.0000
25.0847,12.4227,2.7374,-0.0000,0.0821,0.0000,0.0000,0.6400,0.0000,-0.1795,-0.0376,0.0015,996,1502,1500,1502,2008,1000,1505,1505,1505,1006,2008,1000,1013,0.0747,-0.1589,0.0299,-0.0345,0.0702,0.9957,-0.1404,0.2157,0.1434,-0.2186,0.3036,0.4132,0.0700,0.3036,0.4132,0.0700,0.3000,0.0600,0.0002,0,-0.3000,-100.0000,-0.0010,-0.3000,-100.0000,-0.0010,9.1225,32.2429,0.0200,0.0000
25.0451,12.4035,2.7292,-0.0829,0.0000,0.0000,0.0000,0.6400,0.0000,-0.1794,-0.0376,0.0015,996,1502,1500,1502,2008,1000,1505,1505,1505,1006,2008,1000,1013,0.0818,-0.0492,0.0503,-0.0345,0.0686,0.9929,-0.1403,0.2155,0.1433,-0.2185,0.3036,0.4132,0.0700,0.3036,0.4132,0.0700,0.3000,0.0600,0.0002,0,-0.3000,-100.0000,-0.0010,-0.3000,-100.0000,-0.0010,9.1571,32.2851,0.0200,0.0000
25.0058,12.3848,2.7207,-0.0000,0.0821,0.0000,0.0000,0.6400,0.0000,-0.1793,-0.0376,0.0015,996,1502,1500,1502,2008,1000,1505,1505,1505,1006,2008,1000,1014,0.0705,0.0442,0.0082,-0.0351,0.0722,0.9940,-0.1401,0.2154,0.1432,-0.2184,0.3036,0.4132,0.0700,0.3036,0.4132,0.0700,0.3000,0.0600,0.0002,0,-0.3000,-100.0000,-0.0010,-0.3000,-100.0000,-0.0010,9.1917,32.3274,0.0200,0.0000
24.9663,12.3666,2.7122,-0.0000,0.1642,0.0000,0.0000,0.6400,0.0000,-0.1791,-0.0376,0.0016,996,1502,1500,1502,2008,1000,1505,1505,1505,1006,2008,1000,1014,0.0279,0.0277,0.0229,-0.0357,0.0697,0.9938,-0.1400,0.2151,0.1431,-0.2182,0.3036,0.4132,0.0700,0.3036,0.4132,0.0700,0.3000,0.0600,0.0002,0,-0.3000,-100.0000,-0.0010,-0.3000,-100.0000,-0.0010,9.2263,32.3696,0.0200,0.0000
24.9267,12.3487,2.7042,-0.0829,0.0000,0.0000,0.0000,0.6400,0.0000,-0.1790,-0.0375,0.0015,998,1504,1501,1502,2008,1000,1505,1505,1505,1006,2008,1000,1014,0.0530,0.0241,0.0170,-0.0347,0.0682,0.9944,-0.1400,0.2150,0.1430,-0.2181,0.3036,0.4132,0.0700,0.3036,0.4132,0.0700,0.3000,0.0600,0.0002,0,-0.3000,-100.0000,-0.0010,-0.3000,-100.0000,-0.0010,9.2610,32.4118,0.0200,0.0000
24.8872,12.3303,2.6960,-0.0000,0.0821,0.0000,0.0000,0.6400,0.0000,-0.1789,-0.0374,0.0016,996,1502,1500,1502,2008,1000,1505,1505,1505,1006,2008,1000,1013,0.0620,-0.0972,-0.0051,-0.0341,0.0703,0.9948,-0.1399,0.2146,0.1432,-0.2179,0.3036,0.4132,0.0700,0.3036,0.4132,0.0700,0.3000,0.0600,0.0002,0,-0.3000,-100.0000,-0.0010,-0.3000,-100.0000,-0.0010,9.2956,32.4540,0.0200,0.0000
24.8474,12.3112,2.6871,-0.0829,0.0000,0.0000,0.0000,0.6400,0.0000,-0.1788,-0.0373,0.0016,996,1502,1500,1502,2008,1000,1505,1505,1505,1006,2008,1000,1013,0.0327,-0.0833,-0.0006,-0.0329,0.0725,0.9914,-0.1399,0.2145,0.1430,-0.2177,0.3036,0.4132,0.0700,0.3036,0.4132,0.0700,0.3000,0.0600,0.0002,0,-0.3000,-100.0000,-0.0010,-0.3000,-100.0000,-0.0010,9.3302,32.4962,0.0200,0.0000
24.8075,12.2923,2.6787,0.0829,0.0821,0.0000,0.0000,0.6400,0.0000,-0.1786,-0.0373,0.0014,996,1502,1500,1502,2008,1000,1505,1505,1505,1006,2008,1000,1013,0.0067,-0.0594,0.0509,-0.0346,0.0728,0.9887,-0.1399,0.2145,0.1428,-0.2173,0.3036,0.4132,0.0700,0.3036,0.4132,0.0700,0.3000,0.0600,0.0002,0,-0.3000,-100.0000,-0.0010,-0.3000,-100.0000,-0.0010,9.3649,32.5384,0.0200,0.0000
24.7673,12.2729,2.6704,-0.0829,0.1642,0.0000,0.0000,0.6400,0.0000,-0.1785,-0.0372,0.0013,996,1502,1500,1502,2008,1000,1505,1505,1505,1006,2008,1000,1013,-0.0515,-0.0319,0.1029,-0.0335,0.0669,0.9913,-0.1399,0.2144,0.1425,-0.2170,0.3036,0.4132,0.0700,0.3036,0.4132,0.0700,0.3000,0.0600,0.0002,0,-0.3000,-100.0000,-0.0010,-0.3000,-100.0000,-0.0010,9.3995,32.5806,0.0200,0.0000
24.7272,12.2537,2.6628,-0.0000,0.0821,0.0000,0.0000,0.6400,0.0000,-0.1784,-0.0372,0.0014,996,1502,1500,1502,2008,1000,1505,1505,1505,1006,2008,1000,1013,-0.0166,-0.0684,0.0802,-0.0346,0.0687,0.9971,-0.1398,0.2141,0.1426,-0.2169,0.3036,0.4132,0.0700,0.3036,0.4132,0.0700,0.3000,0.0600,0.0002,0,-0.3000,-100.0000,-0.0010,-0.3000,-100.0000,-0.0010,9.4342,32.6228,0.0200,0.0000
24.6871,12.2348,2.6543,-0.0829,0.0821,0.0000,0.0000,0.6400,0.0000,-0.1783,-0.0372,0.0014,998,1504,1501,1502,2008,1000,1505,1505,1505,1006,2008,1000,1013,0.0034,0.0190,0.0526,-0.0357,0.0704,0.9906,-0.1397,0.2140,0.1425,-0.2168,0.3036,0.4132,0.0700,0.3036,0.4132,0.0700,0.3000,0.0600,0.0002,0,-0.3000,-100.0000,-0.0010,-0.3000,-100.0000,-0.0010,9.4689,32.6650,0.0200,0.0000
24.6468,12.2167,2.6462,-0.0000,0.0821,0.0000,0.0000,0.6400,0.0000,-0.1781,-0.0371,0.0015,996,1502,1500,1502,2008,1000,1505,1505,1505,1006,2008,1000,1013,-0.0441,-0.0271,0.0224,-0.0345,0.0698,0.9913,-0.1395,0.2136,0.1426,-0.2167,0.3036,0.4132,0.0700,0.3036,0.4132,0.0700,0.3000,0.0600,0.0002,0,-0.3000,-100.0000,-0.0010,-0.3000,-100.0000,-0.0010,9.5035,32.7072,0.0200,0.0000
24.6066,12.1982,2.6378,0.0829,0.1642,0.0000,0.0000,0.6400,0.0000,-0.1780,-0.0370,0.0016,996,1502,1500,1502,2008,1000,1505,1505,1505,1006,2008,1000,1014,0.0172,-0.0384,0.0001,-0.0372,0.0711,0.9887,-0.1394,0.2134,0.1426,-0.2166,0.3036,0.4132,0.0700,0.3036,0.4132,0.0700,0.3000,0.0600,0.0002,0,-0.3000,-100.0000,-0.0010,-0.3000,-100.0000,-0.0010,9.5382,32.7494,0.0200,0.0000
24.5664,12.1797,2.6291,-0.0000,0.0821,0.0000,0.0000,0.6400,0.0000,-0.1779,-0.0369,0.0015,996,1502,1500,1502,2008,1000,1505,1505,1505,1006,2008,1000,1014,0.0165,-0.0502,0.0144,-0.0330,0.0676,0.9867,-0.1394,0.2133,0.1425,-0.2164,0.3036,0.4132,0.0700,0.3036,0.4132,0.0700,0.3000,0.0600,0.0002,0,-0.3000,-100.0000,-0.0010,-0.3000,-100.0000,-0.0010,9.5729,32.7916,0.0200,0.0000
24.5265,12.1615,2.6205,-0.0829,0.0821,0.0000,0.0000,0.6400,0.0000,-0.1778,-0.0369,0.0016,996,1502,1500,1502,2008,1000,1505,1505,1505,1006,2008,1000,1013,0.0043,0.0268,0.0006,-0.0365,0.0691,0.9919,-0.1392,0.2131,0.1424,-0.2163,0.3036,0.4132,0.0700,0.3036,0.4132,0.0700,0.3000,0.0600,0.0002,0,-0.3000,-100.0000,-0.0010,-0.3000,-100.0000,-0.0010,9.6076,32.8337,0.0200,0.0000
24.4863,12.1426,2.6115,-0.0829,0.1642,0.0000,0.0000,0.6400,0.0000,-0.1776,-0.0368,0.0017,996,1502,1500,1502,2008,1000,1505,1505,1505,1006,2008,1000,1013,-0.0188,-0.0741,-0.0169,-0.0318,0.0738,0.9918,-0.1391,0.2127,0.1425,-0.2161,0.3036,0.4132,0.0700,0.3036,0.4132,0.0700,0.3000,0.0600,0.0002,0,-0.3000,-100.0000,-0.0010,-0.3000,-100.0000,-0.0010,9.6423,32.8759,0.0200,0.0000
24.4462,12.1232,2.6027,-0.0829,0.0000,0.0000,0.0000,0.6400,0.0000,-0.1776,-0.0368,0.0016,998,1504,1501,1502,2008,1000,1505,1505,1505,1006,2008,1000,1014,0.0742,-0.0567,0.0169,-0.0338,0.0697,0.9951,-0.1392,0.2128,0.1424,-0.2159,0.3036,0.4132,0.0700,0.3036,0.4132,0.0700,0.3000,0.0600,0.0002,0,-0.3000,-100.0000,-0.0010,-0.3000,-100.0000,-0.0010,9.6770,32.9180,0.0200,0.0000
24.4064,12.1048,2.5949,-0.0000,0.0821,0.0000,0.0000,0.6400,0.0000,-0.1774,-0.0368,0.0014,996,1502,1500,1502,2008,1000,1505,1505,1505,1006,2008,1000,1013,0.0409,0.0651,0.0817,-0.0354,0.0702,0.9894,-0.1393,0.2129,0.1420,-0.2156,0.3036,0.4132,0.0700,0.3036,0.4132,0.0700,0.3000,0.0600,0.0002,0,-0.3000,-100.0000,-0.0010,-0.3000,-100.0000,-0.0010,9.7117,32.9602,0.0200,0.0000
24.3668,12.0861,2.5869,-0.0829,0.0000,0.0000,0.0000,0.6400,0.0000,-0.1773,-0.0367,0.0015,996,1502,1500,1502,2008,1000,1505,1505,1505,1006,2008,1000,1013,0.0431,-0.0109,0.0669,-0.0344,0.0695,0.9907,-0.1392,0.2125,0.1421,-0.2155,0.3036,0.4132,0.0700,0.3036,0.4132,0.0700,0.3000,0.0600,0.0002,0,-0.3000,-100.0000,-0.0010,-0.3000,-100.0000,-0.0010,9.7464,33.0023,0.0200,0.0000
24.3269,12.0682,2.5784,-0.0000,0.0821,0.0000,0.0000,0.6400,0.0000,-0.1772,-0.0367,0.0019,996,1502,1500,1502,2008,1000,1505,1505,1505,1006,2008,1000,1013,0.0338,0.0237,-0.0788,-0.0362,0.0702,0.9902,-0.1386,0.2119,0.1424,-0.2157,0.3036,0.4132,0.0700,0.3036,0.4132,0.0700,0.3000,0.0600,0.0002,0,-0.3000,-100.0000,-0.0010,-0.3000,-100.0000,-0.0010,9.7812,33.0444,0.0200,0.0000
24.2865,12.0496,2.5696,-0.0829,0.1642,0.0000,0.0000,0.6400,0.0000,-0.1770,-0.0365,0.0016,996,1502,1500,1502,2008,1000,1505,1505,1505,1006,2008,1000,1013,0.0118,-0.0856,0.0253,-0.0358,0.0693,0.9937,-0.1389,0.2120,0.1421,-0.2151,0.3036,0.4132,0.0700,0.3036,0.4132,0.0700,0.3000,0.0600,0.0002,0,-0.3000,-100.0000,-0.0010,-0.3000,-100.0000,-0.0010,9.8159,33.0866,0.0200,0.0000
24.2460,12.0310,2.5608,-0.0829,0.0821,0.0000,0.0000,0.6400,0.0000,-0.1769,-0.0365,0.0017,996,1502,1500,1502,2008,1000,1505,1505,1505,1006,2008,1000,1014,-0.0435,-0.0503,-0.0054,-0.0372,0.0711,0.9929,-0.1387,0.2117,0.1420,-0.2150,0.3036,0.4132,0.0700,0.3036,0.4132,0.0700,0.3000,0.0600,0.0002,0,-0.3000,-100.0000,-0.0010,-0.3000,-100.0000,-0.0010,9.8506,33.1286,0.0200,0.0000
24.2060,12.0120,2.5524,-0.0000,0.0821,0.0000,0.0000,0.6400,0.0000,-0.1768,-0.0365,0.0015,998,1504,1501,1502,2008,1000,1505,1505,1505,1006,2008,1000,1013,0.0364,-0.0048,0.0633,-0.0332,0.0693,0.9950,-0.1388,0.2118,0.1419,-0.2148,0.3036,0.4132,0.0700,0.3036,0.4132,0.0700,0.3000,0.0600,0.0002,0,-0.3000,-100.0000,-0.0010,-0.3000,-100.0000,-0.0010,9.8853,33.1707,0.0200,0.0000
24.1655,11.9930,2.5439,-0.0829,0.1642,0.0000,0.0000,0.6400,0.0000,-0.1766,-0.0364,0.0016,996,1502,1500,1502,2008,1000,1505,1505,1505,1006,2008,1000,1013,-0.0471,-0.0645,0.0059,-0.0349,0.0722,0.9898,-0.1386,0.2113,0.1419,-0.2146,0.3036,0.4132,0.0700,0.3036,0.4132,0.0700,0.3000,0.0600,0.0002,0,-0.3000,-100.0000,-0.0010,-0.3000,-100.0000,-0.0010,9.9200,33.2127,0.0200,0.0000
24.1255,11.9740,2.5355,-0.0000,0.0000,0.0000,0.0000,0.6400,0.0000,-0.1766,-0.0363,0.0016,996,1502,1500,1502,2008,1000,1505,1505,1505,1006,2008,1000,1014,0.0320,-0.0057,0.0297,-0.0328,0.0683,0.9931,-0.1386,0.2113,0.1418,-0.2145,0.3036,0.4132,0.0700,0.3036,0.4132,0.0700,0.3000,0.0600,0.0002,0,-0.3000,-100.0000,-0.0010,-0.3000,-100.0000,-0.0010,9.9548,33.2547,0.0200,0.0000
24.0856,11.9554,2.5273,-0.0829,0.0821,0.0000,0.0000,0.6400,0.0000,-0.1765,-0.0363,0.0017,996,1502,1500,1502,2008,1000,1505,1505,1505,1006,2008,1000,1014,0.0533,-0.0385,-0.0139,-0.0345,0.0713,0.9931,-0.1385,0.2110,0.1419,-0.2145,0.3036,0.4132,0.0700,0.3036,0.4132,0.0700,0.3000,0.0600,0.0002,0,-0.3000,-100.0000,-0.0010,-0.3000,-100.0000,-0.0010,9.9895,33.2968,0.0200,0.0000
24.0458,11.9364,2.5189,-0.0829,0.0821,0.0000,0.0000,0.6400,0.0000,-0.1763,-0.0362,0.0015,996,1502,1500,1502,2008,1000,1505,1505,1505,1006,2008,1000,1013,0.0301,-0.0218,0.0651,-0.0357,0.0688,0.9919,-0.1386,0.2111,0.1416,-0.2140,0.3036,0.4132,0.0700,0.3036,0.4132,0.0700,0.3000,0.0600,0.0002,0,-0.3000,-100.0000,-0.0010,-0.3000,-100.0000,-0.0010,10.0243,33.3388,0.0200,0.0000
24.0054,11.9174,2.5107,-0.0829,0.0000,0.0000,0.0000,0.6400,0.0000,-0.1762,-0.0361,0.0016,996,1502,1500,1502,2008,1000,1505,1505,1505,1006,2008,1000,1013,-0.0027,-0.0513,0.0139,-0.0377,0.0711,0.9950,-0.1385,0.2108,0.1416,-0.2139,0.3036,0.4132,0.0700,0.3036,0.4132,0.0700,0.3000,0.0600,0.0002,0,-0.3000,-100.0000,-0.0010,-0.3000,-100.0000,-0.0010,10.0590,33.3808,0.0200,0.0000
23.9654,11.8983,2.5022,-0.0829,0.0821,0.0000,0.0000,0.6400,0.0000,-0.1761,-0.0361,0.0017,998,1504,1501,1502,2008,1000,1505,1505,1505,1006,2008,1000,1013,0.0487,-0.0530,0.0137,-0.0350,0.0684,0.9919,-0.1384,0.2105,0.1417,-0.2138,0.3036,0.4132,0.0700,0.3036,0.4132,0.0700,0.3000,0.0600,0.0002,0,-0.3000,-100.0000,-0.0010,-0.3000,-100.0000,-0.0010,10.0938,33.4228,0.0200,0.0000
23.9256,11.8796,2.4943,-0.0829,0.0821,0.0000,0.0000,0.6400,0.0000,-0.1759,-0.0361,0.0016,996,1502,1500,1502,2008,1000,1505,1505,1505,1006,2008,1000,1014,0.0140,0.0057,0.0277,-0.0370,0.0732,0.9924,-0.1382,0.2104,0.1415,-0.2136,0.3036,0.4132,0.0700,0.3036,0.4132,0.0700,0.3000,0.0600,0.0002,0,-0.3000,-100.0000,-0.0010,-0.3000,-100.0000,-0.0010,10.1285,33.4648,0.0200,0.0000
23.8857,11.8609,2.4861,-0.0000,0.0821,0.0000,0.0000,0.6400,0.0000,-0.1759,-0.0360,0.0016,996,1502,1500,1502,2008,1000,1505,1505,1505,1006,2008,1000,1014,0.0690,-0.0406,0.0292,-0.0349,0.0681,0.9967,-0.1383,0.2103,0.1414,-0.2134,0.3036,0.4132,0.0700,0.3036,0.4132,0.0700,0.3000,0.0600,0.0002,0,-0.3000,-100.0000,-0.0010,-0.3000,-100.0000,-0.0010,10.1633,33.5068,0.0200,0.0000
23.8456,11.8425,2.4780,-0.0000,0.0000,0.0000,0.0000,0.6400,0.0000,-0.1757,-0.0360,0.0015,996,1502,1500,1502,2008,1000,1505,1505,1505,1006,2008,1000,1013,-0.0239,0.0307,0.0703,-0.0369,0.0695,0.9907,-0.1382,0.2102,0.1412,-0.2131,0.3036,0.4132,0.0700,0.3036,0.4132,0.0700,0.3000,0.0600,0.0002,0,-0.3000,-100.0000,-0.0010,-0.3000,-100.0000,-0.0010,10.1981,33.5488,0.0200,0.0000
23.8050,11.8248,2.4701,-0.0000,0.1642,0.0000,0.0000,0.6400,0.0000,-0.1756,-0.0359,0.0018,996,1502,1500,1502,2008,1000,1505,1505,1505,1006,2008,1000,1013,-0.0113,0.0666,-0.0156,-0.0349,0.0705,0.9911,-0.1378,0.2097,0.1414,-0.2133,0.3036,0.4132,0.0700,0.3036,0.4132,0.0700,0.3000,0.0600,0.0002,0,-0.3000,-100.0000,-0.0010,-0.3000,-100.0000,-0.0010,10.2328,33.5907,0.0200,0.0000
23.7652,11.8063,2.4621,-0.0829,0.0821,0.0000,0.0000,0.6400,0.0000,-0.1755,-0.0359,0.0018,996,1502,1500,1502,2008,1000,1505,1505,1505,1006,2008,1000,1014,0.0607,0.0292,-0.0239,-0.0339,0.0728,0.9933,-0.1378,0.2096,0.1414,-0.2131,0.3036,0.4132,0.0700,0.3036,0.4132,0.0700,0.3000,0.0600,0.0002,0,-0.3000,-100.0000,-0.0010,-0.3000,-100.0000,-0.0010,10.2676,33.6327,0.0200,0.0000
23.7253,11.7880,2.4539,-0.1657,0.1642,0.0000,0.0000,0.6400,0.0000,-0.1753,-0.0358,0.0017,998,1504,1501,1502,2008,1000,1505,1505,1505,1006,2008,1000,1014,0.0266,0.0015,0.0044,-0.0325,0.0660,0.9937,-0.1379,0.2094,0.1413,-0.2128,0.3036,0.4132,0.0700,0.3036,0.4132,0.0700,0.3000,0.0600,0.0002,0,-0.3000,-100.0000,-0.0010,-0.3000,-100.0000,-0.0010,10.3024,33.6746,0.0200,0.0000
23.6855,11.7694,2.4463,-0.0000,0.1642,0.0000,0.0000,0.6400,0.0000,-0.1752,-0.0357,0.0017,996,1502,1500,1502,2008,1000,1505,1505,1505,1006,2008,1000,1014,0.0570,-0.0010,-0.0037,-0.0345,0.0733,0.9882,-0.1378,0.2093,0.1412,-0.2127,0.3036,0.4132,0.0700,0.3036,0.4132,0.0700,0.3000,0.0600,0.0002,0,-0.3000,-100.0000,-0.0010,-0.3000,-100.0000,-0.0010,10.3372,33.7165,0.0200,0.0000
23.6451,11.7502,2.4382,-0.0829,0.0000,0.0000,0.0000,0.6400,0.0000,-0.1751,-0.0356,0.0017,996,1502,1500,1502,2008,1000,1505,1505,1505,1006,2008,1000,1013,0.0647,-0.1025,0.0178,-0.0364,0.0708,0.9949,-0.1379,0.2091,0.1412,-0.2124,0.3036,0.4132,0.0700,0.3036,0.4132,0.0700,0.3000,0.0600,0.0002,0,-0.3000,-100.0000,-0.0010,-0.3000,-100.0000,-0.0010,10.3720,33.7584,0.0200,0.0000
23.6056,11.7317,2.4302,-0.0000,0.0821,0.0000,0.0000,0.6400,0.0000,-0.1750,-0.0356,0.0019,996,1502,1500,1502,2008,1000,1505,1505,1505,1006,2008,1000,1013,0.0693,0.0320,-0.0463,-0.0344,0.0717,0.9916,-0.1375,0.2088,0.1413,-0.2125,0.3036,0.4132,0.0700,0.3036,0.4132,0.0700,0.3000,0.0600,0.0002,0,-0.3000,-100.0000,-0.0010,-0.3000,-100.0000,-0.0010,10.4068,33.8003,0.0200,0.0000
23.5652,11.7131,2.4214,-0.0829,0.0821,0.0000,0.0000,0.6400,0.0000,-0.1749,-0.0356,0.0017,996,1502,1500,1502,2008,1000,1505,1505,1505,1006,2008,1000,1013,0.0231,0.0466,0.0136,-0.0335,0.0707,0.9888,-0.1376,0.2088,0.1409,-0.2121,0.3036,0.4132,0.0700,0.3036,0.4132,0.0700,0.3000,0.0600,0.0002,0,-0.3000,-100.0000,-0.0010,-0.3000,-100.0000,-0.0010,10.4416,33.8421,0.0200,0.0000
23.5248,11.6950,2.4133,-0.0000,0.0000,0.0000,0.0000,0.6400,0.0000,-0.1747,-0.0356,0.0019,996,1502,1500,1502,2008,1000,1505,1505,1505,1006,2008,1000,1013,-0.0112,0.0719,-0.0411,-0.0362,0.0708,0.9910,-0.1373,0.2084,0.1410,-0.2121,0.3036,0.4132,0.0700,0.3036,0.4132,0.0700,0.3000,0.0600,0.0002,0,-0.3000,-100.0000,-0.0010,-0.3000,-100.0000,-0.0010,10.4764,33.8839,0.0200,0.0000
23.4844,11.6774,2.4052,-0.0000,0.0821,0.0000,0.0000,0.6400,0.0000,-0.1746,-0.0355,0.0017,998,1504,1501,1502,2008,1000,1505,1505,1505,1006,2008,1000,1014,0.0551,0.1184,0.0037,-0.0360,0.0695,0.9901,-0.1374,0.2085,0.1408,-0.2119,0.3036,0.4132,0.0700,0.3036,0.4132,0.0700,0.3000,0.0600,0.0002,0,-0.3000,-100.0000,-0.0010,-0.3000,-100.0000,-0.0010,10.5112,33.9257,0.0200,0.0000
23.4441,11.6585,2.3973,-0.0000,0.0821,0.0000,0.0000,0.6400,0.0000,-0.1745,-0.0353,0.0017,996,1502,1500,1502,2008,1000,1505,1505,1505,1006,2008,1000,1014,-0.0208,-0.0810,0.0022,-0.0338,0.0701,0.9920,-0.1374,0.2081,0.1408,-0.2115,0.3036,0.4132,0.0700,0.3036,0.4132,0.0700,0.3000,0.0600,0.0002,0,-0.3000,-100.0000,-0.0010,-0.3000,-100.0000,-0.0010,10.5460,33.9675,0.0200,0.0000
23.4035,11.6399,2.3894,-0.1657,0.0000,0.0000,0.0000,0.6400,0.0000,-0.1744,-0.0353,0.0016,996,1502,1500,1502,2008,1000,1505,1505,1505,1006,2008,1000,1014,0.0187,-0.0066,0.0541,-0.0360,0.0701,0.9912,-0.1374,0.2081,0.1406,-0.2113,0.3036,0.4132,0.0700,0.3036,0.4132,0.0700,0.3000,0.0600,0.0002,0,-0.3000,-100.0000,-0.0010,-0.3000,-100.0000,-0.0010,10.5809,34.0093,0.0200,0.0000
23.3630,11.6209,2.3814,-0.0000,0.0821,0.0000,0.0000,0.6400,0.0000,-0.1742,-0.0352,0.0015,996,1502,1500,1502,2008,1000,1505,1505,1505,1006,2008,1000,1013,-0.0190,-0.0704,0.0548,-0.0335,0.0717,0.9972,-0.1374,0.2079,0.1405,-0.2110,0.3036,0.4132,0.0700,0.3036,0.4132,0.0700,0.3000,0.0600,0.0002,0,-0.3000,-100.0000,-0.0010,-0.3000,-100.0000,-0.0010,10.6157,34.0512,0.0200,0.0000
23.3224,11.6017,2.3736,-0.0829,0.0821,0.0000,0.0000,0.6400,0.0000,-0.1741,-0.0352,0.0015,996,1502,1500,1502,2008,1000,1505,1505,1505,1006,2008,1000,1013,-0.0273,0.0298,0.0645,-0.0353,0.0705,0.9916,-0.1373,0.2078,0.1404,-0.2108,0.3036,0.4132,0.0700,0.3036,0.4132,0.0700,0.3000,0.0600,0.0002,0,-0.3000,-100.0000,-0.0010,-0.3000,-100.0000,-0.0010,10.6506,34.0930,0.0200,0.0000
23.2825,11.5827,2.3657,-0.0829,0.0821,0.0000,0.0000,0.6400,0.0000,-0.1740,-0.0352,0.0016,996,1502,1500,1502,2008,1000,1505,1505,1505,1006,2008,1000,1013,0.0860,0.0033,0.0487,-0.0307,0.0684,0.9954,-0.1373,0.2076,0.1405,-0.2108,0.3036,0.4132,0.0700,0.3036,0.4132,0.0700,0.3000,0.0600,0.0002,0,-0.3000,-100.0000,-0.0010,-0.3000,-100.0000,-0.0010,10.6854,34.1348,0.0200,0.0000
23.2424,11.5634,2.3576,-0.0000,0.0821,0.0000,0.0000,0.6400,0.0000,-0.1739,-0.0351,0.0017,998,1504,1501,1502,2008,1000,1505,1505,1505,1006,2008,1000,1013,-0.0064,0.0339,0.0254,-0.0360,0.0724,0.9931,-0.1370,0.2072,0.1405,-0.2107,0.3036,0.4132,0.0700,0.3036,0.4132,0.0700,0.3000,0.0600,0.0002,0,-0.3000,-100.0000,-0.0010,-0.3000,-100.0000,-0.0010,10.7203,34.1767,0.0200,0.0000
23.2020,11.5452,2.3498,-0.0829,0.0821,0.0000,0.0000,0.6400,0.0000,-0.1737,-0.0351,0.0016,996,1502,1500,1502,2008,1000,1505,1505,1505,1006,2008,1000,1013,-0.0224,0.1141,0.0604,-0.0371,0.0685,0.9922,-0.1370,0.2073,0.1402,-0.2104,0.3036,0.4132,0.0700,0.3036,0.4132,0.0700,0.3000,0.0600,0.0002,0,-0.3000,-100.0000,-0.0010,-0.3000,-100.0000,-0.0010,10.7552,34.2185,0.0200,0.0000
23.1620,11.5266,2.3423,-0.0829,0.0821,0.0000,0.0000,0.6400,0.0000,-0.1737,-0.0350,0.0018,996,1502,1500,1502,2008,1000,1505,1505,1505,1006,2008,1000,1013,0.0982,0.0232,0.0014,-0.0357,0.0707,0.9884,-0.1369,0.2069,0.1404,-0.2105,0.3036,0.4132,0.0700,0.3036,0.4132,0.0700,0.3000,0.0600,0.0002,0,-0.3000,-100.0000,-0.0010,-0.3000,-100.0000,-0.0010,10.7900,34.2602,0.0200,0.0000
23.1220,11.5085,2.3347,-0.0829,0.0821,0.0000,0.0000,0.6400,0.0000,-0.1735,-0.0350,0.0016,996,1502,1500,1502,2008,1000,1505,1505,1505,1006,2008,1000,1013,0.0475,0.0491,0.0490,-0.0345,0.0720,0.9958,-0.1370,0.2069,0.1401,-0.2101,0.3036,0.4132,0.0700,0.3036,0.4132,0.0700,0.3000,0.0600,0.0002,0,-0.3000,-100.0000,-0.0010,-0.3000,-100.0000,-0.0010,10.8249,34.3020,0.0200,0.0000
23.0818,11.4900,2.3265,-0.0829,0.0821,0.0000,0.0000,0.6400,0.0000,-0.1734,-0.0349,0.0021,996,1502,1500,1502,2008,1000,1505,1505,1505,1006,2008,1000,1013,0.0440,-0.0202,-0.0877,-0.0348,0.0684,0.9955,-0.1365,0.2062,0.1406,-0.2103,0.3036,0.4132,0.0700,0.3036,0.4132,0.0700,0.3000,0.0600,0.0002,0,-0.3000,-100.0000,-0.0010,-0.3000,-100.0000,-0.0010,10.8598,34.3437,0.0200,0.0000
23.0414,11.4710,2.3175,-0.0000,0.0000,0.0000,0.0000,0.6400,0.0000,-0.1732,-0.0348,0.0020,996,1502,1500,1502,2008,1000,1505,1505,1505,1006,2008,1000,1013,-0.0131,-0.0248,-0.0823,-0.0326,0.0713,0.9941,-0.1364,0.2061,0.1404,-0.2101,0.3036,0.4132,0.0700,0.3036,0.4132,0.0700,0.3000,0.0600,0.0002,0,-0.3000,-100.0000,-0.0010,-0.3000,-100.0000,-0.0010,10.8947,34.3855,0.0200,0.0000
23.0005,11.4520,2.3100,-0.1657,0.0821,0.0000,0.0000,0.6400,0.0000,-0.1731,-0.0348,0.0013,998,1504,1501,1502,2008,1000,1505,1505,1505,1006,2008,1000,1013,-0.0355,-0.0111,0.1307,-0.0356,0.0683,0.9973,-0.1370,0.2065,0.1397,-0.2092,0.3036,0.4132,0.0700,0.3036,0.4132,0.0700,0.3000,0.0600,0.0002,0,-0.3000,-100.0000,-0.0010,-0.3000,-100.0000,-0.0010,10.9296,34.4273,0.0200,0.0000
22.9606,11.4336,2.3026,-0.0829,0.1642,0.0000,0.0000,0.6400,0.0000,-0.1730,-0.0348,0.0015,996,1502,1500,1502,2008,1000,1505,1505,1505,1006,2008,1000,1014,0.0376,0.0625,0.0831,-0.0364,0.0673,0.9921,-0.1368,0.2063,0.1398,-0.2093,0.3036,0.4132,0.0700,0.3036,0.4132,0.0700,0.3000,0.0600,0.0002,0,-0.3000,-100.0000,-0.0010,-0.3000,-100.0000,-0.0010,10.9645,34.4690,0.0200,0.0000
22.9202,11.4148,2.2953,-0.0000,0.0000,0.0000,0.0000,0.6400,0.0000,-0.1729,-0.0347,0.0016,996,1502,1500,1502,2008,1000,1505,1505,1505,1006,2008,1000,1014,0.0134,0.0154,0.0652,-0.0328,0.0681,0.9942,-0.1367,0.2060,0.1398,-0.2091,0.3036,0.4132,0.0700,0.3036,0.4132,0.0700,0.3000,0.0600,0.0002,0,-0.3000,-100.0000,-0.0010,-0.3000,-100.0000,-0.0010,10.9994,34.5108,0.0200,0.0000
22.8801,11.3958,2.2878,-0.0000,0.0821,0.0000,0.0000,0.6400,0.0000,-0.1728,-0.0346,0.0018,996,1502,1500,1502,2008,1000,1505,1505,1505,1006,2008,1000,1013,0.0323,0.0099,0.0057,-0.0328,0.0712,0.9907,-0.1364,0.2056,0.1400,-0.2092,0.3036,0.4132,0.0700,0.3036,0.4132,0.0700,0.3000,0.0600,0.0002,0,-0.3000,-100.0000,-0.0010,-0.3000,-100.0000,-0.0010,11.0343,34.5525,0.0200,0.0000
22.8399,11.3767,2.2793,-0.0829,0.0000,0.0000,0.0000,0.6400,0.0000,-0.1726,-0.0345,0.0019,996,1502,1500,1502,2008,1000,1505,1505,1505,1006,2008,1000,1013,0.0103,-0.0591,-0.0131,-0.0311,0.0713,0.9887,-0.1363,0.2053,0.1400,-0.2090,0.3036,0.4132,0.0700,0.3036,0.4132,0.0700,0.3000,0.0600,0.0002,0,-0.3000,-100.0000,-0.0010,-0.3000,-100.0000,-0.0010,11.0692,34.5942,0.0200,0.0000
22.7994,11.3579,2.2705,0.0829,0.0821,0.0000,0.0000,0.6400,0.0000,-0.1725,-0.0345,0.0019,996,1502,1500,1502,2008,1000,1505,1505,1505,1006,2008,1000,1013,0.0083,0.0305,-0.0682,-0.0344,0.0692,0.9931,-0.1361,0.2051,0.1400,-0.2090,0.3036,0.4132,0.0700,0.3036,0.4132,0.0700,0.3000,0.0600,0.0002,0,-0.3000,-100.0000,-0.0010,-0.3000,-100.0000,-0.0010,11.1041,34.6359,0.0200,0.0000
22.7586,11.3387,2.2622,-0.0829,0.0821,0.0000,0.0000,0.6400,0.0000,-0.1724,-0.0344,0.0018,998,1504,1501,1502,2008,1000,1505,1505,1505,1006,2008,1000,1013,-0.0509,-0.0010,0.0135,-0.0329,0.0718,0.9906,-0.1362,0.2050,0.1397,-0.2085,0.3036,0.4132,0.0700,0.3036,0.4132,0.0700,0.3000,0.0600,0.0002,0,-0.3000,-100.0000,-0.0010,-0.3000,-100.0000,-0.0010,11.1390,34.6775,0.0200,0.0000
22.7178,11.3192,2.2544,-0.0829,0.0821,0.0000,0.0000,0.6400,0.0000,-0.1723,-0.0343,0.0017,996,1502,1500,1502,2008,1000,1505,1505,1505,1006,2008,1000,1013,0.0071,-0.0611,0.0515,-0.0350,0.0681,0.9915,-0.1363,0.2049,0.1396,-0.2083,0.3036,0.4132,0.0700,0.3036,0.4132,0.0700,0.3000,0.0600,0.0002,0,-0.3000,-100.0000,-0.0010,-0.3000,-100.0000,-0.0010,11.1740,34.7192,0.0200,0.0000
22.6771,11.3001,2.2463,-0.1657,0.0000,0.0000,0.0000,0.6400,0.0000,-0.1721,-0.0343,0.0017,996,1502,1500,1502,2008,1000,1505,1505,1505,1006,2008,1000,1014,-0.0072,-0.0535,0.0249,-0.0359,0.0704,0.9919,-0.1361,0.2047,0.1396,-0.2081,0.3036,0.4132,0.0700,0.3036,0.4132,0.0700,0.3000,0.0600,0.0002,0,-0.3000,-100.0000,-0.0010,-0.3000,-100.0000,-0.0010,11.2089,34.7608,0.0200,0.0000
22.6370,11.2813,2.2387,-0.0829,0.0000,0.0000,0.0000,0.6400,0.0000,-0.1721,-0.0343,0.0017,996,1502,1500,1502,2008,1000,1505,1505,1505,1006,2008,1000,1014,0.0379,0.0383,0.0490,-0.0349,0.0699,0.9867,-0.1361,0.2047,0.1394,-0.2080,0.3036,0.4132,0.0700,0.3036,0.4132,0.0700,0.3000,0.0600,0.0002,0,-0.3000,-100.0000,-0.0010,-0.3000,-100.0000,-0.0010,11.2438,34.8025,0.0200,0.0000
22.5964,11.2623,2.2308,-0.0000,0.0821,0.0000,0.0000,0.6400,0.0000,-0.1719,-0.0342,0.0019,996,1502,1500,1502,2008,1000,1505,1505,1505,1006,2008,1000,1013,0.0237,-0.0410,-0.0138,-0.0343,0.0711,0.9867,-0.1359,0.2042,0.1396,-0.2079,0.3036,0.4132,0.0700,0.3036,0.4132,0.0700,0.3000,0.0600,0.0002,0,-0.3000,-100.0000,-0.0010,-0.3000,-100.0000,-0.0010,11.2787,34.8441,0.0200,0.0000
22.5559,11.2430,2.2229,-0.0829,0.0821,0.0000,0.0000,0.6400,0.0000,-0.1718,-0.0341,0.0019,996,1502,1500,1502,2008,1000,1505,1505,1505,1006,2008,1000,1013,0.0516,-0.0510,-0.0253,-0.0339,0.0716,0.9881,-0.1358,0.2040,0.1396,-0.2078,0.3036,0.4132,0.0700,0.3036,0.4132,0.0700,0.3000,0.0600,0.0002,0,-0.3000,-100.0000,-0.0010,-0.3000,-100.0000,-0.0010,11.3137,34.8857,0.0200,0.0000
22.5159,11.2235,2.2148,-0.0000,0.1642,0.0000,0.0000,0.6400,0.0000,-0.1717,-0.0340,0.0015,998,1504,1501,1502,2008,1000,1505,1505,1505,1006,2008,1000,1014,0.0738,-0.0391,0.0655,-0.0329,0.0692,0.9922,-0.1361,0.2042,0.1392,-0.2073,0.3036,0.4132,0.0700,0.3036,0.4132,0.0700,0.3000,0.0600,0.0002,0,-0.3000,-100.0000,-0.0010,-0.3000,-100.0000,-0.0010,11.3486,34.9273,0.0200,0.0000
22.4756,11.2040,2.2071,-0.0000,0.1642,0.0000,0.0000,0.6400,0.0000,-0.1716,-0.0340,0.0016,996,1502,1500,1502,2008,1000,1505,1505,1505,1006,2008,1000,1014,0.0299,-0.0013,0.0668,-0.0364,0.0718,0.9896,-0.1360,0.2040,0.1391,-0.2071,0.3036,0.4132,0.0700,0.3036,0.4132,0.0700,0.3000,0.0600,0.0002,0,-0.3000,-100.0000,-0.0010,-0.3000,-100.0000,-0.0010,11.3836,34.9689,0.0200,0.0000
22.4354,11.1847,2.2001,-0.0829,0.0000,0.0000,0.0000,0.6400,0.0000,-0.1714,-0.0340,0.0016,996,1502,1500,1502,2008,1000,1505,1505,1505,1006,2008,1000,1014,-0.0252,0.0202,0.0802,-0.0309,0.0697,0.9933,-0.1359,0.2038,0.1390,-0.2069,0.3036,0.4132,0.0700,0.3036,0.4132,0.0700,0.3000,0.0600,0.0002,0,-0.3000,-100.0000,-0.0010,-0.3000,-100.0000,-0.0010,11.4185,35.0105,0.0200,0.0000
22.3951,11.1653,2.1932,-0.0829,0.0821,0.0000,0.0000,0.6400,0.0000,-0.1713,-0.0339,0.0015,996,1502,1500,1502,2008,1000,1505,1505,1505,1006,2008,1000,1014,-0.0213,0.0365,0.1229,-0.0325,0.0727,0.9954,-0.1359,0.2037,0.1388,-0.2067,0.3036,0.4132,0.0700,0.3036,0.4132,0.0700,0.3000,0.0600,0.0002,0,-0.3000,-100.0000,-0.0010,-0.3000,-100.0000,-0.0010,11.4535,35.0520,0.0200,0.0000
22.3549,11.1460,2.1857,-0.0829,0.0000,0.0000,0.0000,0.6400,0.0000,-0.1712,-0.0338,0.0021,996,1502,1500,1502,2008,1000,1505,1505,1505,1006,2008,1000,1014,0.0449,0.0135,-0.0766,-0.0339,0.0699,0.9919,-0.1353,0.2030,0.1394,-0.2071,0.3036,0.4132,0.0700,0.3036,0.4132,0.0700,0.3000,0.0600,0.0002,0,-0.3000,-100.0000,-0.0010,-0.3000,-100.0000,-0.0010,11.4885,35.0936,0.0200,0.0000
22.3145,11.1268,2.1778,-0.0829,0.0000,0.0000,0.0000,0.6400,0.0000,-0.1711,-0.0338,0.0019,996,1502,1500,1502,2008,1000,1505,1505,1505,1006,2008,1000,1014,0.0120,-0.0144,-0.0290,-0.0335,0.0714,0.9922,-0.1354,0.2029,0.1392,-0.2068,0.3036,0.4132,0.0700,0.3036,0.4132,0.0700,0.3000,0.0600,0.0002,0,-0.3000,-100.0000,-0.0010,-0.3000,-100.0000,-0.0010,11.5234,35.1351,0.0200,0.0000
22.2740,11.1076,2.1702,-0.0829,0.0000,0.0000,0.0000,0.6400,0.0000,-0.1710,-0.0337,0.0016,998,1504,1501,1502,2008,1000,1505,1505,1505,1006,2008,1000,1014,0.0410,0.0305,0.0736,-0.0333,0.0696,0.9940,-0.1356,0.2031,0.1388,-0.2063,0.3036,0.4132,0.0700,0.3036,0.4132,0.0700,0.3000,0.0600,0.0002,0,-0.3000,-100.0000,-0.0010,-0.3000,-100.0000,-0.0010,11.5584,35.1767,0.0200,0.0000
22.2334,11.0878,2.1626,-0.0829,0.1642,0.0000,0.0000,0.6400,0.0000,-0.1708,-0.0336,0.0018,996,1502,1500,1502,2008,1000,1505,1505,1505,1006,2008,1000,1014,-0.0351,-0.0215,0.0172,-0.0330,0.0715,0.9928,-0.1353,0.2026,0.1389,-0.2062,0.3036,0.4132,0.0700,0.3036,0.4132,0.0700,0.3000,0.0600,0.0002,0,-0.3000,-100.0000,-0.0010,-0.3000,-100.0000,-0.0010,11.5934,35.2183,0.0200,0.0000
22.1927,11.0681,2.1549,-0.0829,0.0821,0.0000,0.0000,0.6400,0.0000,-0.1707,-0.0335,0.0018,996,1502,1500,1502,2008,1000,1505,1505,1505,1006,2008,1000,1014,-0.0180,-0.1439,0.0071,-0.0335,0.0709,0.9900,-0.1353,0.2023,0.1390,-0.2060,0.3036,0.4132,0.0700,0.3036,0.4132,0.0700,0.3000,0.0600,0.0002,0,-0.3000,-100.0000,-0.0010,-0.3000,-100.0000,-0.0010,11.6284,35.2599,0.0200,0.0000
22.1524,11.0482,2.1469,-0.0000,0.1642,0.0000,0.0000,0.6400,0.0000,-0.1706,-0.0335,0.0018,996,1502,1500,1502,2008,1000,1505,1505,1505,1006,2008,1000,1014,0.0246,-0.0176,0.0076,-0.0345,0.0704,0.9917,-0.1352,0.2023,0.1389,-0.2059,0.3036,0.4132,0.0700,0.3036,0.4132,0.0700,0.3000,0.0600,0.0002,0,-0.3000,-100.0000,-0.0010,-0.3000,-100.0000,-0.0010,11.6634,35.3015,0.0200,0.0000
22.1117,11.0290,2.1390,-0.0829,0.0821,0.0000,0.0000,0.6400,0.0000,-0.1704,-0.0334,0.0021,996,1502,1500,1502,2008,1000,1505,1505,1505,1006,2008,1000,1013,-0.0232,-0.0616,-0.0525,-0.0355,0.0691,0.9910,-0.1349,0.2018,0.1391,-0.2059,0.3036,0.4132,0.0700,0.3036,0.4132,0.0700,0.3000,0.0600,0.0002,0,-0.3000,-100.0000,-0.0010,-0.3000,-100.0000,-0.0010,11.6984,35.3430,0.0200,0.0000
22.0709,11.0105,2.1311,-0.0829,0.0821,0.0000,0.0000,0.6400,0.0000,-0.1703,-0.0334,0.0020,996,1502,1500,1502,2008,1000,1505,1505,1505,1006,2008,1000,1013,-0.0074,0.0154,-0.0273,-0.0344,0.0690,0.9933,-0.1349,0.2017,0.1389,-0.2057,0.3036,0.4132,0.0700,0.3036,0.4132,0.0700,0.3000,0.0600,0.0002,0,-0.3000,-100.0000,-0.0010,-0.3000,-100.0000,-0.0010,11.7335,35.3844,0.0200,0.0000
22.0302,10.9910,2.1234,-0.0000,0.0821,0.0000,0.0000,0.6400,0.0000,-0.1702,-0.0334,0.0018,998,1504,1501,1502,2008,1000,1505,1505,1505,1006,2008,1000,1013,0.0237,0.0096,0.0310,-0.0320,0.0685,0.9913,-0.1350,0.2018,0.1386,-0.2054,0.3036,0.4132,0.0700,0.3036,0.4132,0.0700,0.3000,0.0600,0.0002,0,-0.3000,-100.0000,-0.0010,-0.3000,-100.0000,-0.0010,11.7685,35.4259,0.0200,0.0000
21.9897,10.9716,2.1155,-0.0000,0.0821,0.0000,0.0000,0.6400,0.0000,-0.1701,-0.0333,0.0019,996,1502,1500,1502,2008,1000,1505,1505,1505,1006,2008,1000,1014,-0.0088,-0.0663,-0.0264,-0.0372,0.0720,0.9940,-0.1349,0.2014,0.1387,-0.2052,0.3036,0.4132,0.0700,0.3036,0.4132,0.0700,0.3000,0.0600,0.0002,0,-0.3000,-100.0000,-0.0010,-0.3000,-100.0000,-0.0010,11.8035,35.4673,0.0200,0.0000
21.9487,10.9524,2.1075,-0.0829,0.0821,0.0000,0.0000,0.6400,0.0000,-0.1699,-0.0332,0.0019,996,1502,1500,1502,2008,1000,1505,1505,1505,1006,2008,1000,1014,-0.0427,-0.0125,-0.0028,-0.0370,0.0727,0.9908,-0.1348,0.2012,0.1386,-0.2051,0.3036,0.4132,0.0700,0.3036,0.4132,0.0700,0.3000,0.0600,0.0002,0,-0.3000,-100.0000,-0.0010,-0.3000,-100.0000,-0.0010,11.8385,35.5088,0.0200,0.0000
21.9077,10.9324,2.0994,-0.0000,0.0821,0.0000,0.0000,0.6400,0.0000,-0.1698,-0.0331,0.0017,996,1502,1500,1502,2008,1000,1505,1505,1505,1006,2008,1000,1013,0.0138,-0.0977,0.0361,-0.0366,0.0710,0.9918,-0.1350,0.2012,0.1384,-0.2047,0.3036,0.4132,0.0700,0.3036,0.4132,0.0700,0.3000,0.0600,0.0002,0,-0.3000,-100.0000,-0.0010,-0.3000,-100.0000,-0.0010,11.8736,35.5502,0.0200,0.0000
21.8671,10.9128,2.0917,-0.1657,0.0821,0.0000,0.0000,0.6400,0.0000,-0.1697,-0.0331,0.0018,996,1502,1500,1502,2008,1000,1505,1505,1505,1006,2008,1000,1013,0.0064,-0.0662,0.0356,-0.0335,0.0685,0.9913,-0.1348,0.2010,0.1384,-0.2045,0.3036,0.4132,0.0700,0.3036,0.4132,0.0700,0.3000,0.0600,0.0002,0,-0.3000,-100.0000,-0.0010,-0.3000,-100.0000,-0.0010,11.9086,35.5917,0.0200,0.0000
21.8267,10.8932,2.0843,-0.0829,0.0821,0.0000,0.0000,0.6400,0.0000,-0.1696,-0.0331,0.0019,996,1502,1500,1502,2008,1000,1505,1505,1505,1006,2008,1000,1014,-0.0072,0.0317,0.0058,-0.0328,0.0684,0.9930,-0.1346,0.2007,0.1384,-0.2046,0.3036,0.4132,0.0700,0.3036,0.4132,0.0700,0.3000,0.0600,0.0002,0,-0.3000,-100.0000,-0.0010,-0.3000,-100.0000,-0.0010,11.9437,35.6331,0.0200,0.0000
21.7864,10.8743,2.0767,-0.0000,0.1642,0.0000,0.0000,0.6400,0.0000,-0.1695,-0.0330,0.0019,998,1504,1501,1502,2008,1000,1505,1505,1505,1006,2008,1000,1014,0.0772,0.0263,0.0169,-0.0334,0.0681,0.9930,-0.1346,0.2007,0.1383,-0.2044,0.3036,0.4132,0.0700,0.3036,0.4132,0.0700,0.3000,0.0600,0.0002,0,-0.3000,-100.0000,-0.0010,-0.3000,-100.0000,-0.0010,11.9787,35.6745,0.0200,0.0000
21.7464,10.8552,2.0691,-0.0000,0.0821,0.0000,0.0000,0.6400,0.0000,-0.1693,-0.0329,0.0019,996,1502,1500,1502,2008,1000,1505,1505,1505,1006,2008,1000,1014,-0.0018,-0.0755,0.0029,-0.0360,0.0721,0.9943,-0.1345,0.2003,0.1383,-0.2041,0.3036,0.4132,0.0700,0.3036,0.4132,0.0700,0.3000,0.0600,0.0002,0,-0.3000,-100.0000,-0.0010,-0.3000,-100.0000,-0.0010,12.0138,35.7158,0.0200,0.0000
21.7066,10.8358,2.0614,-0.0000,0.0821,0.0000,0.0000,0.6400,0.0000,-0.1692,-0.0329,0.0018,996,1502,1500,1502,2008,1000,1505,1505,1505,1006,2008,1000,1013,0.0611,0.0360,0.0204,-0.0350,0.0690,0.9877,-0.1345,0.2004,0.1381,-0.2040,0.3036,0.4132,0.0700,0.3036,0.4132,0.0700,0.3000,0.0600,0.0002,0,-0.3000,-100.0000,-0.0010,-0.3000,-100.0000,-0.0010,12.0489,35.7572,0.0200,0.0000
21.6663,10.8163,2.0538,-0.0829,0.0821,0.0000,0.0000,0.6400,0.0000,-0.1691,-0.0328,0.0017,996,1502,1500,1502,2008,1000,1505,1505,1505,1006,2008,1000,1013,0.0695,-0.0947,0.0616,-0.0357,0.0721,0.9896,-0.1346,0.2002,0.1381,-0.2036,0.3036,0.4132,0.0700,0.3036,0.4132,0.0700,0.3000,0.0600,0.0002,0,-0.3000,-100.0000,-0.0010,-0.3000,-100.0000,-0.0010,12.0839,35.7986,0.0200,0.0000
21.6262,10.7967,2.0466,-0.0829,0.0000,0.0000,0.0000,0.6400,0.0000,-0.1690,-0.0328,0.0018,996,1502,1500,1502,2008,1000,1505,1505,1505,1006,2008,1000,1013,0.0148,-0.0115,0.0346,-0.0327,0.0691,0.9880,-0.1344,0.1999,0.1380,-0.2036,0.3036,0.4132,0.0700,0.3036,0.4132,0.0700,0.3000,0.0600,0.0002,0,-0.3000,-100.0000,-0.0010,-0.3000,-100.0000,-0.0010,12.1190,35.8400,0.0200,0.0000
21.5855,10.7771,2.0396,-0.1657,0.0821,0.0000,0.0000,0.6400,0.0000,-0.1688,-0.0327,0.0016,996,1502,1500,1502,2008,1000,1505,1505,1505,1006,2008,1000,1013,-0.0057,-0.0422,0.0848,-0.0367,0.0696,0.9898,-0.1345,0.1999,0.1378,-0.2032,0.3036,0.4132,0.0700,0.3036,0.4132,0.0700,0.3000,0.0600,0.0002,0,-0.3000,-100.0000,-0.0010,-0.3000,-100.0000,-0.0010,12.1541,35.8814,0.0200,0.0000
21.5449,10.7575,2.0326,-0.1657,0.0821,0.0000,0.0000,0.6400,0.0000,-0.1687,-0.0326,0.0019,998,1504,1501,1502,2008,1000,1505,1505,1505,1006,2008,1000,1013,-0.0148,-0.0423,0.0116,-0.0353,0.0692,0.9891,-0.1342,0.1994,0.1380,-0.2032,0.3036,0.4132,0.0700,0.3036,0.4132,0.0700,0.3000,0.0600,0.0002,0,-0.3000,-100.0000,-0.0010,-0.3000,-100.0000,-0.0010,12.1892,35.9227,0.0200,0.0000
21.5046,10.7381,2.0246,-0.0000,0.0821,0.0000,0.0000,0.6400,0.0000,-0.1686,-0.0326,0.0018,996,1502,1500,1502,2008,1000,1505,1505,1505,1006,2008,1000,1014,0.0618,-0.0255,0.0135,-0.0361,0.0745,0.9928,-0.1342,0.1994,0.1379,-0.2030,0.3036,0.4132,0.0700,0.3036,0.4132,0.0700,0.3000,0.0600,0.0002,0,-0.3000,-100.0000,-0.0010,-0.3000,-100.0000,-0.0010,12.2243,35.9641,0.0200,0.0000
21.4639,10.7192,2.0176,-0.0000,0.1642,0.0000,0.0000,0.6400,0.0000,-0.1685,-0.0326,0.0017,996,1502,1500,1502,2008,1000,1505,1505,1505,1006,2008,1000,1014,-0.0038,0.0375,0.0914,-0.0352,0.0697,0.9903,-0.1342,0.1994,0.1376,-0.2027,0.3036,0.4132,0.0700,0.3036,0.4132,0.0700,0.3000,0.0600,0.0002,0,-0.3000,-100.0000,-0.0010,-0.3000,-100.0000,-0.0010,12.2594,36.0054,0.0200,0.0000
21.4231,10.6993,2.0102,-0.0000,0.1642,0.0000,0.0000,0.6400,0.0000,-0.1683,-0.0324,0.0019,996,1502,1500,1502,2008,1000,1505,1505,1505,1006,2008,1000,1013,-0.0519,-0.1393,0.0052,-0.0347,0.0702,0.9893,-0.1340,0.1988,0.1378,-0.2026,0.3036,0.4132,0.0700,0.3036,0.4132,0.0700,0.3000,0.0600,0.0002,0,-0.3000,-100.0000,-0.0010,-0.3000,-100.0000,-0.0010,12.2945,36.0467,0.0200,0.0000
21.3822,10.6790,2.0026,-0.0000,0.1642,0.0000,0.0000,0.6400,0.0000,-0.1682,-0.0324,0.0017,996,1502,1500,1502,2008,1000,1505,1505,1505,1006,2008,1000,1013,0.0300,-0.0415,0.0650,-0.0337,0.0709,0.9896,-0.1341,0.1989,0.1376,-0.2024,0.3036,0.4132,0.0700,0.3036,0.4132,0.0700,0.3000,0.0600,0.0002,0,-0.3000,-100.0000,-0.0010,-0.3000,-100.0000,-0.0010,12.3296,36.0880,0.0200,0.0000
21.3419,10.6593,1.9951,-0.0000,0.0821,0.0000,0.0000,0.6400,0.0000,-0.1681,-0.0323,0.0019,996,1502,1500,1502,2008,1000,1505,1505,1505,1006,2008,1000,1014,0.0459,-0.0214,-0.0111,-0.0332,0.0689,0.9877,-0.1339,0.1985,0.1377,-0.2024,0.3036,0.4132,0.0700,0.3036,0.4132,0.0700,0.3000,0.0600,0.0002,0,-0.3000,-100.0000,-0.0010,-0.3000,-100.0000,-0.0010,12.3647,36.1293,0.0200,0.0000
21.3014,10.6393,1.9875,-0.0000,0.0821,0.0000,0.0000,0.6400,0.0000,-0.1680,-0.0322,0.0019,998,1504,1501,1502,2008,1000,1505,1505,1505,1006,2008,1000,1013,-0.0060,-0.1324,0.0207,-0.0322,0.0720,0.9908,-0.1338,0.1982,0.1377,-0.2021,0.3036,0.4132,0.0700,0.3036,0.4132,0.0700,0.3000,0.0600,0.0002,0,-0.3000,-100.0000,-0.0010,-0.3000,-100.0000,-0.0010,12.3998,36.1706,0.0200,0.0000
21.2606,10.6193,1.9798,-0.0000,0.1642,0.0000,0.0000,0.6400,0.0000,-0.1678,-0.0323,0.0020,996,1502,1500,1502,2008,1000,1505,1505,1505,1006,2008,1000,1013,-0.0281,0.0329,-0.0168,-0.0345,0.0704,0.9904,-0.1336,0.1981,0.1376,-0.2021,0.3036,0.4132,0.0700,0.3036,0.4132,0.0700,0.3000,0.0600,0.0002,0,-0.3000,-100.0000,-0.0010,-0.3000,-100.0000,-0.0010,12.4350,36.2119,0.0200,0.0000
21.2201,10.6004,1.9729,-0.0829,0.0821,0.0000,0.0000,0.6400,0.0000,-0.1677,-0.0322,0.0019,996,1502,1500,1502,2008,1000,1505,1505,1505,1006,2008,1000,1013,0.0019,0.0380,0.0279,-0.0342,0.0710,0.9891,-0.1336,0.1980,0.1374,-0.2018,0.3036,0.4132,0.0700,0.3036,0.4132,0.0700,0.3000,0.0600,0.0002,0,-0.3000,-100.0000,-0.0010,-0.3000,-100.0000,-0.0010,12.4701,36.2533,0.0200,0.0000
21.1795,10.5813,1.9659,-0.0829,0.1642,0.0000,0.0000,0.6400,0.0000,-0.1676,-0.0321,0.0016,996,1502,1500,1502,2008,1000,1505,1505,1505,1006,2008,1000,1013,-0.0366,-0.0154,0.1053,-0.0351,0.0708,0.9907,-0.1339,0.1981,0.1371,-0.2013,0.3036,0.4132,0.0700,0.3036,0.4132,0.0700,0.3000,0.0600,0.0002,0,-0.3000,-100.0000,-0.0010,-0.3000,-100.0000,-0.0010,12.5052,36.2945,0.0200,0.0000
21.1387,10.5620,1.9589,-0.0829,0.0821,0.0000,0.0000,0.6400,0.0000,-0.1675,-0.0321,0.0019,996,1502,1500,1502,2008,1000,1505,1505,1505,1006,2008,1000,1014,0.0134,0.0243,0.0324,-0.0365,0.0708,0.9898,-0.1335,0.1977,0.1373,-0.2014,0.3036,0.4132,0.0700,0.3036,0.4132,0.0700,0.3000,0.0600,0.0002,0,-0.3000,-100.0000,-0.0010,-0.3000,-100.0000,-0.0010,12.5404,36.3358,0.0200,0.0000
21.0982,10.5426,1.9517,-0.0829,0.0821,0.0000,0.0000,0.6400,0.0000,-0.1673,-0.0320,0.0020,996,1502,1500,1502,2008,1000,1505,1505,1505,1006,2008,1000,1014,-0.0132,-0.0399,-0.0017,-0.0347,0.0705,0.9884,-0.1334,0.1973,0.1374,-0.2013,0.3036,0.4132,0.0700,0.3036,0.4132,0.0700,0.3000,0.0600,0.0002,0,-0.3000,-100.0000,-0.0010,-0.3000,-100.0000,-0.0010,12.5755,36.3770,0.0200,0.0000
21.0572,10.5227,1.9438,-0.0829,0.0821,0.0000,0.0000,0.6400,0.0000,-0.1673,-0.0319,0.0021,998,1504,1501,1502,2008,1000,1505,1505,1505,1006,2008,1000,1013,0.0316,-0.0947,-0.0163,-0.0374,0.0698,0.9902,-0.1333,0.1971,0.1374,-0.2012,0.3036,0.4132,0.0700,0.3036,0.4132,0.0700,0.3000,0.0600,0.0002,0,-0.3000,-100.0000,-0.0010,-0.3000,-100.0000,-0.0010,12.6107,36.4183,0.0200,0.0000
21.0168,10.5031,1.9362,-0.0829,0.0821,0.0000,0.0000,0.6400,0.0000,-0.1671,-0.0319,0.0020,996,1502,1500,1502,2008,1000,1505,1505,1505,1006,2008,1000,1013,0.0600,-0.0078,-0.0028,-0.0347,0.0687,0.9930,-0.1333,0.1970,0.1373,-0.2010,0.3036,0.4132,0.0700,0.3036,0.4132,0.0700,0.3000,0.0600,0.0002,0,-0.3000,-100.0000,-0.0010,-0.3000,-100.0000,-0.0010,12.6459,36.4595,0.0200,0.0000
20.9758,10.4837,1.9286,-0.0829,0.0821,0.0000,0.0000,0.6400,0.0000,-0.1670,-0.0318,0.0016,996,1502,1500,1502,2008,1000,1505,1505,1505,1006,2008,1000,1013,-0.0038,0.0061,0.1017,-0.0368,0.0719,0.9918,-0.1335,0.1972,0.1368,-0.2004,0.3036,0.4132,0.0700,0.3036,0.4132,0.0700,0.3000,0.0600,0.0002,0,-0.3000,-100.0000,-0.0010,-0.3000,-100.0000,-0.0010,12.6810,36.5007,0.0200,0.0000
20.9351,10.4646,1.9218,-0.0000,0.0000,0.0000,0.0000,0.6400,0.0000,-0.1669,-0.0318,0.0019,996,1502,1500,1502,2008,1000,1505,1505,1505,1006,2008,1000,1013,0.0213,0.0460,0.0486,-0.0371,0.0692,0.9913,-0.1332,0.1968,0.1369,-0.2005,0.3036,0.4132,0.0700,0.3036,0.4132,0.0700,0.3000,0.0600,0.0002,0,-0.3000,-100.0000,-0.0010,-0.3000,-100.0000,-0.0010,12.7162,36.5420,0.0200,0.0000
20.8942,10.4452,1.9143,-0.0000,0.0821,0.0000,0.0000,0.6400,0.0000,-0.1668,-0.0317,0.0020,996,1502,1500,1502,2008,1000,1505,1505,1505,1006,2008,1000,1013,0.0335,-0.0066,-0.0090,-0.0350,0.0700,0.9938,-0.1331,0.1965,0.1370,-0.2004,0.3036,0.4132,0.0700,0.3036,0.4132,0.0700,0.3000,0.0600,0.0002,0,-0.3000,-100.0000,-0.0010,-0.3000,-100.0000,-0.0010,12.7514,36.5832,0.0200,0.0000
20.8534,10.4260,1.9067,-0.0000,0.0821,0.0000,0.0000,0.6400,0.0000,-0.1666,-0.0317,0.0020,996,1502,1500,1502,2008,1000,1505,1505,1505,1006,2008,1000,1013,0.0069,-0.0041,-0.0236,-0.0354,0.0713,0.9903,-0.1329,0.1962,0.1370,-0.2003,0.3036,0.4132,0.0700,0.3036,0.4132,0.0700,0.3000,0.0600,0.0002,0,-0.3000,-100.0000,-0.0010,-0.3000,-100.0000,-0.0010,12.7866,36.6244,0.0200,0.0000
20.8129,10.4066,1.8989,-0.0000,0.0821,0.0000,0.0000,0.6400,0.0000,-0.1665,-0.0316,0.0018,998,1504,1501,1502,2008,1000,1505,1505,1505,1006,2008,1000,1014,0.0591,-0.0495,0.0592,-0.0351,0.0712,0.9912,-0.1332,0.1963,0.1367,-0.1999,0.3036,0.4132,0.0700,0.3036,0.4132,0.0700,0.3000,0.0600,0.0002,0,-0.3000,-100.0000,-0.0010,-0.3000,-100.0000,-0.0010,12.8217,36.6656,0.0200,0.0000
20.7724,10.3868,1.8915,-0.0829,0.1642,0.0000,0.0000,0.6400,0.0000,-0.1664,-0.0315,0.0020,996,1502,1500,1502,2008,1000,1505,1505,1505,1006,2008,1000,1014,-0.0209,0.0074,0.0021,-0.0369,0.0705,0.9899,-0.1328,0.1959,0.1368,-0.1999,0.3036,0.4132,0.0700,0.3036,0.4132,0.0700,0.3000,0.0600,0.0002,0,-0.3000,-100.0000,-0.0010,-0.3000,-100.0000,-0.0010,12.8569,36.7067,0.0200,0.0000
20.7315,10.3669,1.8841,-0.0829,0.0821,0.0000,0.0000,0.6400,0.0000,-0.1663,-0.0314,0.0019,996,1502,1500,1502,2008,1000,1505,1505,1505,1006,2008,1000,1013,0.0223,-0.0944,0.0079,-0.0349,0.0695,0.9926,-0.1329,0.1957,0.1368,-0.1996,0.3036,0.4132,0.0700,0.3036,0.4132,0.0700,0.3000,0.0600,0.0002,0,-0.3000,-100.0000,-0.0010,-0.3000,-100.0000,-0.0010,12.8921,36.7479,0.0200,0.0000
20.6908,10.3473,1.8770,-0.0000,0.1642,0.0000,0.0000,0.6400,0.0000,-0.1662,-0.0314,0.0018,996,1502,1500,1502,2008,1000,1505,1505,1505,1006,2008,1000,1013,0.0674,-0.0768,0.0539,-0.0329,0.0713,0.9952,-0.1330,0.1957,0.1366,-0.1994,0.3036,0.4132,0.0700,0.3036,0.4132,0.0700,0.3000,0.0600,0.0002,0,-0.3000,-100.0000,-0.0010,-0.3000,-100.0000,-0.0010,12.9273,36.7890,0.0200,0.0000
20.6501,10.3273,1.8705,-0.0000,0.0000,0.0000,0.0000,0.6400,0.0000,-0.1660,-0.0314,0.0018,996,1502,1500,1502,2008,1000,1505,1505,1505,1006,2008,1000,1014,-0.0086,-0.0045,0.0808,-0.0337,0.0739,0.9931,-0.1329,0.1956,0.1364,-0.1991,0.3036,0.4132,0.0700,0.3036,0.4132,0.0700,0.3000,0.0600,0.0002,0,-0.3000,-100.0000,-0.0010,-0.3000,-100.0000,-0.0010,12.9626,36.8302,0.0200,0.0000
20.6093,10.3084,1.8632,-0.0829,0.0821,0.0000,0.0000,0.6400,0.0000,-0.1659,-0.0314,0.0021,996,1502,1500,1502,2008,1000,1505,1505,1505,1006,2008,1000,1014,0.0032,0.0884,-0.0330,-0.0353,0.0712,0.9919,-0.1324,0.1951,0.1366,-0.1993,0.3036,0.4132,0.0700,0.3036,0.4132,0.0700,0.3000,0.0600,0.0002,0,-0.3000,-100.0000,-0.0010,-0.3000,-100.0000,-0.0010,12.9978,36.8714,0.0200,0.0000
20.5685,10.2897,1.8558,-0.0000,0.0000,0.0000,0.0000,0.6400,0.0000,-0.1658,-0.0312,0.0020,998,1504,1501,1502,2008,1000,1505,1505,1505,1006,2008,1000,1013,0.0236,0.0071,-0.0109,-0.0378,0.0720,0.9911,-0.1326,0.1950,0.1365,-0.1990,0.3036,0.4132,0.0700,0.3036,0.4132,0.0700,0.3000,0.0600,0.0002,0,-0.3000,-100.0000,-0.0010,-0.3000,-100.0000,-0.0010,13.0330,36.9124,0.0200,0.0000
20.5277,10.2703,1.8484,-0.0000,0.1642,0.0000,0.0000,0.6400,0.0000,-0.1656,-0.0312,0.0019,996,1502,1500,1502,2008,1000,1505,1505,1505,1006,2008,1000,1013,0.0221,-0.0338,0.0200,-0.0379,0.0709,0.9943,-0.1326,0.1949,0.1364,-0.1987,0.3036,0.4132,0.0700,0.3036,0.4132,0.0700,0.3000,0.0600,0.0002,0,-0.3000,-100.0000,-0.0010,-0.3000,-100.0000,-0.0010,13.0682,36.9535,0.0200,0.0000
20.4870,10.2508,1.8412,-0.0000,0.0821,0.0000,0.0000,0.6400,0.0000,-0.1655,-0.0311,0.0019,996,1502,1500,1502,2008,1000,1505,1505,1505,1006,2008,1000,1013,0.0220,-0.0182,0.0120,-0.0328,0.0681,0.9962,-0.1325,0.1947,0.1363,-0.1986,0.3036,0.4132,0.0700,0.3036,0.4132,0.0700,0.3000,0.0600,0.0002,0,-0.3000,-100.0000,-0.0010,-0.3000,-100.0000,-0.0010,13.1034,36.9946,0.0200,0.0000
20.4460,10.2309,1.8340,-0.0829,0.0000,0.0000,0.0000,0.6400,0.0000,-0.1654,-0.0310,0.0018,996,1502,1500,1502,2008,1000,1505,1505,1505,1006,2008,1000,1013,-0.0055,-0.0270,0.0775,-0.0341,0.0715,0.9981,-0.1325,0.1946,0.1361,-0.1982,0.3036,0.4132,0.0700,0.3036,0.4132,0.0700,0.3000,0.0600,0.0002,0,-0.3000,-100.0000,-0.0010,-0.3000,-100.0000,-0.0010,13.1387,37.0356,0.0200,0.0000
20.4053,10.2110,1.8276,-0.0829,0.0821,0.0000,0.0000,0.6400,0.0000,-0.1653,-0.0310,0.0019,996,1502,1500,1502,2008,1000,1505,1505,1505,1006,2008,1000,1013,0.0107,0.0352,0.0568,-0.0351,0.0688,0.9935,-0.1323,0.1944,0.1361,-0.1982,0.3036,0.4132,0.0700,0.3036,0.4132,0.0700,0.3000,0.0600,0.0002,0,-0.3000,-100.0000,-0.0010,-0.3000,-100.0000,-0.0010,13.1739,37.0766,0.0200,0.0000
20.3647,10.1912,1.8207,-0.0000,0.0821,0.0000,0.0000,0.6400,0.0000,-0.1652,-0.0309,0.0018,996,1502,1500,1502,2008,1000,1505,1505,1505,1006,2008,1000,1014,0.0841,-0.0549,0.0911,-0.0357,0.0720,0.9986,-0.1325,0.1943,0.1361,-0.1979,0.3036,0.4132,0.0700,0.3036,0.4132,0.0700,0.3000,0.0600,0.0002,0,-0.3000,-100.0000,-0.0010,-0.3000,-100.0000,-0.0010,13.2092,37.1176,0.0200,0.0000
20.3245,10.1709,1.8128,-0.0000,0.1642,0.0000,0.0000,0.6400,0.0000,-0.1651,-0.0308,0.0023,998,1504,1501,1502,2008,1000,1505,1505,1505,1006,2008,1000,1013,0.0945,-0.1486,-0.0809,-0.0335,0.0684,0.9920,-0.1320,0.1936,0.1366,-0.1981,0.3036,0.4132,0.0700,0.3036,0.4132,0.0700,0.3000,0.0600,0.0002,0,-0.3000,-100.0000,-0.0010,-0.3000,-100.0000,-0.0010,13.2444,37.1587,0.0200,0.0000
20.2839,10.1507,1.8054,-0.0829,0.0821,0.0000,0.0000,0.6400,0.0000,-0.1649,-0.0308,0.0019,996,1502,1500,1502,2008,1000,1505,1505,1505,1006,2008,1000,1013,0.0439,-0.0175,0.0659,-0.0325,0.0691,0.9889,-0.1323,0.1939,0.1360,-0.1976,0.3036,0.4132,0.0700,0.3036,0.4132,0.0700,0.3000,0.0600,0.0002,0,-0.3000,-100.0000,-0.0010,-0.3000,-100.0000,-0.0010,13.2797,37.1997,0.0200,0.0000
20.2432,10.1305,1.7984,-0.0829,0.0821,0.0000,0.0000,0.6400,0.0000,-0.1647,-0.0308,0.0019,996,1502,1500,1502,2008,1000,1505,1505,1505,1006,2008,1000,1013,-0.0304,0.0092,0.0633,-0.0333,0.0694,0.9890,-0.1321,0.1936,0.1358,-0.1974,0.3036,0.4132,0.0700,0.3036,0.4132,0.0700,0.3000,0.0600,0.0002,0,-0.3000,-100.0000,-0.0010,-0.3000,-100.0000,-0.0010,13.3150,37.2408,0.0200,0.0000
20.2021,10.1113,1.7920,-0.0829,0.0000,0.0000,0.0000,0.6400,0.0000,-0.1646,-0.0307,0.0020,996,1502,1500,1502,2008,1000,1505,1505,1505,1006,2008,1000,1013,-0.0607,0.0495,0.0240,-0.0344,0.0704,0.9961,-0.1318,0.1933,0.1359,-0.1974,0.3036,0.4132,0.0700,0.3036,0.4132,0.0700,0.3000,0.0600,0.0002,0,-0.3000,-100.0000,-0.0010,-0.3000,-100.0000,-0.0010,13.3503,37.2818,0.0200,0.0000
20.1613,10.0919,1.7856,-0.0829,0.0821,0.0000,0.0000,0.6400,0.0000,-0.1645,-0.0306,0.0019,996,1502,1500,1502,2008,1000,1505,1505,1505,1006,2008,1000,1013,0.0094,-0.0011,0.0875,-0.0357,0.0706,0.9912,-0.1320,0.1933,0.1357,-0.1970,0.3036,0.4132,0.0700,0.3036,0.4132,0.0700,0.3000,0.0600,0.0002,0,-0.3000,-100.0000,-0.0010,-0.3000,-100.0000,-0.0010,13.3856,37.3228,0.0200,0.0000
20.1204,10.0717,1.7779,-0.0829,0.0821,0.0000,0.0000,0.6400,0.0000,-0.1644,-0.0305,0.0021,996,1502,1500,1502,2008,1000,1505,1505,1505,1006,2008,1000,1013,0.0187,-0.1160,-0.0224,-0.0353,0.0682,0.9916,-0.1318,0.1928,0.1360,-0.1970,0.3036,0.4132,0.0700,0.3036,0.4132,0.0700,0.3000,0.0600,0.0002,0,-0.3000,-100.0000,-0.0010,-0.3000,-100.0000,-0.0010,13.4209,37.3638,0.0200,0.0000
20.0793,10.0514,1.7702,-0.0829,0.0000,0.0000,0.0000,0.6400,0.0000,-0.1643,-0.0305,0.0020,998,1504,1501,1502,2008,1000,1505,1505,1505,1006,2008,1000,1013,-0.0003,-0.0692,0.0405,-0.0337,0.0687,0.9953,-0.1318,0.1928,0.1357,-0.1967,0.3036,0.4132,0.0700,0.3036,0.4132,0.0700,0.3000,0.0600,0.0002,0,-0.3000,-100.0000,-0.0010,-0.3000,-100.0000,-0.0010,13.4562,37.4048,0.0200,0.0000
20.0381,10.0316,1.7632,-0.0829,0.0000,0.0000,0.0000,0.6400,0.0000,-0.1641,-0.0304,0.0021,996,1502,1500,1502,2008,1000,1505,1505,1505,1006,2008,1000,1013,-0.0196,-0.0161,-0.0213,-0.0333,0.0722,0.9944,-0.1315,0.1924,0.1358,-0.1967,0.3036,0.4132,0.0700,0.3036,0.4132,0.0700,0.3000,0.0600,0.0002,0,-0.3000,-100.0000,-0.0010,-0.3000,-100.0000,-0.0010,13.4915,37.4458,0.0200,0.0000
19.9971,10.0119,1.7563,-0.0829,0.0000,0.0000,0.0000,0.6400,0.0000,-0.1640,-0.0303,0.0020,996,1502,1500,1502,2008,1000,1505,1505,1505,1006,2008,1000,1013,0.0332,-0.0675,0.0376,-0.0327,0.0724,0.9895,-0.1317,0.1924,0.1357,-0.1964,0.3036,0.4132,0.0700,0.3036,0.4132,0.0700,0.3000,0.0600,0.0002,0,-0.3000,-100.0000,-0.0010,-0.3000,-100.0000,-0.0010,13.5268,37.4868,0.0200,0.0000
19.9565,9.9917,1.7493,-0.0000,0.0000,0.0000,0.0000,0.6400,0.0000,-0.1639,-0.0303,0.0019,996,1502,1500,1502,2008,1000,1505,1505,1505,1006,2008,1000,1014,0.0369,-0.0372,0.0537,-0.0330,0.0726,0.9888,-0.1317,0.1923,0.1355,-0.1961,0.3036,0.4132,0.0700,0.3036,0.4132,0.0700,0.3000,0.0600,0.0002,0,-0.3000,-100.0000,-0.0010,-0.3000,-100.0000,-0.0010,13.5621,37.5278,0.0200,0.0000
19.9160,9.9714,1.7424,-0.0829,0.0821,0.0000,0.0000,0.6400,0.0000,-0.1638,-0.0302,0.0020,996,1502,1500,1502,2008,1000,1505,1505,1505,1006,2008,1000,1014,0.0498,-0.0417,0.0075,-0.0314,0.0705,0.9929,-0.1315,0.1920,0.1356,-0.1961,0.3036,0.4132,0.0700,0.3036,0.4132,0.0700,0.3000,0.0600,0.0002,0,-0.3000,-100.0000,-0.0010,-0.3000,-100.0000,-0.0010,13.5975,37.5688,0.0200,0.0000
19.8758,9.9512,1.7359,-0.0829,0.0000,0.0000,0.0000,0.6400,0.0000,-0.1637,-0.0302,0.0019,996,1502,1500,1502,2008,1000,1505,1505,1505,1006,2008,1000,1013,0.0416,-0.0200,0.0330,-0.0336,0.0690,0.9969,-0.1315,0.1919,0.1354,-0.1958,0.3036,0.4132,0.0700,0.3036,0.4132,0.0700,0.3000,0.0600,0.0002,0,-0.3000,-100.0000,-0.0010,-0.3000,-100.0000,-0.0010,13.6328,37.6097,0.0200,0.0000
19.8350,9.9314,1.7294,-0.0829,0.0821,0.0000,0.0600,0.6400,0.0000,-0.1635,-0.0300,0.0019,997,1503,1500,1502,2008,1000,1505,1505,1505,1006,2008,1000,1013,-0.0400,0.0348,0.0428,-0.0324,0.0716,0.9959,-0.1315,0.1915,0.1354,-0.1954,0.3036,0.4132,0.0700,0.3036,0.4132,0.0700,0.3000,0.0600,0.0002,0,-0.3000,-100.0000,-0.0010,-0.3000,-100.0000,-0.0010,13.6681,37.6507,0.0400,0.0100
19.7943,9.9116,1.7222,-0.0000,0.0821,0.0000,0.0000,0.6400,0.0000,-0.1634,-0.0301,0.0020,996,1502,1500,1502,2008,1000,1505,1505,1505,1006,2008,1000,1013,0.0441,-0.0529,0.0201,-0.0355,0.0680,0.9952,-0.1314,0.1915,0.1354,-0.1955,0.3036,0.4132,0.0700,0.3036,0.4132,0.0700,0.3000,0.0600,0.0002,0,-0.3000,-100.0000,-0.0010,-0.3000,-100.0000,-0.0010,13.7035,37.6915,0.0200,0.0000
19.7535,9.8920,1.7149,-0.1657,0.0000,0.0000,0.0000,0.6400,0.0000,-0.1633,-0.0300,0.0020,996,1502,1500,1502,2008,1000,1505,1505,1505,1006,2008,1000,1014,0.0505,0.0031,-0.0001,-0.0339,0.0715,0.9907,-0.1312,0.1913,0.1353,-0.1954,0.3036,0.4132,0.0700,0.3036,0.4132,0.0700,0.3000,0.0600,0.0002,0,-0.3000,-100.0000,-0.0010,-0.3000,-100.0000,-0.0010,13.7388,37.7324,0.0200,0.0000
19.7132,9.8720,1.7083,-0.0000,0.0000,0.0000,0.0000,0.6400,0.0000,-0.1632,-0.0300,0.0018,996,1502,1500,1502,2008,1000,1505,1505,1505,1006,2008,1000,1014,0.0675,-0.0269,0.1038,-0.0362,0.0686,0.9899,-0.1314,0.1913,0.1350,-0.1949,0.3036,0.4132,0.0700,0.3036,0.4132,0.0700,0.3000,0.0600,0.0002,0,-0.3000,-100.0000,-0.0010,-0.3000,-100.0000,-0.0010,13.7741,37.7733,0.0200,0.0000
19.6726,9.8529,1.7023,-0.0000,0.1642,0.0000,0.0000,0.6400,0.0000,-0.1630,-0.0299,0.0022,996,1502,1500,1502,2008,1000,1505,1505,1505,1006,2008,1000,1013,0.0106,0.0038,-0.0145,-0.0338,0.0692,0.9913,-0.1309,0.1908,0.1353,-0.1951,0.3036,0.4132,0.0700,0.3036,0.4132,0.0700,0.3000,0.0600,0.0002,0,-0.3000,-100.0000,-0.0010,-0.3000,-100.0000,-0.0010,13.8095,37.8142,0.0200,0.0000
19.6319,9.8331,1.6952,-0.0829,0.1642,0.0000,0.0000,0.6400,0.0000,-0.1629,-0.0298,0.0019,996,1502,1500,1502,2008,1000,1505,1505,1505,1006,2008,1000,1013,0.0538,-0.0139,0.0713,-0.0346,0.0723,0.9917,-0.1312,0.1909,0.1350,-0.1947,0.3036,0.4132,0.0700,0.3036,0.4132,0.0700,0.3000,0.0600,0.0002,0,-0.3000,-100.0000,-0.0010,-0.3000,-100.0000,-0.0010,13.8448,37.8551,0.0200,0.0000
19.5913,9.8129,1.6887,-0.1657,0.0821,0.0000,0.0600,0.6400,0.0000,-0.1628,-0.0295,0.0020,997,1503,1500,1502,2008,1000,1505,1505,1505,1006,2008,1000,1013,0.0034,-0.0900,0.0584,-0.0354,0.0697,0.9919,-0.1313,0.1904,0.1352,-0.1943,0.3036,0.4132,0.0700,0.3036,0.4132,0.0700,0.3000,0.0600,0.0002,0,-0.3000,-100.0000,-0.0010,-0.3000,-100.0000,-0.0010,13.8802,37.8959,0.0400,0.0100
19.5502,9.7929,1.6817,-0.0000,0.0821,0.0000,0.0000,0.6400,0.0000,-0.1627,-0.0297,0.0021,996,1502,1500,1502,2008,1000,1505,1505,1505,1006,2008,1000,1014,0.0030,0.0258,0.0097,-0.0358,0.0735,0.9878,-0.1308,0.1903,0.1350,-0.1945,0.3036,0.4132,0.0700,0.3036,0.4132,0.0700,0.3000,0.0600,0.0002,0,-0.3000,-100.0000,-0.0010,-0.3000,-100.0000,-0.0010,13.9155,37.9368,0.0200,0.0000
19.5091,9.7730,1.6744,-0.0000,0.1642,0.0000,0.0000,0.6400,0.0000,-0.1625,-0.0296,0.0021,996,1502,1500,1502,2008,1000,1505,1505,1505,1006,2008,1000,1014,0.0136,-0.0915,-0.0010,-0.0376,0.0689,0.9969,-0.1308,0.1900,0.1350,-0.1942,0.3036,0.4132,0.0700,0.3036,0.4132,0.0700,0.3000,0.0600,0.0002,0,-0.3000,-100.0000,-0.0010,-0.3000,-100.0000,-0.0010,13.9509,37.9776,0.0200,0.0000
19.4682,9.7529,1.6675,-0.0000,0.0821,0.0000,0.0000,0.6400,0.0000,-0.1624,-0.0296,0.0019,996,1502,1500,1502,2008,1000,1505,1505,1505,1006,2008,1000,1013,-0.0028,-0.0300,0.0729,-0.0337,0.0721,0.9909,-0.1309,0.1901,0.1347,-0.1939,0.3036,0.4132,0.0700,0.3036,0.4132,0.0700,0.3000,0.0600,0.0002,0,-0.3000,-100.0000,-0.0010,-0.3000,-100.0000,-0.0010,13.9863,38.0184,0.0200,0.0000
19.4274,9.7332,1.6612,-0.0829,0.0821,0.0000,0.0000,0.6400,0.0000,-0.1622,-0.0296,0.0019,996,1502,1500,1502,2008,1000,1505,1505,1505,1006,2008,1000,1013,-0.0821,0.0395,0.0737,-0.0353,0.0687,0.9927,-0.1307,0.1899,0.1345,-0.1937,0.3036,0.4132,0.0700,0.3036,0.4132,0.0700,0.3000,0.0600,0.0002,0,-0.3000,-100.0000,-0.0010,-0.3000,-100.0000,-0.0010,14.0217,38.0593,0.0200,0.0000
19.3864,9.7141,1.6549,-0.0000,0.1642,0.0000,0.0000,0.6400,0.0000,-0.1622,-0.0295,0.0020,996,1502,1500,1502,2008,1000,1505,1505,1505,1006,2008,1000,1013,0.0107,0.0519,0.0327,-0.0341,0.0696,0.9952,-0.1306,0.1897,0.1347,-0.1937,0.3036,0.4132,0.0700,0.3036,0.4132,0.0700,0.3000,0.0600,0.0002,0,-0.3000,-100.0000,-0.0010,-0.3000,-100.0000,-0.0010,14.0571,38.1001,0.0200,0.0000
19.3456,9.6940,1.6483,-0.1657,0.0000,0.0000,0.0600,0.6400,0.0000,-0.1621,-0.0292,0.0021,997,1503,1500,1502,2008,1000,1505,1505,1505,1006,2008,1000,1014,0.0294,-0.0931,0.0233,-0.0355,0.0707,0.9882,-0.1308,0.1892,0.1349,-0.1933,0.3036,0.4132,0.0700,0.3036,0.4132,0.0700,0.3000,0.0600,0.0002,0,-0.3000,-100.0000,-0.0010,-0.3000,-100.0000,-0.0010,14.0925,38.1410,0.0400,0.0100
19.3049,9.6745,1.6418,-0.0000,0.0821,0.0000,0.0000,0.6400,0.0000,-0.1619,-0.0294,0.0022,996,1502,1500,1502,2008,1000,1505,1505,1505,1006,2008,1000,1014,-0.0002,0.0327,0.0076,-0.0347,0.0698,0.9885,-0.1303,0.1891,0.1347,-0.1935,0.3036,0.4132,0.0700,0.3036,0.4132,0.0700,0.3000,0.0600,0.0002,0,-0.3000,-100.0000,-0.0010,-0.3000,-100.0000,-0.0010,14.1279,38.1818,0.0200,0.0000
19.2642,9.6548,1.6352,-0.0829,0.1642,0.0000,0.0000,0.6400,0.0000,-0.1618,-0.0293,0.0020,996,1502,1500,1502,2008,1000,1505,1505,1505,1006,2008,1000,1013,0.0438,0.0426,0.0240,-0.0355,0.0721,0.9917,-0.1304,0.1891,0.1345,-0.1932,0.3036,0.4132,0.0700,0.3036,0.4132,0.0700,0.3000,0.0600,0.0002,0,-0.3000,-100.0000,-0.0010,-0.3000,-100.0000,-0.0010,14.1633,38.2227,0.0200,0.0000
19.2235,9.6349,1.6285,-0.0829,0.0821,0.0000,0.0000,0.6400,0.0000,-0.1617,-0.0293,0.0021,996,1502,1500,1502,2008,1000,1505,1505,1505,1006,2008,1000,1013,0.0342,0.0309,-0.0021,-0.0333,0.0721,0.9965,-0.1303,0.1888,0.1346,-0.1931,0.3036,0.4132,0.0700,0.3036,0.4132,0.0700,0.3000,0.0600,0.0002,0,-0.3000,-100.0000,-0.0010,-0.3000,-100.0000,-0.0010,14.1988,38.2635,0.0200,0.0000
19.1828,9.6151,1.6219,-0.1657,0.0821,0.0000,0.0000,0.6400,0.0000,-0.1615,-0.0292,0.0022,996,1502,1500,1502,2008,1000,1505,1505,1505,1006,2008,1000,1013,0.0127,-0.0022,0.0210,-0.0339,0.0684,0.9898,-0.1302,0.1886,0.1345,-0.1929,0.3036,0.4132,0.0700,0.3036,0.4132,0.0700,0.3000,0.0600,0.0002,0,-0.3000,-100.0000,-0.0010,-0.3000,-100.0000,-0.0010,14.2342,38.3043,0.0200,0.0000
19.1416,9.5950,1.6154,-0.1657,0.0821,0.0000,0.0000,0.6400,0.0000,-0.1614,-0.0291,0.0020,996,1502,1500,1502,2008,1000,1505,1505,1505,1006,2008,1000,1013,-0.0538,-0.0114,0.0732,-0.0365,0.0735,0.9930,-0.1303,0.1885,0.1342,-0.1925,0.3036,0.4132,0.0700,0.3036,0.4132,0.0700,0.3000,0.0600,0.0002,0,-0.3000,-100.0000,-0.0010,-0.3000,-100.0000,-0.0010,14.2696,38.3450,0.0200,0.0000
19.1006,9.5751,1.6088,-0.0000,0.0821,0.0000,0.0600,0.6400,0.0000,-0.1613,-0.0289,0.0021,997,1503,1500,1502,2008,1000,1505,1505,1505,1006,2008,1000,1014,0.0512,-0.0354,0.0342,-0.0331,0.0706,0.9909,-0.1304,0.1881,0.1345,-0.1922,0.3036,0.4132,0.0700,0.3036,0.4132,0.0700,0.3000,0.0600,0.0002,0,-0.3000,-100.0000,-0.0010,-0.3000,-100.0000,-0.0010,14.3051,38.3857,0.0400,0.0100
19.0600,9.5549,1.6021,-0.0829,0.0000,0.0000,0.0000,0.6400,0.0000,-0.1612,-0.0290,0.0021,996,1502,1500,1502,2008,1000,1505,1505,1505,1006,2008,1000,1014,0.0365,-0.0320,-0.0008,-0.0331,0.0714,0.9911,-0.1301,0.1881,0.1343,-0.1923,0.3036,0.4132,0.0700,0.3036,0.4132,0.0700,0.3000,0.0600,0.0002,0,-0.3000,-100.0000,-0.0010,-0.3000,-100.0000,-0.0010,14.3405,38.4264,0.0200,0.0000
19.0193,9.5344,1.5954,-0.0000,0.0821,0.0000,0.0000,0.6400,0.0000,-0.1611,-0.0289,0.0018,996,1502,1500,1502,2008,1000,1505,1505,1505,1006,2008,1000,1014,0.0295,-0.0182,0.0999,-0.0356,0.0712,0.9903,-0.1303,0.1882,0.1340,-0.1918,0.3036,0.4132,0.0700,0.3036,0.4132,0.0700,0.3000,0.0600,0.0002,0,-0.3000,-100.0000,-0.0010,-0.3000,-100.0000,-0.0010,14.3760,38.4672,0.0200,0.0000
18.9786,9.5143,1.5892,-0.0000,0.0821,0.0000,0.0000,0.6400,0.0000,-0.1609,-0.0289,0.0021,996,1502,1500,1502,2008,1000,1505,1505,1505,1006,2008,1000,1014,0.0132,0.0260,0.0066,-0.0320,0.0702,0.9934,-0.1299,0.1877,0.1342,-0.1920,0.3036,0.4132,0.0700,0.3036,0.4132,0.0700,0.3000,0.0600,0.0002,0,-0.3000,-100.0000,-0.0010,-0.3000,-100.0000,-0.0010,14.4114,38.5079,0.0200,0.0000
18.9375,9.4948,1.5826,-0.0829,0.0000,0.0000,0.0000,0.6400,0.0000,-0.1608,-0.0288,0.0021,996,1502,1500,1502,2008,1000,1505,1505,1505,1006,2008,1000,1014,-0.0099,-0.0208,0.0271,-0.0374,0.0714,0.9875,-0.1299,0.1875,0.1341,-0.1917,0.3036,0.4132,0.0700,0.3036,0.4132,0.0700,0.3000,0.0600,0.0002,0,-0.3000,-100.0000,-0.0010,-0.3000,-100.0000,-0.0010,14.4469,38.5486,0.0200,0.0000
18.8966,9.4747,1.5756,-0.0000,0.0000,0.0000,0.0000,0.6400,0.0000,-0.1607,-0.0287,0.0023,996,1502,1500,1502,2008,1000,1505,1505,1505,1006,2008,1000,1014,0.0537,-0.0297,-0.0467,-0.0333,0.0707,0.9905,-0.1296,0.1871,0.1343,-0.1918,0.3036,0.4132,0.0700,0.3036,0.4132,0.0700,0.3000,0.0600,0.0002,0,-0.3000,-100.0000,-0.0010,-0.3000,-100.0000,-0.0010,14.4824,38.5893,0.0200,0.0000
18.8556,9.4545,1.5685,-0.1657,0.0000,0.0000,0.0600,0.6400,0.0000,-0.1605,-0.0285,0.0020,997,1503,1500,1502,2008,1000,1505,1505,1505,1006,2008,1000,1014,-0.0103,-0.0360,0.0684,-0.0326,0.0703,0.9945,-0.1301,0.1871,0.1340,-0.1910,0.3036,0.4132,0.0700,0.3036,0.4132,0.0700,0.3000,0.0600,0.0002,0,-0.3000,-100.0000,-0.0010,-0.3000,-100.0000,-0.0010,14.5178,38.6299,0.0400,0.0100
18.8145,9.4341,1.5621,-0.1657,0.0821,0.0000,0.0000,0.6400,0.0000,-0.1604,-0.0286,0.0018,996,1502,1500,1502,2008,1000,1505,1505,1505,1006,2008,1000,1014,-0.0338,-0.0002,0.1086,-0.0329,0.0712,0.9905,-0.1300,0.1872,0.1336,-0.1908,0.3036,0.4132,0.0700,0.3036,0.4132,0.0700,0.3000,0.0600,0.0002,0,-0.3000,-100.0000,-0.0010,-0.3000,-100.0000,-0.0010,14.5533,38.6706,0.0200,0.0000
18.7737,9.4138,1.5556,-0.0829,0.0000,0.0000,0.0000,0.6400,0.0000,-0.1603,-0.0286,0.0021,996,1502,1500,1502,2008,1000,1505,1505,1505,1006,2008,1000,1013,0.0282,0.0229,0.0136,-0.0333,0.0708,0.9905,-0.1296,0.1868,0.1338,-0.1910,0.3036,0.4132,0.0700,0.3036,0.4132,0.0700,0.3000,0.0600,0.0002,0,-0.3000,-100.0000,-0.0010,-0.3000,-100.0000,-0.0010,14.5888,38.7112,0.0200,0.0000
18.7328,9.3935,1.5496,-0.0000,0.0000,0.0000,0.0000,0.6400,0.0000,-0.1601,-0.0285,0.0019,996,1502,1500,1502,2008,1000,1505,1505,1505,1006,2008,1000,1013,-0.0480,-0.0045,0.1239,-0.0331,0.0702,0.9909,-0.1298,0.1868,0.1335,-0.1905,0.3036,0.4132,0.0700,0.3036,0.4132,0.0700,0.3000,0.0600,0.0002,0,-0.3000,-100.0000,-0.0010,-0.3000,-100.0000,-0.0010,14.6243,38.7519,0.0200,0.0000
18.6915,9.3732,1.5436,-0.0829,0.0821,0.0000,0.0000,0.6400,0.0000,-0.1601,-0.0284,0.0019,996,1502,1500,1502,2008,1000,1505,1505,1505,1006,2008,1000,1013,0.0261,-0.0151,0.0697,-0.0331,0.0711,0.9933,-0.1297,0.1866,0.1336,-0.1904,0.3036,0.4132,0.0700,0.3036,0.4132,0.0700,0.3000,0.0600,0.0002,0,-0.3000,-100.0000,-0.0010,-0.3000,-100.0000,-0.0010,14.6598,38.7925,0.0200,0.0000
18.6506,9.3524,1.5375,-0.0000,0.1642,0.0000,0.0000,0.6400,0.0000,-0.1600,-0.0283,0.0021,996,1502,1500,1502,2008,1000,1505,1505,1505,1006,2008,1000,1013,0.0716,-0.0663,0.0308,-0.0347,0.0722,0.9923,-0.1295,0.1862,0.1338,-0.1904,0.3036,0.4132,0.0700,0.3036,0.4132,0.0700,0.3000,0.0600,0.0002,0,-0.3000,-100.0000,-0.0010,-0.3000,-100.0000,-0.0010,14.6953,38.8332,0.0200,0.0000
18.6104,9.3319,1.5309,-0.0829,0.1642,0.0000,0.0000,0.6400,0.0000,-0.1599,-0.0283,0.0022,998,1504,1501,1502,2008,1000,1505,1505,1505,1006,2008,1000,1013,0.1010,-0.0838,0.0010,-0.0347,0.0714,0.9890,-0.1294,0.1859,0.1338,-0.1903,0.3036,0.4132,0.0700,0.3036,0.4132,0.0700,0.3000,0.0600,0.0002,0,-0.3000,-100.0000,-0.0010,-0.3000,-100.0000,-0.0010,14.7308,38.8738,0.0200,0.0000
18.5701,9.3121,1.5245,-0.0829,0.0821,0.0000,0.0000,0.6400,0.0000,-0.1597,-0.0283,0.0020,996,1502,1500,1502,2008,1000,1505,1505,1505,1006,2008,1000,1013,0.0843,0.0108,0.0643,-0.0334,0.0706,0.9927,-0.1295,0.1860,0.1335,-0.1900,0.3036,0.4132,0.0700,0.3036,0.4132,0.0700,0.3000,0.0600,0.0002,0,-0.3000,-100.0000,-0.0010,-0.3000,-100.0000,-0.0010,14.7664,38.9145,0.0200,0.0000
18.5300,9.2927,1.5181,-0.0000,0.0821,0.0000,0.0000,0.6400,0.0000,-0.1596,-0.0282,0.0024,996,1502,1500,1502,2008,1000,1505,1505,1505,1006,2008,1000,1013,0.0620,0.0313,-0.0668,-0.0344,0.0678,0.9954,-0.1290,0.1854,0.1338,-0.1902,0.3036,0.4132,0.0700,0.3036,0.4132,0.0700,0.3000,0.0600,0.0002,0,-0.3000,-100.0000,-0.0010,-0.3000,-100.0000,-0.0010,14.8019,38.9552,0.0200,0.0000
18.4889,9.2731,1.5118,-0.0829,0.1642,0.0000,0.0000,0.6400,0.0000,-0.1595,-0.0282,0.0019,996,1502,1500,1502,2008,1000,1505,1505,1505,1006,2008,1000,1013,0.0303,0.0239,0.1108,-0.0342,0.0697,0.9952,-0.1294,0.1857,0.1332,-0.1895,0.3036,0.4132,0.0700,0.3036,0.4132,0.0700,0.3000,0.0600,0.0002,0,-0.3000,-100.0000,-0.0010,-0.3000,-100.0000,-0.0010,14.8375,38.9958,0.0200,0.0000
18.4481,9.2527,1.5060,-0.0829,0.1642,0.0000,0.0000,0.6400,0.0000,-0.1593,-0.0281,0.0020,996,1502,1500,1502,2008,1000,1505,1505,1505,1006,2008,1000,1013,0.0406,-0.0317,0.0597,-0.0397,0.0722,0.9927,-0.1293,0.1854,0.1333,-0.1894,0.3036,0.4132,0.0700,0.3036,0.4132,0.0700,0.3000,0.0600,0.0002,0,-0.3000,-100.0000,-0.0010,-0.3000,-100.0000,-0.0010,14.8730,39.0364,0.0200,0.0000
18.4076,9.2329,1.5001,-0.1657,0.0000,0.0000,0.0000,0.6400,0.0000,-0.1592,-0.0280,0.0021,996,1502,1500,1502,2008,1000,1505,1505,1505,1006,2008,1000,1013,0.0319,-0.0604,0.0351,-0.0344,0.0705,0.9933,-0.1291,0.1850,0.1334,-0.1893,0.3036,0.4132,0.0700,0.3036,0.4132,0.0700,0.3000,0.0600,0.0002,0,-0.3000,-100.0000,-0.0010,-0.3000,-100.0000,-0.0010,14.9086,39.0770,0.0200,0.0000
18.3668,9.2128,1.4937,-0.0829,0.1642,0.0000,0.0600,0.6400,0.0000,-0.1591,-0.0278,0.0023,997,1503,1500,1502,2008,1000,1505,1505,1505,1006,2008,1000,1014,0.0066,0.0320,-0.0106,-0.0333,0.0704,0.9888,-0.1290,0.1846,0.1335,-0.1891,0.3036,0.4132,0.0700,0.3036,0.4132,0.0700,0.3000,0.0600,0.0002,0,-0.3000,-100.0000,-0.0010,-0.3000,-100.0000,-0.0010,14.9441,39.1176,0.0400,0.0100
18.3258,9.1933,1.4873,-0.0000,0.0821,0.0000,0.0000,0.6400,0.0000,-0.1590,-0.0279,0.0021,996,1502,1500,1502,2008,1000,1505,1505,1505,1006,2008,1000,1014,0.0408,0.0042,0.0422,-0.0337,0.0697,0.9968,-0.1290,0.1848,0.1331,-0.1890,0.3036,0.4132,0.0700,0.3036,0.4132,0.0700,0.3000,0.0600,0.0002,0,-0.3000,-100.0000,-0.0010,-0.3000,-100.0000,-0.0010,14.9797,39.1582,0.0200,0.0000
18.2851,9.1734,1.4812,-0.0000,0.0821,0.0000,0.0000,0.6400,0.0000,-0.1589,-0.0278,0.0019,996,1502,1500,1502,2008,1000,1505,1505,1505,1006,2008,1000,1013,0.0688,-0.0226,0.1155,-0.0389,0.0709,0.9932,-0.1291,0.1848,0.1329,-0.1886,0.3036,0.4132,0.0700,0.3036,0.4132,0.0700,0.3000,0.0600,0.0002,0,-0.3000,-100.0000,-0.0010,-0.3000,-100.0000,-0.0010,15.0153,39.1988,0.0200,0.0000
18.2443,9.1532,1.4747,-0.0829,0.0821,0.0000,0.0000,0.6400,0.0000,-0.1587,-0.0278,0.0024,996,1502,1500,1502,2008,1000,1505,1505,1505,1006,2008,1000,1013,-0.0313,-0.0347,-0.0468,-0.0321,0.0706,0.9923,-0.1285,0.1840,0.1333,-0.1888,0.3036,0.4132,0.0700,0.3036,0.4132,0.0700,0.3000,0.0600,0.0002,0,-0.3000,-100.0000,-0.0010,-0.3000,-100.0000,-0.0010,15.0508,39.2393,0.0200,0.0000
18.2030,9.1329,1.4682,-0.0829,0.0000,0.0000,0.0000,0.6400,0.0000,-0.1586,-0.0277,0.0020,996,1502,1500,1502,2008,1000,1505,1505,1505,1006,2008,1000,1013,0.0329,0.0179,0.0656,-0.0330,0.0686,0.9949,-0.1288,0.1843,0.1329,-0.1884,0.3036,0.4132,0.0700,0.3036,0.4132,0.0700,0.3000,0.0600,0.0002,0,-0.3000,-100.0000,-0.0010,-0.3000,-100.0000,-0.0010,15.0864,39.2798,0.0200,0.0000
18.1619,9.1127,1.4620,-0.0829,0.0000,0.0000,0.0000,0.6400,0.0000,-0.1584,-0.0276,0.0021,996,1502,1500,1502,2008,1000,1505,1505,1505,1006,2008,1000,1013,-0.0321,-0.0277,0.0426,-0.0327,0.0697,0.9934,-0.1287,0.1839,0.1329,-0.1882,0.3036,0.4132,0.0700,0.3036,0.4132,0.0700,0.3000,0.0600,0.0002,0,-0.3000,-100.0000,-0.0010,-0.3000,-100.0000,-0.0010,15.1220,39.3204,0.0200,0.0000
18.1210,9.0922,1.4556,-0.0829,0.0821,0.0000,0.0600,0.6400,0.0000,-0.1584,-0.0273,0.0022,997,1503,1500,1502,2008,1000,1505,1505,1505,1006,2008,1000,1014,0.0566,-0.1041,0.0098,-0.0341,0.0693,0.9908,-0.1288,0.1835,0.1332,-0.1879,0.3036,0.4132,0.0700,0.3036,0.4132,0.0700,0.3000,0.0600,0.0002,0,-0.3000,-100.0000,-0.0010,-0.3000,-100.0000,-0.0010,15.1576,39.3609,0.0400,0.0100
18.0807,9.0714,1.4490,-0.0829,0.1642,0.0000,0.0000,0.6400,0.0000,-0.1582,-0.0275,0.0022,996,1502,1500,1502,2008,1000,1505,1505,1505,1006,2008,1000,1014,0.0525,-0.0610,0.0005,-0.0319,0.0715,0.9923,-0.1285,0.1835,0.1330,-0.1880,0.3036,0.4132,0.0700,0.3036,0.4132,0.0700,0.3000,0.0600,0.0002,0,-0.3000,-100.0000,-0.0010,-0.3000,-100.0000,-0.0010,15.1931,39.4014,0.0200,0.0000
18.0400,9.0515,1.4427,-0.0000,0.0000,0.0000,0.0000,0.6400,0.0000,-0.1581,-0.0275,0.0023,996,1502,1500,1502,2008,1000,1505,1505,1505,1006,2008,1000,1014,-0.0035,0.0131,0.0124,-0.0355,0.0710,0.9926,-0.1283,0.1833,0.1329,-0.1878,0.3036,0.4132,0.0700,0.3036,0.4132,0.0700,0.3000,0.0600,0.0002,0,-0.3000,-100.0000,-0.0010,-0.3000,-100.0000,-0.0010,15.2287,39.4419,0.0200,0.0000
17.9984,9.0324,1.4357,-0.0829,0.0000,0.0000,0.0000,0.6400,0.0000,-0.1579,-0.0274,0.0021,996,1502,1500,1502,2008,1000,1505,1505,1505,1006,2008,1000,1013,-0.0008,0.0328,0.0288,-0.0393,0.0709,0.9950,-0.1284,0.1833,0.1326,-0.1875,0.3036,0.4132,0.0700,0.3036,0.4132,0.0700,0.3000,0.0600,0.0002,0,-0.3000,-100.0000,-0.0010,-0.3000,-100.0000,-0.0010,15.2643,39.4824,0.0200,0.0000
17.9571,9.0129,1.4294,-0.0000,0.0821,0.0000,0.0000,0.6400,0.0000,-0.1579,-0.0274,0.0018,996,1502,1500,1502,2008,1000,1505,1505,1505,1006,2008,1000,1013,0.0494,-0.0156,0.1114,-0.0365,0.0702,0.9884,-0.1287,0.1834,0.1323,-0.1871,0.3036,0.4132,0.0700,0.3036,0.4132,0.0700,0.3000,0.0600,0.0002,0,-0.3000,-100.0000,-0.0010,-0.3000,-100.0000,-0.0010,15.2999,39.5229,0.0200,0.0000
17.9162,8.9922,1.4237,-0.0829,0.0821,0.0000,0.0000,0.6400,0.0000,-0.1577,-0.0273,0.0023,996,1502,1500,1502,2008,1000,1505,1505,1505,1006,2008,1000,1013,0.0304,-0.0139,-0.0120,-0.0339,0.0724,0.9902,-0.1281,0.1827,0.1327,-0.1873,0.3036,0.4132,0.0700,0.3036,0.4132,0.0700,0.3000,0.0600,0.0002,0,-0.3000,-100.0000,-0.0010,-0.3000,-100.0000,-0.0010,15.3356,39.5634,0.0200,0.0000
17.8752,8.9717,1.4170,-0.0829,0.0821,0.0000,0.0600,0.6400,0.0000,-0.1576,-0.0270,0.0025,997,1503,1500,1502,2008,1000,1505,1505,1505,1006,2008,1000,1013,-0.0104,-0.0085,-0.0747,-0.0347,0.0698,0.9993,-0.1280,0.1821,0.1331,-0.1872,0.3036,0.4132,0.0700,0.3036,0.4132,0.0700,0.3000,0.0600,0.0002,0,-0.3000,-100.0000,-0.0010,-0.3000,-100.0000,-0.0010,15.3712,39.6038,0.0400,0.0100
17.8337,8.9518,1.4099,-0.0829,0.1642,0.0000,0.0000,0.6400,0.0000,-0.1574,-0.0272,0.0026,996,1502,1500,1502,2008,1000,1505,1505,1505,1006,2008,1000,1013,-0.0083,-0.0373,-0.0896,-0.0355,0.0694,0.9900,-0.1277,0.1820,0.1329,-0.1872,0.3036,0.4132,0.0700,0.3036,0.4132,0.0700,0.3000,0.0600,0.0002,0,-0.3000,-100.0000,-0.0010,-0.3000,-100.0000,-0.0010,15.4068,39.6443,0.0200,0.0000
17.7921,8.9315,1.4029,-0.0829,0.0821,0.0000,0.0000,0.6400,0.0000,-0.1573,-0.0271,0.0023,996,1502,1500,1502,2008,1000,1505,1505,1505,1006,2008,1000,1013,0.0041,0.0145,-0.0021,-0.0342,0.0710,0.9939,-0.1279,0.1822,0.1325,-0.1867,0.3036,0.4132,0.0700,0.3036,0.4132,0.0700,0.3000,0.0600,0.0002,0,-0.3000,-100.0000,-0.0010,-0.3000,-100.0000,-0.0010,15.4424,39.6847,0.0200,0.0000
17.7507,8.9111,1.3968,-0.0829,0.0000,0.0000,0.0000,0.6400,0.0000,-0.1572,-0.0270,0.0020,996,1502,1500,1502,2008,1000,1505,1505,1505,1006,2008,1000,1013,0.0145,-0.0776,0.0664,-0.0358,0.0694,0.9954,-0.1282,0.1822,0.1322,-0.1862,0.3036,0.4132,0.0700,0.3036,0.4132,0.0700,0.3000,0.0600,0.0002,0,-0.3000,-100.0000,-0.0010,-0.3000,-100.0000,-0.0010,15.4781,39.7252,0.0200,0.0000
17.7094,8.8906,1.3906,-0.0829,0.0821,0.0000,0.0000,0.6400,0.0000,-0.1571,-0.0270,0.0023,996,1502,1500,1502,2008,1000,1505,1505,1505,1006,2008,1000,1014,0.0211,-0.0377,0.0028,-0.0352,0.0707,0.9924,-0.1278,0.1818,0.1324,-0.1863,0.3036,0.4132,0.0700,0.3036,0.4132,0.0700,0.3000,0.0600,0.0002,0,-0.3000,-100.0000,-0.0010,-0.3000,-100.0000,-0.0010,15.5137,39.7656,0.0200,0.0000
17.6687,8.8703,1.3845,-0.0829,0.0821,0.0000,0.0000,0.6400,0.0000,-0.1570,-0.0269,0.0021,996,1502,1500,1502,2008,1000,1505,1505,1505,1006,2008,1000,1014,0.0387,-0.0079,0.0583,-0.0367,0.0696,0.9914,-0.1279,0.1818,0.1321,-0.1860,0.3036,0.4132,0.0700,0.3036,0.4132,0.0700,0.3000,0.0600,0.0002,0,-0.3000,-100.0000,-0.0010,-0.3000,-100.0000,-0.0010,15.5494,39.8060,0.0200,0.0000
17.6273,8.8498,1.3783,-0.0000,0.0821,0.0000,0.0600,0.6400,0.0000,-0.1568,-0.0266,0.0025,997,1503,1500,1502,2008,1000,1505,1505,1505,1006,2008,1000,1014,-0.0078,-0.0545,-0.0340,-0.0326,0.0702,0.9911,-0.1277,0.1810,0.1327,-0.1860,0.3036,0.4132,0.0700,0.3036,0.4132,0.0700,0.3000,0.0600,0.0002,0,-0.3000,-100.0000,-0.0010,-0.3000,-100.0000,-0.0010,15.5851,39.8464,0.0400,0.0100
17.5860,8.8298,1.3714,-0.0829,0.0821,0.0000,0.0000,0.6400,0.0000,-0.1567,-0.0268,0.0024,996,1502,1500,1502,2008,1000,1505,1505,1505,1006,2008,1000,1014,0.0214,-0.0219,-0.0329,-0.0362,0.0700,0.9890,-0.1275,0.1811,0.1323,-0.1859,0.3036,0.4132,0.0700,0.3036,0.4132,0.0700,0.3000,0.0600,0.0002,0,-0.3000,-100.0000,-0.0010,-0.3000,-100.0000,-0.0010,15.6207,39.8868,0.0200,0.0000
17.5446,8.8094,1.3649,-0.0829,0.0821,0.0000,0.0000,0.6400,0.0000,-0.1566,-0.0267,0.0023,996,1502,1500,1502,2008,1000,1505,1505,1505,1006,2008,1000,1014,-0.0165,-0.0534,0.0098,-0.0338,0.0694,0.9938,-0.1276,0.1810,0.1321,-0.1855,0.3036,0.4132,0.0700,0.3036,0.4132,0.0700,0.3000,0.0600,0.0002,0,-0.3000,-100.0000,-0.0010,-0.3000,-100.0000,-0.0010,15.6564,39.9272,0.0200,0.0000
17.5037,8.7886,1.3587,-0.0000,0.0821,0.0000,0.0000,0.6400,0.0000,-0.1565,-0.0266,0.0021,996,1502,1500,1502,2008,1000,1505,1505,1505,1006,2008,1000,1013,0.0702,-0.0924,0.0573,-0.0297,0.0701,0.9904,-0.1277,0.1810,0.1320,-0.1852,0.3036,0.4132,0.0700,0.3036,0.4132,0.0700,0.3000,0.0600,0.0002,0,-0.3000,-100.0000,-0.0010,-0.3000,-100.0000,-0.0010,15.6921,39.9675,0.0200,0.0000
17.4628,8.7676,1.3530,-0.0829,0.1642,0.0000,0.0000,0.6400,0.0000,-0.1563,-0.0266,0.0023,996,1502,1500,1502,2008,1000,1505,1505,1505,1006,2008,1000,1013,0.0269,-0.0197,0.0122,-0.0368,0.0707,0.9961,-0.1274,0.1807,0.1320,-0.1852,0.3036,0.4132,0.0700,0.3036,0.4132,0.0700,0.3000,0.0600,0.0002,0,-0.3000,-100.0000,-0.0010,-0.3000,-100.0000,-0.0010,15.7278,40.0079,0.0200,0.0000
17.4219,8.7474,1.3476,-0.0829,0.0821,0.0000,0.0000,0.6400,0.0000,-0.1562,-0.0266,0.0018,996,1502,1500,1502,2008,1000,1505,1505,1505,1006,2008,1000,1013,0.0680,0.0076,0.1440,-0.0317,0.0697,0.9962,-0.1278,0.1810,0.1315,-0.1846,0.3036,0.4132,0.0700,0.3036,0.4132,0.0700,0.3000,0.0600,0.0002,0,-0.3000,-100.0000,-0.0010,-0.3000,-100.0000,-0.0010,15.7635,40.0482,0.0200,0.0000
17.3811,8.7263,1.3420,-0.0829,0.0821,0.0000,0.0600,0.6400,0.0000,-0.1561,-0.0263,0.0021,997,1503,1500,1502,2008,1000,1505,1505,1505,1006,2008,1000,1013,-0.0212,-0.0685,0.0481,-0.0337,0.0714,0.9970,-0.1277,0.1802,0.1319,-0.1844,0.3036,0.4132,0.0700,0.3036,0.4132,0.0700,0.3000,0.0600,0.0002,0,-0.3000,-100.0000,-0.0010,-0.3000,-100.0000,-0.0010,15.7992,40.0886,0.0400,0.0100
17.3405,8.7055,1.3365,-0.0000,0.0821,0.0000,0.0000,0.6400,0.0000,-0.1560,-0.0264,0.0022,996,1502,1500,1502,2008,1000,1505,1505,1505,1006,2008,1000,1013,0.0535,-0.0735,0.0621,-0.0354,0.0696,0.9910,-0.1274,0.1802,0.1318,-0.1846,0.3036,0.4132,0.0700,0.3036,0.4132,0.0700,0.3000,0.0600,0.0002,0,-0.3000,-100.0000,-0.0010,-0.3000,-100.0000,-0.0010,15.8349,40.1289,0.0200,0.0000
17.2994,8.6847,1.3297,-0.1657,0.0000,0.0000,0.0000,0.6400,0.0000,-0.1558,-0.0263,0.0024,996,1502,1500,1502,2008,1000,1505,1505,1505,1006,2008,1000,1014,0.0262,-0.1068,-0.0413,-0.0357,0.0707,0.9957,-0.1271,0.1797,0.1320,-0.1846,0.3036,0.4132,0.0700,0.3036,0.4132,0.0700,0.3000,0.0600,0.0002,0,-0.3000,-100.0000,-0.0010,-0.3000,-100.0000,-0.0010,15.8706,40.1693,0.0200,0.0000
17.2583,8.6640,1.3236,-0.0000,0.0821,0.0000,0.0000,0.6400,0.0000,-0.1557,-0.0263,0.0022,996,1502,1500,1502,2008,1000,1505,1505,1505,1006,2008,1000,1014,-0.0159,0.0042,0.0468,-0.0339,0.0698,0.9908,-0.1272,0.1798,0.1315,-0.1842,0.3036,0.4132,0.0700,0.3036,0.4132,0.0700,0.3000,0.0600,0.0002,0,-0.3000,-100.0000,-0.0010,-0.3000,-100.0000,-0.0010,15.9064,40.2096,0.0200,0.0000
17.2165,8.6439,1.3173,-0.0829,0.1642,0.0000,0.0000,0.6400,0.0000,-0.1556,-0.0262,0.0022,996,1502,1500,1502,2008,1000,1505,1505,1505,1006,2008,1000,1013,-0.0043,-0.0145,0.0282,-0.0344,0.0694,0.9931,-0.1271,0.1796,0.1316,-0.1840,0.3036,0.4132,0.0700,0.3036,0.4132,0.0700,0.3000,0.0600,0.0002,0,-0.3000,-100.0000,-0.0010,-0.3000,-100.0000,-0.0010,15.9421,40.2499,0.0200,0.0000
17.1751,8.6239,1.3114,-0.0000,0.0000,0.0000,0.0000,0.6400,0.0000,-0.1555,-0.0262,0.0022,996,1502,1500,1502,2008,1000,1505,1505,1505,1006,2008,1000,1013,0.0181,-0.0052,0.0529,-0.0318,0.0690,0.9953,-0.1271,0.1794,0.1315,-0.1838,0.3036,0.4132,0.0700,0.3036,0.4132,0.0700,0.3000,0.0600,0.0002,0,-0.3000,-100.0000,-0.0010,-0.3000,-100.0000,-0.0010,15.9778,40.2902,0.0200,0.0000
17.1342,8.6027,1.3051,-0.0829,0.0000,0.0000,0.0600,0.6400,0.0000,-0.1554,-0.0259,0.0023,997,1503,1500,1502,2008,1000,1505,1505,1505,1006,2008,1000,1013,0.0485,-0.0777,0.0124,-0.0359,0.0726,0.9964,-0.1272,0.1789,0.1318,-0.1835,0.3036,0.4132,0.0700,0.3036,0.4132,0.0700,0.3000,0.0600,0.0002,0,-0.3000,-100.0000,-0.0010,-0.3000,-100.0000,-0.0010,16.0136,40.3305,0.0400,0.0100
17.0931,8.5821,1.2992,-0.0829,0.1642,0.0000,0.0000,0.6400,0.0000,-0.1553,-0.0260,0.0019,996,1502,1500,1502,2008,1000,1505,1505,1505,1006,2008,1000,1013,0.0872,-0.0808,0.1532,-0.0348,0.0693,0.9938,-0.1273,0.1793,0.1312,-0.1832,0.3036,0.4132,0.0700,0.3036,0.4132,0.0700,0.3000,0.0600,0.0002,0,-0.3000,-100.0000,-0.0010,-0.3000,-100.0000,-0.0010,16.0493,40.3708,0.0200,0.0000
17.0522,8.5615,1.2935,-0.0829,0.0821,0.0000,0.0000,0.6400,0.0000,-0.1551,-0.0260,0.0021,996,1502,1500,1502,2008,1000,1505,1505,1505,1006,2008,1000,1013,0.0017,0.0403,0.0656,-0.0328,0.0697,0.9918,-0.1269,0.1790,0.1312,-0.1832,0.3036,0.4132,0.0700,0.3036,0.4132,0.0700,0.3000,0.0600,0.0002,0,-0.3000,-100.0000,-0.0010,-0.3000,-100.0000,-0.0010,16.0850,40.4110,0.0200,0.0000
17.0109,8.5413,1.2879,-0.0829,0.0821,0.0000,0.0000,0.6400,0.0000,-0.1550,-0.0259,0.0022,996,1502,1500,1502,2008,1000,1505,1505,1505,1006,2008,1000,1014,0.0597,-0.0118,0.0429,-0.0367,0.0698,0.9910,-0.1269,0.1787,0.1313,-0.1831,0.3036,0.4132,0.0700,0.3036,0.4132,0.0700,0.3000,0.0600,0.0002,0,-0.3000,-100.0000,-0.0010,-0.3000,-100.0000,-0.0010,16.1208,40.4513,0.0200,0.0000
16.9700,8.5203,1.2820,-0.0000,0.0821,0.0000,0.0000,0.6400,0.0000,-0.1548,-0.0258,0.0025,996,1502,1500,1502,2008,1000,1505,1505,1505,1006,2008,1000,1014,0.0272,-0.0784,-0.0293,-0.0363,0.0713,0.9932,-0.1266,0.1782,0.1315,-0.1831,0.3036,0.4132,0.0700,0.3036,0.4132,0.0700,0.3000,0.0600,0.0002,0,-0.3000,-100.0000,-0.0010,-0.3000,-100.0000,-0.0010,16.1566,40.4916,0.0200,0.0000
16.9288,8.4996,1.2757,-0.0829,0.2462,0.0000,0.0000,0.6400,0.0000,-0.1547,-0.0257,0.0024,996,1502,1500,1502,2008,1000,1505,1505,1505,1006,2008,1000,1013,0.0441,-0.1157,-0.0151,-0.0366,0.0680,0.9950,-0.1266,0.1781,0.1314,-0.1828,0.3036,0.4132,0.0700,0.3036,0.4132,0.0700,0.3000,0.0600,0.0002,0,-0.3000,-100.0000,-0.0010,-0.3000,-100.0000,-0.0010,16.1924,40.5318,0.0200,0.0000
16.8877,8.4784,1.2696,-0.0829,0.0821,0.0000,0.0600,0.6400,0.0000,-0.1546,-0.0255,0.0021,997,1503,1500,1502,2008,1000,1505,1505,1505,1006,2008,1000,1014,0.0242,-0.1024,0.0785,-0.0343,0.0690,0.9954,-0.1270,0.1779,0.1312,-0.1822,0.3036,0.4132,0.0700,0.3036,0.4132,0.0700,0.3000,0.0600,0.0002,0,-0.3000,-100.0000,-0.0010,-0.3000,-100.0000,-0.0010,16.2281,40.5721,0.0400,0.0100
16.8466,8.4576,1.2638,-0.0829,0.0821,0.0000,0.0000,0.6400,0.0000,-0.1545,-0.0256,0.0023,996,1502,1500,1502,2008,1000,1505,1505,1505,1006,2008,1000,1014,0.0304,-0.0504,0.0211,-0.0328,0.0722,0.9954,-0.1265,0.1778,0.1312,-0.1824,0.3036,0.4132,0.0700,0.3036,0.4132,0.0700,0.3000,0.0600,0.0002,0,-0.3000,-100.0000,-0.0010,-0.3000,-100.0000,-0.0010,16.2639,40.6123,0.0200,0.0000
16.8058,8.4368,1.2580,-0.0000,0.0000,0.0000,0.0000,0.6400,0.0000,-0.1543,-0.0256,0.0023,996,1502,1500,1502,2008,1000,1505,1505,1505,1006,2008,1000,1013,0.0233,-0.0240,0.0183,-0.0329,0.0705,0.9892,-0.1264,0.1776,0.1310,-0.1822,0.3036,0.4132,0.0700,0.3036,0.4132,0.0700,0.3000,0.0600,0.0002,0,-0.3000,-100.0000,-0.0010,-0.3000,-100.0000,-0.0010,16.2997,40.6525,0.0200,0.0000
16.7648,8.4164,1.2526,-0.0000,0.0821,0.0000,0.0000,0.6400,0.0000,-0.1542,-0.0255,0.0023,996,1502,1500,1502,2008,1000,1505,1505,1505,1006,2008,1000,1013,0.0109,-0.0138,0.0210,-0.0352,0.0701,0.9873,-0.1264,0.1774,0.1310,-0.1821,0.3036,0.4132,0.0700,0.3036,0.4132,0.0700,0.3000,0.0600,0.0002,0,-0.3000,-100.0000,-0.0010,-0.3000,-100.0000,-0.0010,16.3355,40.6928,0.0200,0.0000
16.7235,8.3964,1.2474,-0.0829,0.0000,0.0000,0.0000,0.6400,0.0000,-0.1541,-0.0256,0.0022,996,1502,1500,1502,2008,1000,1505,1505,1505,1006,2008,1000,1013,-0.0072,0.0859,0.0574,-0.0329,0.0703,0.9919,-0.1263,0.1774,0.1307,-0.1818,0.3036,0.4132,0.0700,0.3036,0.4132,0.0700,0.3000,0.0600,0.0002,0,-0.3000,-100.0000,-0.0010,-0.3000,-100.0000,-0.0010,16.3713,40.7330,0.0200,0.0000
16.6817,8.3757,1.2416,-0.1657,0.0821,0.0000,0.0000,0.6400,0.0000,-0.1539,-0.0254,0.0024,996,1502,1500,1502,2008,1000,1505,1505,1505,1006,2008,1000,1013,-0.0289,-0.0676,-0.0162,-0.0354,0.0697,0.9926,-0.1261,0.1769,0.1310,-0.1817,0.3036,0.4132,0.0700,0.3036,0.4132,0.0700,0.3000,0.0600,0.0002,0,-0.3000,-100.0000,-0.0010,-0.3000,-100.0000,-0.0010,16.4071,40.7732,0.0200,0.0000
16.6401,8.3551,1.2352,-0.1657,0.0821,0.0000,0.0600,0.6400,0.0000,-0.1538,-0.0251,0.0023,997,1503,1500,1502,2008,1000,1505,1505,1505,1006,2008,1000,1014,0.0213,-0.0753,0.0166,-0.0345,0.0708,0.9883,-0.1264,0.1766,0.1310,-0.1813,0.3036,0.4132,0.0700,0.3036,0.4132,0.0700,0.3000,0.0600,0.0002,0,-0.3000,-100.0000,-0.0010,-0.3000,-100.0000,-0.0010,16.4429,40.8134,0.0400,0.0100
16.5985,8.3341,1.2290,-0.1657,0.0000,0.0000,0.0000,0.6400,0.0000,-0.1537,-0.0253,0.0026,996,1502,1500,1502,2008,1000,1505,1505,1505,1006,2008,1000,1013,0.0090,-0.0213,-0.0618,-0.0357,0.0712,0.9952,-0.1258,0.1764,0.1310,-0.1816,0.3036,0.4132,0.0700,0.3036,0.4132,0.0700,0.3000,0.0600,0.0002,0,-0.3000,-100.0000,-0.0010,-0.3000,-100.0000,-0.0010,16.4788,40.8536,0.0200,0.0000
16.5571,8.3128,1.2226,-0.0000,0.0821,0.0000,0.0000,0.6400,0.0000,-0.1536,-0.0251,0.0025,996,1502,1500,1502,2008,1000,1505,1505,1505,1006,2008,1000,1013,-0.0241,-0.1309,-0.0126,-0.0334,0.0696,0.9913,-0.1260,0.1762,0.1309,-0.1811,0.3036,0.4132,0.0700,0.3036,0.4132,0.0700,0.3000,0.0600,0.0002,0,-0.3000,-100.0000,-0.0010,-0.3000,-100.0000,-0.0010,16.5146,40.8938,0.0200,0.0000
16.5157,8.2920,1.2165,-0.0829,0.1642,0.0000,0.0000,0.6400,0.0000,-0.1534,-0.0252,0.0023,996,1502,1500,1502,2008,1000,1505,1505,1505,1006,2008,1000,1014,-0.0390,-0.0166,0.0269,-0.0320,0.0705,0.9921,-0.1259,0.1763,0.1306,-0.1809,0.3036,0.4132,0.0700,0.3036,0.4132,0.0700,0.3000,0.0600,0.0002,0,-0.3000,-100.0000,-0.0010,-0.3000,-100.0000,-0.0010,16.5504,40.9339,0.0200,0.0000
16.4745,8.2716,1.2105,-0.0829,0.0821,0.0000,0.0000,0.6400,0.0000,-0.1534,-0.0251,0.0024,996,1502,1500,1502,2008,1000,1505,1505,1505,1006,2008,1000,1014,0.1051,-0.0501,-0.0111,-0.0358,0.0727,0.9930,-0.1259,0.1760,0.1307,-0.1809,0.3036,0.4132,0.0700,0.3036,0.4132,0.0700,0.3000,0.0600,0.0002,0,-0.3000,-100.0000,-0.0010,-0.3000,-100.0000,-0.0010,16.5862,40.9741,0.0200,0.0000
16.4330,8.2512,1.2042,-0.0000,0.1642,0.0000,0.0000,0.6400,0.0000,-0.1532,-0.0250,0.0025,996,1502,1500,1502,2008,1000,1505,1505,1505,1006,2008,1000,1014,0.0284,-0.0062,-0.0158,-0.0345,0.0679,0.9935,-0.1257,0.1758,0.1307,-0.1808,0.3036,0.4132,0.0700,0.3036,0.4132,0.0700,0.3000,0.0600,0.0002,0,-0.3000,-100.0000,-0.0010,-0.3000,-100.0000,-0.0010,16.6221,41.0141,0.0200,0.0000
16.3911,8.2305,1.1983,-0.1657,0.1642,0.0000,0.0600,0.6400,0.0000,-0.1530,-0.0248,0.0023,997,1503,1500,1502,2008,1000,1505,1505,1505,1006,2008,1000,1013,-0.0416,-0.0469,0.0217,-0.0325,0.0704,0.9921,-0.1260,0.1755,0.1305,-0.1801,0.3036,0.4132,0.0700,0.3036,0.4132,0.0700,0.3000,0.0600,0.0002,0,-0.3000,-100.0000,-0.0010,-0.3000,-100.0000,-0.0010,16.6579,41.0542,0.0400,0.0100
16.3500,8.2093,1.1925,-0.0829,0.0821,0.0000,0.0000,0.6400,0.0000,-0.1530,-0.0249,0.0026,996,1502,1500,1502,2008,1000,1505,1505,1505,1006,2008,1000,1013,0.0339,-0.0486,-0.0602,-0.0336,0.0723,0.9909,-0.1254,0.1752,0.1307,-0.1805,0.3036,0.4132,0.0700,0.3036,0.4132,0.0700,0.3000,0.0600,0.0002,0,-0.3000,-100.0000,-0.0010,-0.3000,-100.0000,-0.0010,16.6938,41.0943,0.0200,0.0000
16.3088,8.1883,1.1859,-0.0829,0.0821,0.0000,0.0000,0.6400,0.0000,-0.1529,-0.0248,0.0025,996,1502,1500,1502,2008,1000,1505,1505,1505,1006,2008,1000,1013,0.0704,-0.0260,-0.0330,-0.0349,0.0711,0.9891,-0.1255,0.1752,0.1305,-0.1802,0.3036,0.4132,0.0700,0.3036,0.4132,0.0700,0.3000,0.0600,0.0002,0,-0.3000,-100.0000,-0.0010,-0.3000,-100.0000,-0.0010,16.7296,41.1344,0.0200,0.0000
16.2674,8.1682,1.1795,-0.0000,0.0821,0.0000,0.0000,0.6400,0.0000,-0.1527,-0.0248,0.0026,996,1502,1500,1502,2008,1000,1505,1505,1505,1006,2008,1000,1013,-0.0345,0.0266,-0.0398,-0.0358,0.0678,0.9932,-0.1253,0.1749,0.1304,-0.1800,0.3036,0.4132,0.0700,0.3036,0.4132,0.0700,0.3000,0.0600,0.0002,0,-0.3000,-100.0000,-0.0010,-0.3000,-100.0000,-0.0010,16.7655,41.1745,0.0200,0.0000
16.2261,8.1483,1.1740,-0.0000,0.0821,0.0000,0.0000,0.6400,0.0000,-0.1526,-0.0248,0.0022,996,1502,1500,1502,2008,1000,1505,1505,1505,1006,2008,1000,1013,0.0227,0.0417,0.0653,-0.0347,0.0700,0.9890,-0.1256,0.1752,0.1300,-0.1795,0.3036,0.4132,0.0700,0.3036,0.4132,0.0700,0.3000,0.0600,0.0002,0,-0.3000,-100.0000,-0.0010,-0.3000,-100.0000,-0.0010,16.8014,41.2146,0.0200,0.0000
16.1845,8.1282,1.1688,-0.0829,0.0821,0.0000,0.0000,0.6400,0.0000,-0.1524,-0.0247,0.0024,996,1502,1500,1502,2008,1000,1505,1505,1505,1006,2008,1000,1013,0.0151,0.0287,0.0123,-0.0329,0.0698,0.9951,-0.1254,0.1748,0.1301,-0.1795,0.3036,0.4132,0.0700,0.3036,0.4132,0.0700,0.3000,0.0600,0.0002,0,-0.3000,-100.0000,-0.0010,-0.3000,-100.0000,-0.0010,16.8373,41.2547,0.0200,0.0000
16.1437,8.1074,1.1634,-0.0829,0.0821,0.0000,0.0600,0.6400,0.0000,-0.1523,-0.0244,0.0023,997,1503,1500,1502,2008,1000,1505,1505,1505,1006,2008,1000,1014,0.0420,-0.0963,0.0577,-0.0352,0.0700,0.9910,-0.1257,0.1744,0.1303,-0.1790,0.3036,0.4132,0.0700,0.3036,0.4132,0.0700,0.3000,0.0600,0.0002,0,-0.3000,-100.0000,-0.0010,-0.3000,-100.0000,-0.0010,16.8732,41.2947,0.0400,0.0100
16.1024,8.0865,1.1576,-0.0829,0.0000,0.0000,0.0000,0.6400,0.0000,-0.1522,-0.0245,0.0023,996,1502,1500,1502,2008,1000,1505,1505,1505,1006,2008,1000,1013,-0.0112,-0.0761,0.0435,-0.0364,0.0716,0.9918,-0.1254,0.1744,0.1300,-0.1789,0.3036,0.4132,0.0700,0.3036,0.4132,0.0700,0.3000,0.0600,0.0002,0,-0.3000,-100.0000,-0.0010,-0.3000,-100.0000,-0.0010,16.9091,41.3348,0.0200,0.0000
16.0608,8.0657,1.1518,-0.0829,0.0821,0.0000,0.0000,0.6400,0.0000,-0.1520,-0.0245,0.0025,996,1502,1500,1502,2008,1000,1505,1505,1505,1006,2008,1000,1013,-0.0431,-0.0348,-0.0107,-0.0360,0.0722,0.9905,-0.1251,0.1740,0.1301,-0.1790,0.3036,0.4132,0.0700,0.3036,0.4132,0.0700,0.3000,0.0600,0.0002,0,-0.3000,-100.0000,-0.0010,-0.3000,-100.0000,-0.0010,16.9450,41.3749,0.0200,0.0000
16.0192,8.0450,1.1453,-0.0000,0.1642,0.0000,0.0000,0.6400,0.0000,-0.1519,-0.0245,0.0026,996,1502,1500,1502,2008,1000,1505,1505,1505,1006,2008,1000,1013,0.0155,0.0422,-0.0660,-0.0343,0.0723,0.9930,-0.1248,0.1738,0.1301,-0.1790,0.3036,0.4132,0.0700,0.3036,0.4132,0.0700,0.3000,0.0600,0.0002,0,-0.3000,-100.0000,-0.0010,-0.3000,-100.0000,-0.0010,16.9810,41.4150,0.0200,0.0000
15.9781,8.0247,1.1394,-0.0000,0.1642,0.0000,0.0000,0.6400,0.0000,-0.1518,-0.0243,0.0025,996,1502,1500,1502,2008,1000,1505,1505,1505,1006,2008,1000,1013,0.0137,-0.0435,-0.0051,-0.0354,0.0683,0.9899,-0.1250,0.1737,0.1300,-0.1786,0.3036,0.4132,0.0700,0.3036,0.4132,0.0700,0.3000,0.0600,0.0002,0,-0.3000,-100.0000,-0.0010,-0.3000,-100.0000,-0.0010,17.0169,41.4550,0.0200,0.0000
15.9360,8.0049,1.1339,-0.0829,0.1642,0.0000,0.0000,0.6400,0.0000,-0.1516,-0.0243,0.0022,996,1502,1500,1502,2008,1000,1505,1505,1505,1006,2008,1000,1013,-0.0601,-0.0222,0.0698,-0.0372,0.0681,0.9919,-0.1251,0.1737,0.1296,-0.1781,0.3036,0.4132,0.0700,0.3036,0.4132,0.0700,0.3000,0.0600,0.0002,0,-0.3000,-100.0000,-0.0010,-0.3000,-100.0000,-0.0010,17.0528,41.4951,0.0200,0.0000
15.8940,7.9844,1.1286,-0.0829,0.0000,0.0000,0.0600,0.6400,0.0000,-0.1516,-0.0241,0.0022,997,1503,1500,1502,2008,1000,1505,1505,1505,1006,2008,1000,1013,0.0459,-0.0047,0.0690,-0.0361,0.0675,0.9923,-0.1253,0.1734,0.1298,-0.1779,0.3036,0.4132,0.0700,0.3036,0.4132,0.0700,0.3000,0.0600,0.0002,0,-0.3000,-100.0000,-0.0010,-0.3000,-100.0000,-0.0010,17.0888,41.5351,0.0400,0.0100
15.8525,7.9642,1.1232,-0.0829,0.0821,0.0000,0.0000,0.6400,0.0000,-0.1514,-0.0242,0.0023,996,1502,1500,1502,2008,1000,1505,1505,1505,1006,2008,1000,1013,-0.0007,-0.0057,0.0437,-0.0338,0.0710,0.9889,-0.1249,0.1733,0.1296,-0.1779,0.3036,0.4132,0.0700,0.3036,0.4132,0.0700,0.3000,0.0600,0.0002,0,-0.3000,-100.0000,-0.0010,-0.3000,-100.0000,-0.0010,17.1247,41.5751,0.0200,0.0000
15.8110,7.9432,1.1181,0.0829,0.0000,0.0000,0.0000,0.6400,0.0000,-0.1513,-0.0241,0.0022,996,1502,1500,1502,2008,1000,1505,1505,1505,1006,2008,1000,1013,0.0003,-0.0436,0.0802,-0.0365,0.0699,0.9944,-0.1250,0.1732,0.1294,-0.1776,0.3036,0.4132,0.0700,0.3036,0.4132,0.0700,0.3000,0.0600,0.0002,0,-0.3000,-100.0000,-0.0010,-0.3000,-100.0000,-0.0010,17.1607,41.6151,0.0200,0.0000
15.7696,7.9219,1.1122,-0.0829,0.0821,0.0000,0.0000,0.6400,0.0000,-0.1512,-0.0240,0.0025,996,1502,1500,1502,2008,1000,1505,1505,1505,1006,2008,1000,1013,0.0434,-0.0717,0.0040,-0.0350,0.0684,0.9925,-0.1247,0.1727,0.1297,-0.1777,0.3036,0.4132,0.0700,0.3036,0.4132,0.0700,0.3000,0.0600,0.0002,0,-0.3000,-100.0000,-0.0010,-0.3000,-100.0000,-0.0010,17.1966,41.6551,0.0200,0.0000
15.7281,7.9010,1.1065,-0.0829,0.1642,0.0000,0.0000,0.6400,0.0000,-0.1510,-0.0240,0.0023,996,1502,1500,1502,2008,1000,1505,1505,1505,1006,2008,1000,1014,-0.0186,-0.0159,0.0356,-0.0357,0.0712,0.9917,-0.1247,0.1727,0.1294,-0.1773,0.3036,0.4132,0.0700,0.3036,0.4132,0.0700,0.3000,0.0600,0.0002,0,-0.3000,-100.0000,-0.0010,-0.3000,-100.0000,-0.0010,17.2326,41.6950,0.0200,0.0000
15.6862,7.8804,1.1008,-0.0829,0.1642,0.0000,0.0000,0.6400,0.0000,-0.1509,-0.0240,0.0025,996,1502,1500,1502,2008,1000,1505,1505,1505,1006,2008,1000,1014,-0.0796,0.0567,-0.0185,-0.0324,0.0674,0.9899,-0.1244,0.1723,0.1294,-0.1773,0.3036,0.4132,0.0700,0.3036,0.4132,0.0700,0.3000,0.0600,0.0002,0,-0.3000,-100.0000,-0.0010,-0.3000,-100.0000,-0.0010,17.2685,41.7350,0.0200,0.0000
15.6442,7.8603,1.0959,-0.0829,0.0821,0.0000,0.0600,0.6400,0.0000,-0.1508,-0.0237,0.0021,997,1503,1500,1502,2008,1000,1505,1505,1505,1006,2008,1000,1013,-0.0087,0.0446,0.1268,-0.0353,0.0687,0.9946,-0.1250,0.1724,0.1292,-0.1766,0.3036,0.4132,0.0700,0.3036,0.4132,0.0700,0.3000,0.0600,0.0002,0,-0.3000,-100.0000,-0.0010,-0.3000,-100.0000,-0.0010,17.3045,41.7749,0.0400,0.0100
15.6025,7.8396,1.0908,-0.0000,0.0821,0.0000,0.0000,0.6400,0.0000,-0.1507,-0.0238,0.0023,996,1502,1500,1502,2008,1000,1505,1505,1505,1006,2008,1000,1013,0.0243,-0.0271,0.0697,-0.0315,0.0668,0.9919,-0.1246,0.1722,0.1292,-0.1768,0.3036,0.4132,0.0700,0.3036,0.4132,0.0700,0.3000,0.0600,0.0002,0,-0.3000,-100.0000,-0.0010,-0.3000,-100.0000,-0.0010,17.3404,41.8148,0.0200,0.0000
15.5614,7.8186,1.0854,-0.0829,0.0821,0.0000,0.0000,0.6400,0.0000,-0.1506,-0.0237,0.0024,996,1502,1500,1502,2008,1000,1505,1505,1505,1006,2008,1000,1013,0.0431,-0.0673,0.0469,-0.0378,0.0715,0.9879,-0.1245,0.1719,0.1292,-0.1766,0.3036,0.4132,0.0700,0.3036,0.4132,0.0700,0.3000,0.0600,0.0002,0,-0.3000,-100.0000,-0.0010,-0.3000,-100.0000,-0.0010,17.3764,41.8548,0.0200,0.0000
15.5204,7.7974,1.0802,-0.0000,0.0821,0.0000,0.0000,0.6400,0.0000,-0.1505,-0.0236,0.0024,996,1502,1500,1502,2008,1000,1505,1505,1505,1006,2008,1000,1013,0.0714,-0.0611,0.0391,-0.0356,0.0692,0.9890,-0.1244,0.1717,0.1292,-0.1765,0.3036,0.4132,0.0700,0.3036,0.4132,0.0700,0.3000,0.0600,0.0002,0,-0.3000,-100.0000,-0.0010,-0.3000,-100.0000,-0.0010,17.4124,41.8947,0.0200,0.0000
15.4789,7.7768,1.0743,-0.0829,0.0821,0.0000,0.0000,0.6400,0.0000,-0.1503,-0.0235,0.0024,996,1502,1500,1502,2008,1000,1505,1505,1505,1006,2008,1000,1013,-0.0088,-0.0994,0.0117,-0.0345,0.0670,0.9916,-0.1243,0.1714,0.1292,-0.1763,0.3036,0.4132,0.0700,0.3036,0.4132,0.0700,0.3000,0.0600,0.0002,0,-0.3000,-100.0000,-0.0010,-0.3000,-100.0000,-0.0010,17.4484,41.9347,0.0200,0.0000
15.4369,7.7558,1.0687,-0.0829,0.0000,0.0000,0.0000,0.6400,0.0000,-0.1502,-0.0235,0.0026,996,1502,1500,1502,2008,1000,1505,1505,1505,1006,2008,1000,1014,-0.0060,-0.1150,-0.0266,-0.0362,0.0701,0.9914,-0.1241,0.1710,0.1293,-0.1762,0.3036,0.4132,0.0700,0.3036,0.4132,0.0700,0.3000,0.0600,0.0002,0,-0.3000,-100.0000,-0.0010,-0.3000,-100.0000,-0.0010,17.4844,41.9746,0.0200,0.0000
15.3953,7.7341,1.0628,-0.0829,0.0821,0.0000,0.0600,0.6400,0.0000,-0.1501,-0.0233,0.0025,997,1503,1500,1502,2008,1000,1505,1505,1505,1006,2008,1000,1013,0.0175,-0.0474,-0.0036,-0.0368,0.0699,0.9919,-0.1243,0.1708,0.1293,-0.1759,0.3036,0.4132,0.0700,0.3036,0.4132,0.0700,0.3000,0.0600,0.0002,0,-0.3000,-100.0000,-0.0010,-0.3000,-100.0000,-0.0010,17.5205,42.0146,0.0400,0.0100
15.3535,7.7134,1.0570,-0.0000,0.0000,0.0000,0.0000,0.6400,0.0000,-0.1499,-0.0235,0.0025,996,1502,1500,1502,2008,1000,1505,1505,1505,1006,2008,1000,1013,-0.0171,0.0615,-0.0134,-0.0359,0.0733,0.9981,-0.1239,0.1708,0.1290,-0.1759,0.3036,0.4132,0.0700,0.3036,0.4132,0.0700,0.3000,0.0600,0.0002,0,-0.3000,-100.0000,-0.0010,-0.3000,-100.0000,-0.0010,17.5565,42.0545,0.0200,0.0000
15.3120,7.6932,1.0520,-0.0829,0.0000,0.0000,0.0000,0.6400,0.0000,-0.1498,-0.0233,0.0023,996,1502,1500,1502,2008,1000,1505,1505,1505,1006,2008,1000,1014,0.0145,-0.0123,0.0809,-0.0372,0.0698,0.9928,-0.1242,0.1709,0.1287,-0.1754,0.3036,0.4132,0.0700,0.3036,0.4132,0.0700,0.3000,0.0600,0.0002,0,-0.3000,-100.0000,-0.0010,-0.3000,-100.0000,-0.0010,17.5925,42.0944,0.0200,0.0000
15.2709,7.6725,1.0470,-0.0829,0.0000,0.0000,0.0000,0.6400,0.0000,-0.1497,-0.0233,0.0025,996,1502,1500,1502,2008,1000,1505,1505,1505,1006,2008,1000,1014,0.0674,0.0182,0.0228,-0.0342,0.0734,0.9904,-0.1240,0.1706,0.1289,-0.1755,0.3036,0.4132,0.0700,0.3036,0.4132,0.0700,0.3000,0.0600,0.0002,0,-0.3000,-100.0000,-0.0010,-0.3000,-100.0000,-0.0010,17.6285,42.1343,0.0200,0.0000
15.2297,7.6523,1.0418,-0.1657,0.0821,0.0000,0.0000,0.6400,0.0000,-0.1496,-0.0233,0.0024,996,1502,1500,1502,2008,1000,1505,1505,1505,1006,2008,1000,1013,0.0299,0.0726,0.0459,-0.0353,0.0702,0.9915,-0.1239,0.1705,0.1286,-0.1752,0.3036,0.4132,0.0700,0.3036,0.4132,0.0700,0.3000,0.0600,0.0002,0,-0.3000,-100.0000,-0.0010,-0.3000,-100.0000,-0.0010,17.6646,42.1742,0.0200,0.0000
15.1880,7.6321,1.0364,-0.1657,0.0821,0.0000,0.0000,0.6400,0.0000,-0.1494,-0.0232,0.0024,996,1502,1500,1502,2008,1000,1505,1505,1505,1006,2008,1000,1013,0.0215,0.0501,0.0365,-0.0342,0.0701,0.9911,-0.1238,0.1703,0.1286,-0.1750,0.3036,0.4132,0.0700,0.3036,0.4132,0.0700,0.3000,0.0600,0.0002,0,-0.3000,-100.0000,-0.0010,-0.3000,-100.0000,-0.0010,17.7006,42.2140,0.0200,0.0000
15.1465,7.6116,1.0316,-0.0829,0.0821,0.0000,0.0600,0.6400,0.0000,-0.1493,-0.0229,0.0024,997,1503,1500,1502,2008,1000,1505,1505,1505,1006,2008,1000,1014,0.0652,0.0068,0.0401,-0.0329,0.0682,0.9933,-0.1240,0.1698,0.1288,-0.1747,0.3036,0.4132,0.0700,0.3036,0.4132,0.0700,0.3000,0.0600,0.0002,0,-0.3000,-100.0000,-0.0010,-0.3000,-100.0000,-0.0010,17.7366,42.2539,0.0400,0.0100
15.1053,7.5908,1.0265,-0.0000,0.0000,0.0000,0.0000,0.6400,0.0000,-0.1492,-0.0230,0.0025,996,1502,1500,1502,2008,1000,1505,1505,1505,1006,2008,1000,1013,0.1032,-0.0569,0.0254,-0.0337,0.0692,0.9885,-0.1238,0.1698,0.1287,-0.1747,0.3036,0.4132,0.0700,0.3036,0.4132,0.0700,0.3000,0.0600,0.0002,0,-0.3000,-100.0000,-0.0010,-0.3000,-100.0000,-0.0010,17.7727,42.2937,0.0200,0.0000
15.0644,7.5701,1.0216,-0.0000,0.0000,0.0000,0.0000,0.6400,0.0000,-0.1491,-0.0230,0.0024,996,1502,1500,1502,2008,1000,1505,1505,1505,1006,2008,1000,1013,0.0682,-0.0393,0.0356,-0.0334,0.0699,0.9900,-0.1237,0.1696,0.1286,-0.1745,0.3036,0.4132,0.0700,0.3036,0.4132,0.0700,0.3000,0.0600,0.0002,0,-0.3000,-100.0000,-0.0010,-0.3000,-100.0000,-0.0010,17.8088,42.3335,0.0200,0.0000
15.0229,7.5488,1.0161,-0.0829,0.0821,0.0000,0.0000,0.6400,0.0000,-0.1489,-0.0229,0.0022,996,1502,1500,1502,2008,1000,1505,1505,1505,1006,2008,1000,1014,-0.0221,-0.0553,0.0862,-0.0358,0.0702,0.9899,-0.1238,0.1695,0.1283,-0.1740,0.3036,0.4132,0.0700,0.3036,0.4132,0.0700,0.3000,0.0600,0.0002,0,-0.3000,-100.0000,-0.0010,-0.3000,-100.0000,-0.0010,17.8448,42.3733,0.0200,0.0000
14.9815,7.5276,1.0111,-0.0829,0.0000,0.0000,0.0000,0.6400,0.0000,-0.1488,-0.0228,0.0025,996,1502,1500,1502,2008,1000,1505,1505,1505,1006,2008,1000,1014,-0.0047,-0.0340,0.0244,-0.0325,0.0713,0.9931,-0.1235,0.1691,0.1284,-0.1741,0.3036,0.4132,0.0700,0.3036,0.4132,0.0700,0.3000,0.0600,0.0002,0,-0.3000,-100.0000,-0.0010,-0.3000,-100.0000,-0.0010,17.8809,42.4131,0.0200,0.0000
14.9395,7.5074,1.0055,-0.0000,0.0821,0.0000,0.0000,0.6400,0.0000,-0.1487,-0.0228,0.0026,996,1502,1500,1502,2008,1000,1505,1505,1505,1006,2008,1000,1014,0.0033,0.0244,-0.0365,-0.0330,0.0703,0.9916,-0.1232,0.1688,0.1285,-0.1741,0.3036,0.4132,0.0700,0.3036,0.4132,0.0700,0.3000,0.0600,0.0002,0,-0.3000,-100.0000,-0.0010,-0.3000,-100.0000,-0.0010,17.9170,42.4529,0.0200,0.0000
14.8982,7.4868,1.0008,-0.0829,0.0821,0.0000,0.0600,0.6400,0.0000,-0.1486,-0.0226,0.0023,997,1503,1500,1502,2008,1000,1505,1505,1505,1006,2008,1000,1013,0.0980,0.0497,0.0987,-0.0334,0.0686,0.9909,-0.1238,0.1689,0.1283,-0.1734,0.3036,0.4132,0.0700,0.3036,0.4132,0.0700,0.3000,0.0600,0.0002,0,-0.3000,-100.0000,-0.0010,-0.3000,-100.0000,-0.0010,17.9531,42.4926,0.0400,0.0100
14.8572,7.4662,0.9954,-0.0829,0.0821,0.0000,0.0000,0.6400,0.0000,-0.1485,-0.0226,0.0028,996,1502,1500,1502,2008,1000,1505,1505,1505,1006,2008,1000,1013,0.0937,-0.0766,-0.0721,-0.0355,0.0694,0.9939,-0.1231,0.1683,0.1286,-0.1738,0.3036,0.4132,0.0700,0.3036,0.4132,0.0700,0.3000,0.0600,0.0002,0,-0.3000,-100.0000,-0.0010,-0.3000,-100.0000,-0.0010,17.9892,42.5324,0.0200,0.0000
14.8159,7.4449,0.9894,-0.0829,0.0821,0.0000,0.0000,0.6400,0.0000,-0.1483,-0.0225,0.0026,996,1502,1500,1502,2008,1000,1505,1505,1505,1006,2008,1000,1013,0.0592,-0.1262,-0.0219,-0.0371,0.0717,0.9911,-0.1232,0.1682,0.1284,-0.1735,0.3036,0.4132,0.0700,0.3036,0.4132,0.0700,0.3000,0.0600,0.0002,0,-0.3000,-100.0000,-0.0010,-0.3000,-100.0000,-0.0010,18.0253,42.5723,0.0200,0.0000
14.7745,7.4234,0.9836,-0.0000,0.0000,0.0000,0.0000,0.6400,0.0000,-0.1482,-0.0225,0.0027,996,1502,1500,1502,2008,1000,1505,1505,1505,1006,2008,1000,1013,0.0223,-0.1045,-0.0438,-0.0356,0.0706,0.9878,-0.1230,0.1679,0.1284,-0.1734,0.3036,0.4132,0.0700,0.3036,0.4132,0.0700,0.3000,0.0600,0.0002,0,-0.3000,-100.0000,-0.0010,-0.3000,-100.0000,-0.0010,18.0614,42.6120,0.0200,0.0000
14.7333,7.4025,0.9779,-0.0829,0.0000,0.0000,0.0000,0.6400,0.0000,-0.1481,-0.0225,0.0025,996,1502,1500,1502,2008,1000,1505,1505,1505,1006,2008,1000,1014,0.0829,-0.0098,0.0294,-0.0386,0.0701,0.9928,-0.1231,0.1681,0.1281,-0.1730,0.3036,0.4132,0.0700,0.3036,0.4132,0.0700,0.3000,0.0600,0.0002,0,-0.3000,-100.0000,-0.0010,-0.3000,-100.0000,-0.0010,18.0976,42.6519,0.0200,0.0000
14.6915,7.3817,0.9719,-0.0829,0.0821,0.0000,0.0000,0.6400,0.0000,-0.1479,-0.0224,0.0027,996,1502,1500,1502,2008,1000,1505,1505,1505,1006,2008,1000,1014,0.0563,-0.0865,-0.0318,-0.0344,0.0682,0.9978,-0.1229,0.1676,0.1283,-0.1730,0.3036,0.4132,0.0700,0.3036,0.4132,0.0700,0.3000,0.0600,0.0002,0,-0.3000,-100.0000,-0.0010,-0.3000,-100.0000,-0.0010,18.1337,42.6917,0.0200,0.0000
14.6503,7.3607,0.9658,-0.0829,0.0821,0.0000,0.0600,0.6400,0.0000,-0.1478,-0.0222,0.0027,997,1503,1500,1502,2008,1000,1505,1505,1505,1006,2008,1000,1013,0.0295,0.0108,-0.0586,-0.0338,0.0686,0.9960,-0.1229,0.1672,0.1284,-0.1727,0.3036,0.4132,0.0700,0.3036,0.4132,0.0700,0.3000,0.0600,0.0002,0,-0.3000,-100.0000,-0.0010,-0.3000,-100.0000,-0.0010,18.1698,42.7314,0.0400,0.0100
14.6091,7.3403,0.9607,-0.0829,0.0821,0.0000,0.0000,0.6400,0.0000,-0.1477,-0.0223,0.0026,996,1502,1500,1502,2008,1000,1505,1505,1505,1006,2008,1000,1013,0.0965,0.0470,-0.0098,-0.0379,0.0694,0.9921,-0.1228,0.1674,0.1280,-0.1727,0.3036,0.4132,0.0700,0.3036,0.4132,0.0700,0.3000,0.0600,0.0002,0,-0.3000,-100.0000,-0.0010,-0.3000,-100.0000,-0.0010,18.2060,42.7712,0.0200,0.0000
14.5680,7.3197,0.9555,-0.0829,0.0821,0.0000,0.0000,0.6400,0.0000,-0.1476,-0.0221,0.0024,996,1502,1500,1502,2008,1000,1505,1505,1505,1006,2008,1000,1013,0.0672,-0.1429,0.0427,-0.0353,0.0709,0.9879,-0.1230,0.1673,0.1279,-0.1721,0.3036,0.4132,0.0700,0.3036,0.4132,0.0700,0.3000,0.0600,0.0002,0,-0.3000,-100.0000,-0.0010,-0.3000,-100.0000,-0.0010,18.2421,42.8109,0.0200,0.0000
14.5267,7.2986,0.9504,-0.0000,0.0000,0.0000,0.0000,0.6400,0.0000,-0.1474,-0.0221,0.0024,996,1502,1500,1502,2008,1000,1505,1505,1505,1006,2008,1000,1013,0.0412,-0.0407,0.0764,-0.0325,0.0688,0.9937,-0.1229,0.1672,0.1277,-0.1719,0.3036,0.4132,0.0700,0.3036,0.4132,0.0700,0.3000,0.0600,0.0002,0,-0.3000,-100.0000,-0.0010,-0.3000,-100.0000,-0.0010,18.2783,42.8506,0.0200,0.0000
