roll_imu,pitch_imu,yaw_imu,alpha,beta,roll_des,pitch_des,yaw_des,throttle_des,roll_pid,pitch_pid,yaw_pid,radio_ch1,radio_ch2,radio_ch3,radio_ch4,radio_ch5,radio_ch6,radio_ch7,radio_ch8,radio_ch9,radio_ch10,radio_ch11,radio_ch12,radio_ch13,GyroX,GyroY,GyroZ,AccX,AccY,AccZ,s1_command,s2_command,s3_command,s4_command,kp_roll,ki_roll,kd_roll,kp_pitch,ki_pitch,kd_pitch,kp_yaw,ki_yaw,kd_yaw,failsafeTriggered,kp_alphaRoll,ki_alphaRoll,kd_alphaRoll,kp_betaPitch,ki_betaPitch,kd_betaPitch,ripIMU_roll,ripIMU_pitch,ripRoll_des,ripPitch_des
0.0000,0.0000,0.0000,24.1989,-31.1491,0.0000,0.0000,0.0000,0.0000,0.0000,0.0000,0.0000,1000,1500,1500,1500,2000,1000,1000,1000,1500,1500,1500,1500,1500,0.0000,0.0000,0.0000,0.0000,0.0000,0.0000,0.0000,0.0000,0.0000,0.0000,0.3000,0.0100,0.0700,0.3000,0.0100,0.0700,0.3000,0.0600,0.0002,0,-0.3000,-100.0000,-0.0010,-0.3000,-100.0000,-0.0010,0.0000,0.0000,0.0000,0.0000
23.6051,20.2165,4.2069,0.0000,0.0000,-8.1000,-8.1000,-43.2000,0.0000,-0.2433,-0.1697,-0.1297,910,1365,1365,1365,2000,1000,1000,1000,1500,1500,1500,1500,1500,0.2393,-0.0742,-0.0072,-0.0061,0.0018,0.9426,-0.2033,0.5427,-0.0561,-0.2833,0.6000,0.2100,0.2450,0.6000,0.2100,0.2450,0.3000,0.0600,0.0002,0,-0.3000,-100.0000,-0.0010,-0.3000,-100.0000,-0.0010,7.3114,30.3284,-1.3500,-1.3500
23.5723,20.1905,4.1947,0.0000,0.0000,-8.1000,-8.1000,-43.2000,0.0000,-0.2432,-0.1696,-0.1302,910,1365,1365,1365,2000,1000,1000,1000,1500,1500,1500,1500,1500,0.2532,-0.0695,0.0107,-0.0058,-0.0020,0.9866,-0.2037,0.5429,-0.0566,-0.2826,0.6000,0.2100,0.2450,0.6000,0.2100,0.2450,0.3000,0.0600,0.0002,0,-0.3000,-100.0000,-0.0010,-0.3000,-100.0000,-0.0010,7.3446,30.3713,-1.3500,-1.3500
23.5398,20.1642,4.1830,0.0000,-0.0821,-8.1000,-8.1000,-43.2000,0.0000,-0.2431,-0.1696,-0.1305,910,1365,1365,1365,2000,1000,1000,1000,1500,1500,1500,1500,1500,0.3108,0.0135,0.0490,-0.0059,-0.0010,0.9915,-0.2039,0.5432,-0.0570,-0.2823,0.6000,0.2100,0.2450,0.6000,0.2100,0.2450,0.3000,0.0600,0.0002,0,-0.3000,-100.0000,-0.0010,-0.3000,-100.0000,-0.0010,7.3790,30.4141,-1.3500,-1.3500
23.5070,20.1385,4.1705,0.0000,0.0000,-8.1000,-8.1000,-43.2000,0.0000,-0.2426,-0.1694,-0.1305,910,1365,1365,1365,2000,1000,1000,1000,1500,1500,1500,1500,1500,0.1813,-0.0318,-0.0317,-0.0088,-0.0027,0.9910,-0.2037,0.5425,-0.0573,-0.2814,0.6000,0.2100,0.2450,0.6000,0.2100,0.2450,0.3000,0.0600,0.0002,0,-0.3000,-100.0000,-0.0010,-0.3000,-100.0000,-0.0010,7.4134,30.4569,-1.3500,-1.3500
23.4725,20.1128,4.1582,0.0000,0.0000,-8.1000,-8.1000,-43.2000,0.0000,-0.2422,-0.1692,-0.1309,910,1365,1365,1365,2000,1000,1000,1000,1500,1500,1500,1500,1500,0.1018,-0.0145,0.0186,-0.0074,-0.0043,0.9928,-0.2039,0.5424,-0.0580,-0.2805,0.6000,0.2100,0.2450,0.6000,0.2100,0.2450,0.3000,0.0600,0.0002,0,-0.3000,-100.0000,-0.0010,-0.3000,-100.0000,-0.0010,7.4479,30.4996,-1.3500,-1.3500
23.4368,20.0867,4.1460,0.0829,0.0000,-8.1000,-8.1000,-43.2000,0.0000,-0.2415,-0.1691,-0.1312,910,1365,1365,1365,2000,1000,1000,1000,1500,1500,1500,1500,1500,-0.0855,-0.0275,0.0082,-0.0107,0.0013,0.9953,-0.2036,0.5418,-0.0587,-0.2794,0.6000,0.2100,0.2450,0.6000,0.2100,0.2450,0.3000,0.0600,0.0002,0,-0.3000,-100.0000,-0.0010,-0.3000,-100.0000,-0.0010,7.4824,30.5423,-1.3500,-1.3500
23.3999,20.0604,4.1340,0.0000,0.0000,-8.1000,-8.1000,-43.2000,0.0000,-0.2413,-0.1688,-0.1312,910,1365,1365,1365,2000,1000,1000,1000,1500,1500,1500,1500,1500,-0.0941,-0.0470,-0.0486,-0.0075,0.0025,0.9896,-0.2037,0.5414,-0.0588,-0.2789,0.6000,0.2100,0.2450,0.6000,0.2100,0.2450,0.3000,0.0600,0.0002,0,-0.3000,-100.0000,-0.0010,-0.3000,-100.0000,-0.0010,7.5168,30.5851,-1.3500,-1.3500
23.3633,20.0340,4.1206,0.0829,0.0000,-8.1000,-8.1000,-43.2000,0.0000,-0.2411,-0.1686,-0.1314,910,1365,1365,1365,2000,1000,1000,1000,1500,1500,1500,1500,1500,-0.0669,-0.1028,-0.1207,-0.0075,0.0060,0.9900,-0.2039,0.5410,-0.0588,-0.2783,0.6000,0.2100,0.2450,0.6000,0.2100,0.2450,0.3000,0.0600,0.0002,0,-0.3000,-100.0000,-0.0010,-0.3000,-100.0000,-0.0010,7.5513,30.6278,-1.3500,-1.3500
23.3282,20.0076,4.1079,-0.0829,0.0000,-8.1000,-8.1000,-43.2000,0.0000,-0.2413,-0.1686,-0.1319,910,1365,1365,1365,2000,1000,1000,1000,1500,1500,1500,1500,1500,0.1048,-0.0272,-0.0120,-0.0041,0.0053,0.9944,-0.2046,0.5418,-0.0591,-0.2780,0.6000,0.2100,0.2450,0.6000,0.2100,0.2450,0.3000,0.0600,0.0002,0,-0.3000,-100.0000,-0.0010,-0.3000,-100.0000,-0.0010,7.5858,30.6705,-1.3500,-1.3500
23.2947,19.9810,4.0954,0.0000,0.0821,-8.1000,-8.1000,-43.2000,0.0000,-0.2415,-0.1685,-0.1322,910,1365,1365,1365,2000,1000,1000,1000,1500,1500,1500,1500,1500,0.2707,-0.0147,-0.0145,-0.0056,0.0051,0.9910,-0.2053,0.5422,-0.0591,-0.2778,0.6000,0.2100,0.2450,0.6000,0.2100,0.2450,0.3000,0.0600,0.0002,0,-0.3000,-100.0000,-0.0010,-0.3000,-100.0000,-0.0010,7.6203,30.7132,-1.3500,-1.3500
23.2620,19.9553,4.0827,0.0000,0.0000,-8.1000,-8.1000,-43.2000,0.0000,-0.2413,-0.1684,-0.1322,910,1365,1365,1365,2000,1000,1000,1000,1500,1500,1500,1500,1500,0.2672,0.0282,-0.0967,-0.0080,0.0023,0.9875,-0.2051,0.5419,-0.0593,-0.2775,0.6000,0.2100,0.2450,0.6000,0.2100,0.2450,0.3000,0.0600,0.0002,0,-0.3000,-100.0000,-0.0010,-0.3000,-100.0000,-0.0010,7.6548,30.7559,-1.3500,-1.3500
23.2291,19.9297,4.0705,0.0000,0.0821,-8.1000,-8.1000,-43.2000,0.0000,-0.2410,-0.1683,-0.1329,910,1365,1365,1365,2000,1000,1000,1000,1500,1500,1500,1500,1500,0.2002,0.0313,0.0299,-0.0086,-0.0040,0.9890,-0.2056,0.5421,-0.0602,-0.2764,0.6000,0.2100,0.2450,0.6000,0.2100,0.2450,0.3000,0.0600,0.0002,0,-0.3000,-100.0000,-0.0010,-0.3000,-100.0000,-0.0010,7.6893,30.7986,-1.3500,-1.3500
23.1955,19.9046,4.0593,0.0000,0.0000,-8.1000,-8.1000,-43.2000,0.0000,-0.2406,-0.1682,-0.1332,910,1365,1365,1365,2000,1000,1000,1000,1500,1500,1500,1500,1500,0.1186,0.0629,0.0466,-0.0051,-0.0034,0.9935,-0.2056,0.5420,-0.0608,-0.2755,0.6000,0.2100,0.2450,0.6000,0.2100,0.2450,0.3000,0.0600,0.0002,0,-0.3000,-100.0000,-0.0010,-0.3000,-100.0000,-0.0010,7.7238,30.8412,-1.3500,-1.3500
23.1600,19.8786,4.0474,0.0000,0.0000,-8.1000,-8.1000,-43.2000,0.0000,-0.2399,-0.1677,-0.1332,910,1365,1365,1365,2000,1000,1000,1000,1500,1500,1500,1500,1500,-0.0752,-0.0714,-0.0479,-0.0028,-0.0025,0.9893,-0.2054,0.5408,-0.0610,-0.2744,0.6000,0.2100,0.2450,0.6000,0.2100,0.2450,0.3000,0.0600,0.0002,0,-0.3000,-100.0000,-0.0010,-0.3000,-100.0000,-0.0010,7.7583,30.8838,-1.3500,-1.3500
23.1232,19.8527,4.0347,0.0000,0.0000,-8.1000,-8.1000,-43.2000,0.0000,-0.2396,-0.1676,-0.1335,910,1365,1365,1365,2000,1000,1000,1000,1500,1500,1500,1500,1500,-0.1040,-0.0543,-0.0471,-0.0052,0.0016,0.9930,-0.2055,0.5406,-0.0615,-0.2737,0.6000,0.2100,0.2450,0.6000,0.2100,0.2450,0.3000,0.0600,0.0002,0,-0.3000,-100.0000,-0.0010,-0.3000,-100.0000,-0.0010,7.7928,30.9265,-1.3500,-1.3500
23.0863,19.8257,4.0222,0.0000,0.0000,-8.1000,-8.1000,-43.2000,0.0000,-0.2394,-0.1674,-0.1339,910,1365,1365,1365,2000,1000,1000,1000,1500,1500,1500,1500,1500,-0.0969,-0.0681,0.0103,-0.0083,0.0055,0.9904,-0.2059,0.5407,-0.0619,-0.2728,0.6000,0.2100,0.2450,0.6000,0.2100,0.2450,0.3000,0.0600,0.0002,0,-0.3000,-100.0000,-0.0010,-0.3000,-100.0000,-0.0010,7.8273,30.9691,-1.3500,-1.3500
23.0503,19.7980,4.0096,0.0000,0.0000,-8.1000,-8.1000,-43.2000,0.0000,-0.2394,-0.1670,-0.1343,910,1365,1365,1365,2000,1000,1000,1000,1500,1500,1500,1500,1500,-0.0153,-0.1456,0.0331,-0.0079,0.0086,0.9948,-0.2066,0.5407,-0.0619,-0.2721,0.6000,0.2100,0.2450,0.6000,0.2100,0.2450,0.3000,0.0600,0.0002,0,-0.3000,-100.0000,-0.0010,-0.3000,-100.0000,-0.0010,7.8618,31.0117,-1.3500,-1.3500
23.0154,19.7710,3.9971,0.0000,-0.0821,-8.1000,-8.1000,-43.2000,0.0000,-0.2396,-0.1671,-0.1343,910,1365,1365,1365,2000,1000,1000,1000,1500,1500,1500,1500,1500,0.1667,-0.0551,-0.0445,-0.0078,0.0064,0.9886,-0.2068,0.5410,-0.0618,-0.2724,0.6000,0.2100,0.2450,0.6000,0.2100,0.2450,0.3000,0.0600,0.0002,0,-0.3000,-100.0000,-0.0010,-0.3000,-100.0000,-0.0010,7.8963,31.0543,-1.3500,-1.3500
22.9827,19.7444,3.9855,0.0000,0.0000,-8.1000,-8.1000,-43.2000,0.0000,-0.2396,-0.1671,-0.1347,910,1365,1365,1365,2000,1000,1000,1000,1500,1500,1500,1500,1500,0.2274,0.0220,0.0291,-0.0063,0.0014,0.9967,-0.2072,0.5414,-0.0623,-0.2719,0.6000,0.2100,0.2450,0.6000,0.2100,0.2450,0.3000,0.0600,0.0002,0,-0.3000,-100.0000,-0.0010,-0.3000,-100.0000,-0.0010,7.9309,31.0970,-1.3500,-1.3500
22.9497,19.7185,3.9744,0.0000,0.0821,-8.1000,-8.1000,-43.2000,0.0000,-0.2393,-0.1671,-0.1353,910,1365,1365,1365,2000,1000,1000,1000,1500,1500,1500,1500,1500,0.2210,0.0778,0.1169,-0.0106,0.0018,0.9914,-0.2076,0.5418,-0.0631,-0.2711,0.6000,0.2100,0.2450,0.6000,0.2100,0.2450,0.3000,0.0600,0.0002,0,-0.3000,-100.0000,-0.0010,-0.3000,-100.0000,-0.0010,7.9654,31.1396,-1.3500,-1.3500
22.9164,19.6934,3.9639,0.0000,0.0000,-8.1000,-8.1000,-43.2000,0.0000,-0.2390,-0.1668,-0.1351,910,1365,1365,1365,2000,1000,1000,1000,1500,1500,1500,1500,1500,0.1503,0.0103,-0.0353,-0.0059,-0.0005,0.9973,-0.2073,0.5409,-0.0629,-0.2706,0.6000,0.2100,0.2450,0.6000,0.2100,0.2450,0.3000,0.0600,0.0002,0,-0.3000,-100.0000,-0.0010,-0.3000,-100.0000,-0.0010,8.0000,31.1822,-1.3500,-1.3500
22.8822,19.6675,3.9527,0.0829,0.0000,-8.1000,-8.1000,-43.2000,0.0000,-0.2385,-0.1666,-0.1356,910,1365,1365,1365,2000,1000,1000,1000,1500,1500,1500,1500,1500,0.0305,0.0033,0.0399,-0.0005,-0.0013,0.9882,-0.2075,0.5407,-0.0638,-0.2695,0.6000,0.2100,0.2450,0.6000,0.2100,0.2450,0.3000,0.0600,0.0002,0,-0.3000,-100.0000,-0.0010,-0.3000,-100.0000,-0.0010,8.0345,31.2247,-1.3500,-1.3500
22.8471,19.6412,3.9413,0.0000,-0.0821,-8.1000,-8.1000,-43.2000,0.0000,-0.2382,-0.1666,-0.1359,910,1365,1365,1365,2000,1000,1000,1000,1500,1500,1500,1500,1500,0.0095,0.0546,0.0428,-0.0017,-0.0034,0.9908,-0.2075,0.5407,-0.0643,-0.2689,0.6000,0.2100,0.2450,0.6000,0.2100,0.2450,0.3000,0.0600,0.0002,0,-0.3000,-100.0000,-0.0010,-0.3000,-100.0000,-0.0010,8.0691,31.2673,-1.3500,-1.3500
22.8115,19.6145,3.9294,0.0000,0.0000,-8.1000,-8.1000,-43.2000,0.0000,-0.2378,-0.1660,-0.1360,910,1365,1365,1365,2000,1000,1000,1000,1500,1500,1500,1500,1500,-0.0502,-0.1078,0.0041,-0.0016,0.0008,0.9923,-0.2079,0.5399,-0.0642,-0.2678,0.6000,0.2100,0.2450,0.6000,0.2100,0.2450,0.3000,0.0600,0.0002,0,-0.3000,-100.0000,-0.0010,-0.3000,-100.0000,-0.0010,8.1036,31.3098,-1.3500,-1.3500
22.7754,19.5865,3.9174,0.0000,0.0000,-8.1000,-8.1000,-43.2000,0.0000,-0.2377,-0.1657,-0.1366,910,1365,1365,1365,2000,1000,1000,1000,1500,1500,1500,1500,1500,-0.0367,-0.1908,0.0850,-0.0080,0.0055,0.9930,-0.2086,0.5399,-0.0646,-0.2667,0.6000,0.2100,0.2450,0.6000,0.2100,0.2450,0.3000,0.0600,0.0002,0,-0.3000,-100.0000,-0.0010,-0.3000,-100.0000,-0.0010,8.1382,31.3523,-1.3500,-1.3500
22.7398,19.5583,3.9050,0.0829,0.0000,-8.1000,-8.1000,-43.2000,0.0000,-0.2378,-0.1655,-0.1366,910,1365,1365,1365,2000,1000,1000,1000,1500,1500,1500,1500,1500,0.1046,-0.1858,0.0014,-0.0100,0.0044,0.9923,-0.2089,0.5399,-0.0643,-0.2667,0.6000,0.2100,0.2450,0.6000,0.2100,0.2450,0.3000,0.0600,0.0002,0,-0.3000,-100.0000,-0.0010,-0.3000,-100.0000,-0.0010,8.1727,31.3948,-1.3500,-1.3500
22.7054,19.5305,3.8925,0.0829,0.0000,-8.1000,-8.1000,-43.2000,0.0000,-0.2377,-0.1656,-0.1369,910,1365,1365,1365,2000,1000,1000,1000,1500,1500,1500,1500,1500,0.1398,-0.0668,0.0064,-0.0097,0.0056,0.9900,-0.2090,0.5402,-0.0649,-0.2664,0.6000,0.2100,0.2450,0.6000,0.2100,0.2450,0.3000,0.0600,0.0002,0,-0.3000,-100.0000,-0.0010,-0.3000,-100.0000,-0.0010,8.2073,31.4373,-1.3500,-1.3500
22.6717,19.5044,3.8807,0.0000,0.0000,-8.1000,-8.1000,-43.2000,0.0000,-0.2376,-0.1658,-0.1369,910,1365,1365,1365,2000,1000,1000,1000,1500,1500,1500,1500,1500,0.1757,0.0542,-0.0613,-0.0117,0.0015,0.9894,-0.2087,0.5402,-0.0651,-0.2664,0.6000,0.2100,0.2450,0.6000,0.2100,0.2450,0.3000,0.0600,0.0002,0,-0.3000,-100.0000,-0.0010,-0.3000,-100.0000,-0.0010,8.2418,31.4798,-1.3500,-1.3500
22.6381,19.4794,3.8684,0.0000,0.0000,-8.1000,-8.1000,-43.2000,0.0000,-0.2376,-0.1658,-0.1375,910,1365,1365,1365,2000,1000,1000,1000,1500,1500,1500,1500,1500,0.2568,0.1453,0.0023,-0.0064,-0.0001,0.9899,-0.2092,0.5409,-0.0657,-0.2659,0.6000,0.2100,0.2450,0.6000,0.2100,0.2450,0.3000,0.0600,0.0002,0,-0.3000,-100.0000,-0.0010,-0.3000,-100.0000,-0.0010,8.2764,31.5223,-1.3500,-1.3500
22.6046,19.4549,3.8574,0.0000,0.0000,-8.1000,-8.1000,-43.2000,0.0000,-0.2370,-0.1658,-0.1377,910,1365,1365,1365,2000,1000,1000,1000,1500,1500,1500,1500,1500,0.1258,0.1756,-0.0113,-0.0067,-0.0018,0.9933,-0.2089,0.5405,-0.0664,-0.2651,0.6000,0.2100,0.2450,0.6000,0.2100,0.2450,0.3000,0.0600,0.0002,0,-0.3000,-100.0000,-0.0010,-0.3000,-100.0000,-0.0010,8.3110,31.5648,-1.3500,-1.3500
22.5705,19.4299,3.8460,0.0000,0.0000,-8.1000,-8.1000,-43.2000,0.0000,-0.2366,-0.1655,-0.1379,910,1365,1365,1365,2000,1000,1000,1000,1500,1500,1500,1500,1500,0.0406,0.1180,-0.0160,-0.0063,0.0014,0.9931,-0.2091,0.5400,-0.0668,-0.2642,0.6000,0.2100,0.2450,0.6000,0.2100,0.2450,0.3000,0.0600,0.0002,0,-0.3000,-100.0000,-0.0010,-0.3000,-100.0000,-0.0010,8.3456,31.6072,-1.3500,-1.3500
22.5351,19.4039,3.8341,0.0000,0.0000,-8.1000,-8.1000,-43.2000,0.0000,-0.2362,-0.1647,-0.1381,910,1365,1365,1365,2000,1000,1000,1000,1500,1500,1500,1500,1500,-0.0343,-0.1215,-0.0410,-0.0065,0.0005,0.9881,-0.2096,0.5390,-0.0666,-0.2629,0.6000,0.2100,0.2450,0.6000,0.2100,0.2450,0.3000,0.0600,0.0002,0,-0.3000,-100.0000,-0.0010,-0.3000,-100.0000,-0.0010,8.3802,31.6496,-1.3500,-1.3500
22.4991,19.3763,3.8211,0.0000,0.0821,-8.1000,-8.1000,-43.2000,0.0000,-0.2362,-0.1644,-0.1385,910,1365,1365,1365,2000,1000,1000,1000,1500,1500,1500,1500,1500,0.0351,-0.1755,-0.0032,-0.0071,0.0014,0.9887,-0.2103,0.5391,-0.0667,-0.2621,0.6000,0.2100,0.2450,0.6000,0.2100,0.2450,0.3000,0.0600,0.0002,0,-0.3000,-100.0000,-0.0010,-0.3000,-100.0000,-0.0010,8.4147,31.6920,-1.3500,-1.3500
22.4635,19.3479,3.8086,0.0000,0.0821,-8.1000,-8.1000,-43.2000,0.0000,-0.2358,-0.1642,-0.1388,910,1365,1365,1365,2000,1000,1000,1000,1500,1500,1500,1500,1500,-0.0186,-0.2060,0.0145,-0.0054,0.0041,0.9946,-0.2105,0.5388,-0.0672,-0.2612,0.6000,0.2100,0.2450,0.6000,0.2100,0.2450,0.3000,0.0600,0.0002,0,-0.3000,-100.0000,-0.0010,-0.3000,-100.0000,-0.0010,8.4493,31.7344,-1.3500,-1.3500
22.4283,19.3202,3.7959,0.0000,-0.0821,-8.1000,-8.1000,-43.2000,0.0000,-0.2360,-0.1642,-0.1389,910,1365,1365,1365,2000,1000,1000,1000,1500,1500,1500,1500,1500,0.1247,-0.1204,-0.0422,-0.0098,0.0045,0.9950,-0.2107,0.5391,-0.0672,-0.2613,0.6000,0.2100,0.2450,0.6000,0.2100,0.2450,0.3000,0.0600,0.0002,0,-0.3000,-100.0000,-0.0010,-0.3000,-100.0000,-0.0010,8.4840,31.7769,-1.3500,-1.3500
22.3939,19.2936,3.7834,0.0000,0.0000,-8.1000,-8.1000,-43.2000,0.0000,-0.2359,-0.1644,-0.1390,910,1365,1365,1365,2000,1000,1000,1000,1500,1500,1500,1500,1500,0.1589,0.0336,-0.0842,-0.0114,0.0060,0.9880,-0.2105,0.5393,-0.0676,-0.2612,0.6000,0.2100,0.2450,0.6000,0.2100,0.2450,0.3000,0.0600,0.0002,0,-0.3000,-100.0000,-0.0010,-0.3000,-100.0000,-0.0010,8.5186,31.8193,-1.3500,-1.3500
22.3604,19.2682,3.7714,0.0000,0.0000,-8.1000,-8.1000,-43.2000,0.0000,-0.2358,-0.1645,-0.1395,910,1365,1365,1365,2000,1000,1000,1000,1500,1500,1500,1500,1500,0.2318,0.1243,-0.0535,-0.0095,0.0036,0.9921,-0.2108,0.5398,-0.0682,-0.2609,0.6000,0.2100,0.2450,0.6000,0.2100,0.2450,0.3000,0.0600,0.0002,0,-0.3000,-100.0000,-0.0010,-0.3000,-100.0000,-0.0010,8.5532,31.8618,-1.3500,-1.3500
22.3269,19.2428,3.7595,0.0000,0.0000,-8.1000,-8.1000,-43.2000,0.0000,-0.2354,-0.1642,-0.1398,910,1365,1365,1365,2000,1000,1000,1000,1500,1500,1500,1500,1500,0.1246,0.0686,-0.0039,-0.0061,-0.0012,0.9861,-0.2110,0.5394,-0.0687,-0.2597,0.6000,0.2100,0.2450,0.6000,0.2100,0.2450,0.3000,0.0600,0.0002,0,-0.3000,-100.0000,-0.0010,-0.3000,-100.0000,-0.0010,8.5878,31.9042,-1.3500,-1.3500
22.2929,19.2169,3.7482,0.0000,-0.0821,-8.1000,-8.1000,-43.2000,0.0000,-0.2350,-0.1638,-0.1402,910,1365,1365,1365,2000,1000,1000,1000,1500,1500,1500,1500,1500,0.0731,-0.0373,-0.0028,-0.0038,-0.0005,0.9883,-0.2114,0.5390,-0.0689,-0.2587,0.6000,0.2100,0.2450,0.6000,0.2100,0.2450,0.3000,0.0600,0.0002,0,-0.3000,-100.0000,-0.0010,-0.3000,-100.0000,-0.0010,8.6225,31.9467,-1.3500,-1.3500
22.2579,19.1905,3.7362,0.0829,0.0821,-8.1000,-8.1000,-43.2000,0.0000,-0.2346,-0.1637,-0.1403,910,1365,1365,1365,2000,1000,1000,1000,1500,1500,1500,1500,1500,-0.0057,-0.0102,-0.0486,-0.0050,-0.0000,0.9902,-0.2112,0.5387,-0.0694,-0.2580,0.6000,0.2100,0.2450,0.6000,0.2100,0.2450,0.3000,0.0600,0.0002,0,-0.3000,-100.0000,-0.0010,-0.3000,-100.0000,-0.0010,8.6571,31.9891,-1.3500,-1.3500
22.2228,19.1639,3.7243,0.0000,0.0000,-8.1000,-8.1000,-43.2000,0.0000,-0.2346,-0.1634,-0.1407,910,1365,1365,1365,2000,1000,1000,1000,1500,1500,1500,1500,1500,0.0784,-0.0769,0.0102,-0.0060,0.0014,0.9889,-0.2119,0.5387,-0.0694,-0.2574,0.6000,0.2100,0.2450,0.6000,0.2100,0.2450,0.3000,0.0600,0.0002,0,-0.3000,-100.0000,-0.0010,-0.3000,-100.0000,-0.0010,8.6918,32.0314,-1.3500,-1.3500
22.1878,19.1364,3.7122,0.0000,0.0000,-8.1000,-8.1000,-43.2000,0.0000,-0.2345,-0.1631,-0.1410,910,1365,1365,1365,2000,1000,1000,1000,1500,1500,1500,1500,1500,0.1312,-0.1331,0.0233,-0.0053,0.0025,0.9911,-0.2125,0.5387,-0.0696,-0.2566,0.6000,0.2100,0.2450,0.6000,0.2100,0.2450,0.3000,0.0600,0.0002,0,-0.3000,-100.0000,-0.0010,-0.3000,-100.0000,-0.0010,8.7264,32.0738,-1.3500,-1.3500
22.1536,19.1087,3.7004,0.0000,0.0000,-8.1000,-8.1000,-43.2000,0.0000,-0.2342,-0.1632,-0.1411,910,1365,1365,1365,2000,1000,1000,1000,1500,1500,1500,1500,1500,0.0685,-0.0260,-0.0486,-0.0077,0.0035,0.9916,-0.2121,0.5385,-0.0701,-0.2563,0.6000,0.2100,0.2450,0.6000,0.2100,0.2450,0.3000,0.0600,0.0002,0,-0.3000,-100.0000,-0.0010,-0.3000,-100.0000,-0.0010,8.7611,32.1162,-1.3500,-1.3500
22.1193,19.0813,3.6887,0.0000,0.0000,-8.1000,-8.1000,-43.2000,0.0000,-0.2341,-0.1629,-0.1415,910,1365,1365,1365,2000,1000,1000,1000,1500,1500,1500,1500,1500,0.1189,-0.0710,-0.0108,-0.0093,0.0001,0.9925,-0.2127,0.5385,-0.0703,-0.2555,0.6000,0.2100,0.2450,0.6000,0.2100,0.2450,0.3000,0.0600,0.0002,0,-0.3000,-100.0000,-0.0010,-0.3000,-100.0000,-0.0010,8.7957,32.1585,-1.3500,-1.3500
22.0858,19.0544,3.6770,0.0000,0.0000,-8.1000,-8.1000,-43.2000,0.0000,-0.2340,-0.1629,-0.1419,910,1365,1365,1365,2000,1000,1000,1000,1500,1500,1500,1500,1500,0.1710,-0.0012,0.0340,-0.0069,0.0060,0.9933,-0.2130,0.5389,-0.0708,-0.2551,0.6000,0.2100,0.2450,0.6000,0.2100,0.2450,0.3000,0.0600,0.0002,0,-0.3000,-100.0000,-0.0010,-0.3000,-100.0000,-0.0010,8.8304,32.2009,-1.3500,-1.3500
22.0518,19.0281,3.6661,0.0000,0.0000,-8.1000,-8.1000,-43.2000,0.0000,-0.2335,-0.1630,-0.1423,910,1365,1365,1365,2000,1000,1000,1000,1500,1500,1500,1500,1500,0.0498,0.1104,0.0735,-0.0092,0.0025,0.9892,-0.2128,0.5388,-0.0718,-0.2543,0.6000,0.2100,0.2450,0.6000,0.2100,0.2450,0.3000,0.0600,0.0002,0,-0.3000,-100.0000,-0.0010,-0.3000,-100.0000,-0.0010,8.8651,32.2432,-1.3500,-1.3500
22.0175,19.0018,3.6552,0.0829,0.0000,-8.1000,-8.1000,-43.2000,0.0000,-0.2336,-0.1626,-0.1423,910,1365,1365,1365,2000,1000,1000,1000,1500,1500,1500,1500,1500,0.1539,0.0145,0.0021,-0.0088,0.0049,0.9901,-0.2132,0.5385,-0.0714,-0.2539,0.6000,0.2100,0.2450,0.6000,0.2100,0.2450,0.3000,0.0600,0.0002,0,-0.3000,-100.0000,-0.0010,-0.3000,-100.0000,-0.0010,8.8997,32.2856,-1.3500,-1.3500
21.9833,18.9754,3.6439,0.0000,0.0821,-8.1000,-8.1000,-43.2000,0.0000,-0.2333,-0.1627,-0.1426,910,1365,1365,1365,2000,1000,1000,1000,1500,1500,1500,1500,1500,0.1366,0.0877,0.0020,-0.0042,-0.0004,0.9934,-0.2133,0.5386,-0.0719,-0.2534,0.6000,0.2100,0.2450,0.6000,0.2100,0.2450,0.3000,0.0600,0.0002,0,-0.3000,-100.0000,-0.0010,-0.3000,-100.0000,-0.0010,8.9344,32.3279,-1.3500,-1.3500
21.9491,18.9487,3.6327,0.0000,0.0000,-8.1000,-8.1000,-43.2000,0.0000,-0.2331,-0.1622,-0.1431,910,1365,1365,1365,2000,1000,1000,1000,1500,1500,1500,1500,1500,0.1206,-0.0415,0.0756,-0.0022,-0.0019,0.9868,-0.2140,0.5384,-0.0722,-0.2522,0.6000,0.2100,0.2450,0.6000,0.2100,0.2450,0.3000,0.0600,0.0002,0,-0.3000,-100.0000,-0.0010,-0.3000,-100.0000,-0.0010,8.9691,32.3702,-1.3500,-1.3500
21.9146,18.9220,3.6214,0.0000,0.0000,-8.1000,-8.1000,-43.2000,0.0000,-0.2328,-0.1621,-0.1433,910,1365,1365,1365,2000,1000,1000,1000,1500,1500,1500,1500,1500,0.1045,-0.0129,0.0505,-0.0068,-0.0024,0.9918,-0.2140,0.5382,-0.0725,-0.2517,0.6000,0.2100,0.2450,0.6000,0.2100,0.2450,0.3000,0.0600,0.0002,0,-0.3000,-100.0000,-0.0010,-0.3000,-100.0000,-0.0010,9.0038,32.4124,-1.3500,-1.3500
21.8797,18.8950,3.6102,0.0000,0.0000,-8.1000,-8.1000,-43.2000,0.0000,-0.2324,-0.1620,-0.1434,910,1365,1365,1365,2000,1000,1000,1000,1500,1500,1500,1500,1500,0.0282,-0.0051,0.0199,-0.0057,-0.0016,0.9920,-0.2139,0.5378,-0.0729,-0.2510,0.6000,0.2100,0.2450,0.6000,0.2100,0.2450,0.3000,0.0600,0.0002,0,-0.3000,-100.0000,-0.0010,-0.3000,-100.0000,-0.0010,9.0385,32.4546,-1.3500,-1.3500
21.8442,18.8674,3.5977,0.0000,0.0000,-8.1000,-8.1000,-43.2000,0.0000,-0.2322,-0.1614,-0.1436,910,1365,1365,1365,2000,1000,1000,1000,1500,1500,1500,1500,1500,0.0023,-0.1453,-0.0264,-0.0068,0.0047,0.9896,-0.2143,0.5372,-0.0729,-0.2500,0.6000,0.2100,0.2450,0.6000,0.2100,0.2450,0.3000,0.0600,0.0002,0,-0.3000,-100.0000,-0.0010,-0.3000,-100.0000,-0.0010,9.0732,32.4968,-1.3500,-1.3500
21.8086,18.8396,3.5855,0.0000,0.0821,-8.1000,-8.1000,-43.2000,0.0000,-0.2319,-0.1615,-0.1440,910,1365,1365,1365,2000,1000,1000,1000,1500,1500,1500,1500,1500,-0.0114,-0.0746,-0.0070,-0.0100,0.0019,0.9951,-0.2144,0.5374,-0.0735,-0.2494,0.6000,0.2100,0.2450,0.6000,0.2100,0.2450,0.3000,0.0600,0.0002,0,-0.3000,-100.0000,-0.0010,-0.3000,-100.0000,-0.0010,9.1079,32.5390,-1.3500,-1.3500
21.7730,18.8124,3.5736,0.0000,0.0000,-8.1000,-8.1000,-43.2000,0.0000,-0.2318,-0.1612,-0.1441,910,1365,1365,1365,2000,1000,1000,1000,1500,1500,1500,1500,1500,0.0126,-0.1056,-0.0245,-0.0108,0.0053,0.9943,-0.2147,0.5371,-0.0736,-0.2488,0.6000,0.2100,0.2450,0.6000,0.2100,0.2450,0.3000,0.0600,0.0002,0,-0.3000,-100.0000,-0.0010,-0.3000,-100.0000,-0.0010,9.1426,32.5812,-1.3500,-1.3500
21.7379,18.7854,3.5615,0.0000,0.0000,-8.1000,-8.1000,-43.2000,0.0000,-0.2318,-0.1613,-0.1445,910,1365,1365,1365,2000,1000,1000,1000,1500,1500,1500,1500,1500,0.1181,-0.0234,-0.0150,-0.0108,0.0024,0.9901,-0.2151,0.5376,-0.0739,-0.2486,0.6000,0.2100,0.2450,0.6000,0.2100,0.2450,0.3000,0.0600,0.0002,0,-0.3000,-100.0000,-0.0010,-0.3000,-100.0000,-0.0010,9.1773,32.6234,-1.3500,-1.3500
21.7032,18.7594,3.5501,0.0000,0.0000,-8.1000,-8.1000,-43.2000,0.0000,-0.2316,-0.1615,-0.1446,910,1365,1365,1365,2000,1000,1000,1000,1500,1500,1500,1500,1500,0.1307,0.1432,0.0044,-0.0074,0.0004,0.9926,-0.2147,0.5377,-0.0744,-0.2486,0.6000,0.2100,0.2450,0.6000,0.2100,0.2450,0.3000,0.0600,0.0002,0,-0.3000,-100.0000,-0.0010,-0.3000,-100.0000,-0.0010,9.2120,32.6656,-1.3500,-1.3500
21.6696,18.7338,3.5391,0.0000,0.0000,-8.1000,-8.1000,-43.2000,0.0000,-0.2316,-0.1611,-0.1445,910,1365,1365,1365,2000,1000,1000,1000,1500,1500,1500,1500,1500,0.1914,0.0418,-0.0244,-0.0060,0.0008,0.9917,-0.2150,0.5372,-0.0741,-0.2481,0.6000,0.2100,0.2450,0.6000,0.2100,0.2450,0.3000,0.0600,0.0002,0,-0.3000,-100.0000,-0.0010,-0.3000,-100.0000,-0.0010,9.2468,32.7078,-1.3500,-1.3500
21.6362,18.7077,3.5272,0.0829,-0.0821,-8.1000,-8.1000,-43.2000,0.0000,-0.2315,-0.1610,-0.1445,910,1365,1365,1365,2000,1000,1000,1000,1500,1500,1500,1500,1500,0.2307,0.0483,-0.0538,-0.0028,-0.0043,0.9923,-0.2150,0.5369,-0.0739,-0.2480,0.6000,0.2100,0.2450,0.6000,0.2100,0.2450,0.3000,0.0600,0.0002,0,-0.3000,-100.0000,-0.0010,-0.3000,-100.0000,-0.0010,9.2815,32.7500,-1.3500,-1.3500
21.6018,18.6806,3.5153,0.0000,0.0821,-8.1000,-8.1000,-43.2000,0.0000,-0.2309,-0.1604,-0.1444,910,1365,1365,1365,2000,1000,1000,1000,1500,1500,1500,1500,1500,0.0590,-0.1158,-0.0576,-0.0054,-0.0007,0.9912,-0.2149,0.5357,-0.0739,-0.2469,0.6000,0.2100,0.2450,0.6000,0.2100,0.2450,0.3000,0.0600,0.0002,0,-0.3000,-100.0000,-0.0010,-0.3000,-100.0000,-0.0010,9.3162,32.7921,-1.3500,-1.3500
21.5662,18.6531,3.5031,0.0000,0.0000,-8.1000,-8.1000,-43.2000,0.0000,-0.2304,-0.1603,-0.1447,910,1365,1365,1365,2000,1000,1000,1000,1500,1500,1500,1500,1500,-0.0208,-0.1008,0.0203,-0.0054,-0.0011,0.9909,-0.2149,0.5354,-0.0745,-0.2460,0.6000,0.2100,0.2450,0.6000,0.2100,0.2450,0.3000,0.0600,0.0002,0,-0.3000,-100.0000,-0.0010,-0.3000,-100.0000,-0.0010,9.3510,32.8342,-1.3500,-1.3500
21.5300,18.6252,3.4914,0.0000,0.0000,-8.1000,-8.1000,-43.2000,0.0000,-0.2302,-0.1600,-0.1447,910,1365,1365,1365,2000,1000,1000,1000,1500,1500,1500,1500,1500,-0.0254,-0.1445,0.0459,-0.0071,0.0012,0.9952,-0.2149,0.5349,-0.0745,-0.2455,0.6000,0.2100,0.2450,0.6000,0.2100,0.2450,0.3000,0.0600,0.0002,0,-0.3000,-100.0000,-0.0010,-0.3000,-100.0000,-0.0010,9.3857,32.8763,-1.3500,-1.3500
21.4939,18.5967,3.4793,0.0000,0.0000,-8.1000,-8.1000,-43.2000,0.0000,-0.2299,-0.1596,-0.1446,910,1365,1365,1365,2000,1000,1000,1000,1500,1500,1500,1500,1500,-0.0713,-0.2324,-0.0132,-0.0094,0.0039,0.9912,-0.2149,0.5341,-0.0743,-0.2449,0.6000,0.2100,0.2450,0.6000,0.2100,0.2450,0.3000,0.0600,0.0002,0,-0.3000,-100.0000,-0.0010,-0.3000,-100.0000,-0.0010,9.4204,32.9185,-1.3500,-1.3500
21.4578,18.5687,3.4672,0.0000,-0.0821,-8.1000,-8.1000,-43.2000,0.0000,-0.2299,-0.1599,-0.1445,910,1365,1365,1365,2000,1000,1000,1000,1500,1500,1500,1500,1500,0.0323,-0.0418,-0.0401,-0.0084,0.0062,0.9933,-0.2145,0.5343,-0.0745,-0.2453,0.6000,0.2100,0.2450,0.6000,0.2100,0.2450,0.3000,0.0600,0.0002,0,-0.3000,-100.0000,-0.0010,-0.3000,-100.0000,-0.0010,9.4552,32.9606,-1.3500,-1.3500
21.4233,18.5419,3.4561,0.0000,0.0000,-8.1000,-8.1000,-43.2000,0.0000,-0.2299,-0.1600,-0.1447,910,1365,1365,1365,2000,1000,1000,1000,1500,1500,1500,1500,1500,0.1091,0.0701,0.0396,-0.0097,0.0021,0.9935,-0.2146,0.5346,-0.0748,-0.2452,0.6000,0.2100,0.2450,0.6000,0.2100,0.2450,0.3000,0.0600,0.0002,0,-0.3000,-100.0000,-0.0010,-0.3000,-100.0000,-0.0010,9.4900,33.0027,-1.3500,-1.3500
21.3899,18.5158,3.4456,0.0000,0.0000,-8.1000,-8.1000,-43.2000,0.0000,-0.2300,-0.1598,-0.1447,910,1365,1365,1365,2000,1000,1000,1000,1500,1500,1500,1500,1500,0.2277,0.0598,0.0317,-0.0053,-0.0027,0.9887,-0.2149,0.5346,-0.0746,-0.2451,0.6000,0.2100,0.2450,0.6000,0.2100,0.2450,0.3000,0.0600,0.0002,0,-0.3000,-100.0000,-0.0010,-0.3000,-100.0000,-0.0010,9.5247,33.0448,-1.3500,-1.3500
21.3572,18.4898,3.4355,0.0000,0.0000,-8.1000,-8.1000,-43.2000,0.0000,-0.2299,-0.1599,-0.1448,910,1365,1365,1365,2000,1000,1000,1000,1500,1500,1500,1500,1500,0.2535,0.1616,0.0483,-0.0077,0.0021,0.9913,-0.2147,0.5346,-0.0748,-0.2450,0.6000,0.2100,0.2450,0.6000,0.2100,0.2450,0.3000,0.0600,0.0002,0,-0.3000,-100.0000,-0.0010,-0.3000,-100.0000,-0.0010,9.5595,33.0869,-1.3500,-1.3500
21.3239,18.4631,3.4246,0.0000,0.0000,-8.1000,-8.1000,-43.2000,0.0000,-0.2294,-0.1592,-0.1445,910,1365,1365,1365,2000,1000,1000,1000,1500,1500,1500,1500,1500,0.1537,-0.0647,-0.0407,-0.0073,-0.0008,0.9905,-0.2147,0.5331,-0.0743,-0.2442,0.6000,0.2100,0.2450,0.6000,0.2100,0.2450,0.3000,0.0600,0.0002,0,-0.3000,-100.0000,-0.0010,-0.3000,-100.0000,-0.0010,9.5943,33.1290,-1.3500,-1.3500
21.2891,18.4351,3.4130,0.0000,0.0821,-8.1000,-8.1000,-43.2000,0.0000,-0.2289,-0.1589,-0.1449,910,1365,1365,1365,2000,1000,1000,1000,1500,1500,1500,1500,1500,0.0143,-0.1220,0.0954,-0.0074,-0.0019,0.9882,-0.2149,0.5327,-0.0749,-0.2429,0.6000,0.2100,0.2450,0.6000,0.2100,0.2450,0.3000,0.0600,0.0002,0,-0.3000,-100.0000,-0.0010,-0.3000,-100.0000,-0.0010,9.6290,33.1710,-1.3500,-1.3500
21.2526,18.4066,3.4007,0.0000,-0.0821,-8.1000,-8.1000,-43.2000,0.0000,-0.2284,-0.1585,-0.1446,910,1365,1365,1365,2000,1000,1000,1000,1500,1500,1500,1500,1500,-0.0932,-0.2295,-0.0346,-0.0077,0.0042,0.9936,-0.2145,0.5314,-0.0747,-0.2423,0.6000,0.2100,0.2450,0.6000,0.2100,0.2450,0.3000,0.0600,0.0002,0,-0.3000,-100.0000,-0.0010,-0.3000,-100.0000,-0.0010,9.6638,33.2130,-1.3500,-1.3500
21.2158,18.3780,3.3888,0.0829,0.0821,-8.1000,-8.1000,-43.2000,0.0000,-0.2282,-0.1586,-0.1447,910,1365,1365,1365,2000,1000,1000,1000,1500,1500,1500,1500,1500,-0.0723,-0.0959,0.0243,-0.0046,0.0041,0.9939,-0.2142,0.5315,-0.0751,-0.2422,0.6000,0.2100,0.2450,0.6000,0.2100,0.2450,0.3000,0.0600,0.0002,0,-0.3000,-100.0000,-0.0010,-0.3000,-100.0000,-0.0010,9.6986,33.2550,-1.3500,-1.3500
21.1801,18.3507,3.3778,0.0000,0.0000,-8.1000,-8.1000,-43.2000,0.0000,-0.2281,-0.1589,-0.1447,910,1365,1365,1365,2000,1000,1000,1000,1500,1500,1500,1500,1500,-0.0199,0.0816,0.0447,-0.0104,0.0059,0.9932,-0.2140,0.5318,-0.0755,-0.2423,0.6000,0.2100,0.2450,0.6000,0.2100,0.2450,0.3000,0.0600,0.0002,0,-0.3000,-100.0000,-0.0010,-0.3000,-100.0000,-0.0010,9.7334,33.2970,-1.3500,-1.3500
21.1458,18.3245,3.3672,0.0000,0.0000,-8.1000,-8.1000,-43.2000,0.0000,-0.2284,-0.1588,-0.1447,910,1365,1365,1365,2000,1000,1000,1000,1500,1500,1500,1500,1500,0.1732,0.1004,0.0364,-0.0091,0.0056,0.9905,-0.2143,0.5319,-0.0751,-0.2425,0.6000,0.2100,0.2450,0.6000,0.2100,0.2450,0.3000,0.0600,0.0002,0,-0.3000,-100.0000,-0.0010,-0.3000,-100.0000,-0.0010,9.7682,33.3391,-1.3500,-1.3500
21.1125,18.2987,3.3568,0.0000,0.0000,-8.1000,-8.1000,-43.2000,0.0000,-0.2283,-0.1587,-0.1446,910,1365,1365,1365,2000,1000,1000,1000,1500,1500,1500,1500,1500,0.2115,0.1326,-0.0158,-0.0054,0.0027,0.9948,-0.2142,0.5316,-0.0750,-0.2424,0.6000,0.2100,0.2450,0.6000,0.2100,0.2450,0.3000,0.0600,0.0002,0,-0.3000,-100.0000,-0.0010,-0.3000,-100.0000,-0.0010,9.8030,33.3811,-1.3500,-1.3500
21.0793,18.2716,3.3454,0.0000,0.0000,-8.1000,-8.1000,-43.2000,0.0000,-0.2281,-0.1582,-0.1443,910,1365,1365,1365,2000,1000,1000,1000,1500,1500,1500,1500,1500,0.2161,-0.0198,-0.0779,-0.0055,0.0000,0.9898,-0.2142,0.5306,-0.0744,-0.2420,0.6000,0.2100,0.2450,0.6000,0.2100,0.2450,0.3000,0.0600,0.0002,0,-0.3000,-100.0000,-0.0010,-0.3000,-100.0000,-0.0010,9.8378,33.4231,-1.3500,-1.3500
21.0459,18.2437,3.3336,0.0829,0.0000,-8.1000,-8.1000,-43.2000,0.0000,-0.2276,-0.1577,-0.1446,910,1365,1365,1365,2000,1000,1000,1000,1500,1500,1500,1500,1500,0.1087,-0.1485,0.0215,-0.0040,-0.0034,0.9885,-0.2146,0.5300,-0.0747,-0.2407,0.6000,0.2100,0.2450,0.6000,0.2100,0.2450,0.3000,0.0600,0.0002,0,-0.3000,-100.0000,-0.0010,-0.3000,-100.0000,-0.0010,9.8727,33.4652,-1.3500,-1.3500
21.0110,18.2153,3.3220,0.0000,0.0000,-8.1000,-8.1000,-43.2000,0.0000,-0.2273,-0.1575,-0.1445,910,1365,1365,1365,2000,1000,1000,1000,1500,1500,1500,1500,1500,0.0422,-0.1603,-0.0261,-0.0041,-0.0020,0.9906,-0.2143,0.5293,-0.0747,-0.2403,0.6000,0.2100,0.2450,0.6000,0.2100,0.2450,0.3000,0.0600,0.0002,0,-0.3000,-100.0000,-0.0010,-0.3000,-100.0000,-0.0010,9.9075,33.5071,-1.3500,-1.3500
20.9749,18.1872,3.3101,0.0000,0.0000,-8.1000,-8.1000,-43.2000,0.0000,-0.2267,-0.1576,-0.1447,910,1365,1365,1365,2000,1000,1000,1000,1500,1500,1500,1500,1500,-0.1063,-0.0371,0.0174,-0.0072,0.0027,0.9928,-0.2137,0.5290,-0.0756,-0.2397,0.6000,0.2100,0.2450,0.6000,0.2100,0.2450,0.3000,0.0600,0.0002,0,-0.3000,-100.0000,-0.0010,-0.3000,-100.0000,-0.0010,9.9423,33.5491,-1.3500,-1.3500
20.9385,18.1600,3.2989,0.0000,0.0821,-8.1000,-8.1000,-43.2000,0.0000,-0.2265,-0.1575,-0.1445,910,1365,1365,1365,2000,1000,1000,1000,1500,1500,1500,1500,1500,-0.0771,-0.0164,-0.0334,-0.0063,0.0043,0.9917,-0.2135,0.5286,-0.0755,-0.2395,0.6000,0.2100,0.2450,0.6000,0.2100,0.2450,0.3000,0.0600,0.0002,0,-0.3000,-100.0000,-0.0010,-0.3000,-100.0000,-0.0010,9.9772,33.5911,-1.3500,-1.3500
20.9026,18.1329,3.2881,0.0000,0.0000,-8.1000,-8.1000,-43.2000,0.0000,-0.2265,-0.1575,-0.1447,910,1365,1365,1365,2000,1000,1000,1000,1500,1500,1500,1500,1500,-0.0134,0.0572,0.0464,-0.0070,0.0002,0.9936,-0.2137,0.5287,-0.0758,-0.2393,0.6000,0.2100,0.2450,0.6000,0.2100,0.2450,0.3000,0.0600,0.0002,0,-0.3000,-100.0000,-0.0010,-0.3000,-100.0000,-0.0010,10.0120,33.6330,-1.3500,-1.3500
20.8681,18.1068,3.2775,0.0000,0.0000,-8.1000,-8.1000,-43.2000,0.0000,-0.2267,-0.1575,-0.1446,910,1365,1365,1365,2000,1000,1000,1000,1500,1500,1500,1500,1500,0.1598,0.0871,0.0040,-0.0070,0.0009,0.9938,-0.2139,0.5288,-0.0754,-0.2395,0.6000,0.2100,0.2450,0.6000,0.2100,0.2450,0.3000,0.0600,0.0002,0,-0.3000,-100.0000,-0.0010,-0.3000,-100.0000,-0.0010,10.0468,33.6750,-1.3500,-1.3500
20.8343,18.0809,3.2661,0.0829,0.0000,-8.1000,-8.1000,-43.2000,0.0000,-0.2266,-0.1572,-0.1445,910,1365,1365,1365,2000,1000,1000,1000,1500,1500,1500,1500,1500,0.1934,0.0559,-0.0591,-0.0090,-0.0008,0.9950,-0.2138,0.5283,-0.0751,-0.2393,0.6000,0.2100,0.2450,0.6000,0.2100,0.2450,0.3000,0.0600,0.0002,0,-0.3000,-100.0000,-0.0010,-0.3000,-100.0000,-0.0010,10.0817,33.7169,-1.3500,-1.3500
20.8005,18.0535,3.2546,0.0000,0.0821,-8.1000,-8.1000,-43.2000,0.0000,-0.2263,-0.1567,-0.1447,910,1365,1365,1365,2000,1000,1000,1000,1500,1500,1500,1500,1500,0.1718,-0.1023,0.0335,-0.0074,0.0003,0.9912,-0.2144,0.5277,-0.0751,-0.2383,0.6000,0.2100,0.2450,0.6000,0.2100,0.2450,0.3000,0.0600,0.0002,0,-0.3000,-100.0000,-0.0010,-0.3000,-100.0000,-0.0010,10.1166,33.7589,-1.3500,-1.3500
20.7656,18.0254,3.2432,0.0000,0.0000,-8.1000,-8.1000,-43.2000,0.0000,-0.2257,-0.1564,-0.1444,910,1365,1365,1365,2000,1000,1000,1000,1500,1500,1500,1500,1500,0.0148,-0.1303,-0.0655,-0.0072,-0.0044,0.9892,-0.2137,0.5266,-0.0751,-0.2378,0.6000,0.2100,0.2450,0.6000,0.2100,0.2450,0.3000,0.0600,0.0002,0,-0.3000,-100.0000,-0.0010,-0.3000,-100.0000,-0.0010,10.1514,33.8008,-1.3500,-1.3500
20.7300,17.9973,3.2317,0.0829,0.0000,-8.1000,-8.1000,-43.2000,0.0000,-0.2255,-0.1562,-0.1447,910,1365,1365,1365,2000,1000,1000,1000,1500,1500,1500,1500,1500,0.0250,-0.1414,0.0148,-0.0038,-0.0002,0.9922,-0.2140,0.5264,-0.0753,-0.2371,0.6000,0.2100,0.2450,0.6000,0.2100,0.2450,0.3000,0.0600,0.0002,0,-0.3000,-100.0000,-0.0010,-0.3000,-100.0000,-0.0010,10.1863,33.8427,-1.3500,-1.3500
20.6945,17.9690,3.2205,0.0000,0.0000,-8.1000,-8.1000,-43.2000,0.0000,-0.2251,-0.1562,-0.1446,910,1365,1365,1365,2000,1000,1000,1000,1500,1500,1500,1500,1500,-0.0497,-0.0734,-0.0075,-0.0007,0.0012,0.9937,-0.2135,0.5260,-0.0757,-0.2368,0.6000,0.2100,0.2450,0.6000,0.2100,0.2450,0.3000,0.0600,0.0002,0,-0.3000,-100.0000,-0.0010,-0.3000,-100.0000,-0.0010,10.2212,33.8846,-1.3500,-1.3500
20.6583,17.9411,3.2088,0.0000,0.0000,-8.1000,-8.1000,-43.2000,0.0000,-0.2250,-0.1563,-0.1447,910,1365,1365,1365,2000,1000,1000,1000,1500,1500,1500,1500,1500,-0.0400,0.0343,0.0004,-0.0068,0.0045,0.9927,-0.2133,0.5259,-0.0760,-0.2366,0.6000,0.2100,0.2450,0.6000,0.2100,0.2450,0.3000,0.0600,0.0002,0,-0.3000,-100.0000,-0.0010,-0.3000,-100.0000,-0.0010,10.2561,33.9265,-1.3500,-1.3500
20.6231,17.9143,3.1987,0.0000,0.0000,-8.1000,-8.1000,-43.2000,0.0000,-0.2248,-0.1562,-0.1448,910,1365,1365,1365,2000,1000,1000,1000,1500,1500,1500,1500,1500,-0.0027,0.0495,0.0714,-0.0076,0.0060,0.9928,-0.2134,0.5259,-0.0762,-0.2362,0.6000,0.2100,0.2450,0.6000,0.2100,0.2450,0.3000,0.0600,0.0002,0,-0.3000,-100.0000,-0.0010,-0.3000,-100.0000,-0.0010,10.2909,33.9684,-1.3500,-1.3500
20.5886,17.8867,3.1880,0.0829,0.0000,-8.1000,-8.1000,-43.2000,0.0000,-0.2251,-0.1558,-0.1447,910,1365,1365,1365,2000,1000,1000,1000,1500,1500,1500,1500,1500,0.2084,-0.0481,0.0344,-0.0084,0.0022,0.9956,-0.2141,0.5257,-0.0754,-0.2362,0.6000,0.2100,0.2450,0.6000,0.2100,0.2450,0.3000,0.0600,0.0002,0,-0.3000,-100.0000,-0.0010,-0.3000,-100.0000,-0.0010,10.3258,34.0103,-1.3500,-1.3500
20.5556,17.8591,3.1774,0.0000,0.0000,-8.1000,-8.1000,-43.2000,0.0000,-0.2250,-0.1557,-0.1447,910,1365,1365,1365,2000,1000,1000,1000,1500,1500,1500,1500,1500,0.2216,-0.0270,0.0329,-0.0078,-0.0003,0.9928,-0.2140,0.5254,-0.0754,-0.2359,0.6000,0.2100,0.2450,0.6000,0.2100,0.2450,0.3000,0.0600,0.0002,0,-0.3000,-100.0000,-0.0010,-0.3000,-100.0000,-0.0010,10.3607,34.0521,-1.3500,-1.3500
20.5226,17.8314,3.1677,0.0000,0.0000,-8.1000,-8.1000,-43.2000,0.0000,-0.2246,-0.1555,-0.1448,910,1365,1365,1365,2000,1000,1000,1000,1500,1500,1500,1500,1500,0.1658,-0.0437,0.0877,-0.0067,-0.0028,0.9894,-0.2140,0.5250,-0.0757,-0.2353,0.6000,0.2100,0.2450,0.6000,0.2100,0.2450,0.3000,0.0600,0.0002,0,-0.3000,-100.0000,-0.0010,-0.3000,-100.0000,-0.0010,10.3956,34.0939,-1.3500,-1.3500
20.4885,17.8035,3.1568,0.0000,0.0000,-8.1000,-8.1000,-43.2000,0.0000,-0.2242,-0.1552,-0.1447,910,1365,1365,1365,2000,1000,1000,1000,1500,1500,1500,1500,1500,0.0729,-0.0809,0.0321,-0.0069,0.0014,0.9900,-0.2137,0.5241,-0.0757,-0.2348,0.6000,0.2100,0.2450,0.6000,0.2100,0.2450,0.3000,0.0600,0.0002,0,-0.3000,-100.0000,-0.0010,-0.3000,-100.0000,-0.0010,10.4305,34.1357,-1.3500,-1.3500
20.4530,17.7754,3.1461,0.0000,0.0000,-8.1000,-8.1000,-43.2000,0.0000,-0.2238,-0.1553,-0.1446,910,1365,1365,1365,2000,1000,1000,1000,1500,1500,1500,1500,1500,-0.0059,0.0076,0.0085,-0.0066,0.0012,0.9882,-0.2131,0.5237,-0.0761,-0.2345,0.6000,0.2100,0.2450,0.6000,0.2100,0.2450,0.3000,0.0600,0.0002,0,-0.3000,-100.0000,-0.0010,-0.3000,-100.0000,-0.0010,10.4654,34.1775,-1.3500,-1.3500
20.4168,17.7483,3.1351,0.0000,0.0000,-8.1000,-8.1000,-43.2000,0.0000,-0.2233,-0.1551,-0.1445,910,1365,1365,1365,2000,1000,1000,1000,1500,1500,1500,1500,1500,-0.1060,0.0005,-0.0459,-0.0042,0.0023,0.9936,-0.2128,0.5229,-0.0763,-0.2339,0.6000,0.2100,0.2450,0.6000,0.2100,0.2450,0.3000,0.0600,0.0002,0,-0.3000,-100.0000,-0.0010,-0.3000,-100.0000,-0.0010,10.5004,34.2193,-1.3500,-1.3500
20.3808,17.7214,3.1249,0.0829,0.0000,-8.1000,-8.1000,-43.2000,0.0000,-0.2234,-0.1550,-0.1446,910,1365,1365,1365,2000,1000,1000,1000,1500,1500,1500,1500,1500,0.0008,0.0157,0.0363,-0.0050,0.0009,0.9939,-0.2130,0.5230,-0.0762,-0.2337,0.6000,0.2100,0.2450,0.6000,0.2100,0.2450,0.3000,0.0600,0.0002,0,-0.3000,-100.0000,-0.0010,-0.3000,-100.0000,-0.0010,10.5353,34.2610,-1.3500,-1.3500
20.3465,17.6939,3.1144,0.0000,0.0000,-8.1000,-8.1000,-43.2000,0.0000,-0.2236,-0.1548,-0.1448,910,1365,1365,1365,2000,1000,1000,1000,1500,1500,1500,1500,1500,0.1530,-0.0032,0.0568,-0.0042,0.0018,0.9924,-0.2136,0.5231,-0.0760,-0.2335,0.6000,0.2100,0.2450,0.6000,0.2100,0.2450,0.3000,0.0600,0.0002,0,-0.3000,-100.0000,-0.0010,-0.3000,-100.0000,-0.0010,10.5702,34.3028,-1.3500,-1.3500
20.3129,17.6662,3.1041,0.0000,0.0000,-8.1000,-8.1000,-43.2000,0.0000,-0.2234,-0.1545,-0.1446,910,1365,1365,1365,2000,1000,1000,1000,1500,1500,1500,1500,1500,0.1861,-0.0326,0.0126,-0.0091,0.0027,0.9918,-0.2136,0.5226,-0.0757,-0.2333,0.6000,0.2100,0.2450,0.6000,0.2100,0.2450,0.3000,0.0600,0.0002,0,-0.3000,-100.0000,-0.0010,-0.3000,-100.0000,-0.0010,10.6051,34.3445,-1.3500,-1.3500
20.2797,17.6386,3.0928,0.0000,0.0000,-8.1000,-8.1000,-43.2000,0.0000,-0.2233,-0.1543,-0.1443,910,1365,1365,1365,2000,1000,1000,1000,1500,1500,1500,1500,1500,0.2147,-0.0610,-0.1086,-0.0086,0.0023,0.9926,-0.2133,0.5219,-0.0753,-0.2333,0.6000,0.2100,0.2450,0.6000,0.2100,0.2450,0.3000,0.0600,0.0002,0,-0.3000,-100.0000,-0.0010,-0.3000,-100.0000,-0.0010,10.6401,34.3862,-1.3500,-1.3500
20.2462,17.6112,3.0816,0.0000,0.0000,-8.1000,-8.1000,-43.2000,0.0000,-0.2230,-0.1542,-0.1447,910,1365,1365,1365,2000,1000,1000,1000,1500,1500,1500,1500,1500,0.1890,-0.0131,0.0310,-0.0070,-0.0001,0.9857,-0.2135,0.5220,-0.0759,-0.2326,0.6000,0.2100,0.2450,0.6000,0.2100,0.2450,0.3000,0.0600,0.0002,0,-0.3000,-100.0000,-0.0010,-0.3000,-100.0000,-0.0010,10.6750,34.4279,-1.3500,-1.3500
20.2113,17.5840,3.0704,-0.0829,0.0000,-8.1000,-8.1000,-43.2000,0.0000,-0.2225,-0.1541,-0.1445,910,1365,1365,1365,2000,1000,1000,1000,1500,1500,1500,1500,1500,0.0584,-0.0158,-0.0642,-0.0078,-0.0019,0.9933,-0.2129,0.5210,-0.0760,-0.2321,0.6000,0.2100,0.2450,0.6000,0.2100,0.2450,0.3000,0.0600,0.0002,0,-0.3000,-100.0000,-0.0010,-0.3000,-100.0000,-0.0010,10.7099,34.4697,-1.3500,-1.3500
20.1753,17.5570,3.0592,0.0829,0.0000,-8.1000,-8.1000,-43.2000,0.0000,-0.2219,-0.1540,-0.1447,910,1365,1365,1365,2000,1000,1000,1000,1500,1500,1500,1500,1500,-0.0864,0.0280,0.0122,-0.0053,0.0005,0.9936,-0.2126,0.5206,-0.0767,-0.2313,0.6000,0.2100,0.2450,0.6000,0.2100,0.2450,0.3000,0.0600,0.0002,0,-0.3000,-100.0000,-0.0010,-0.3000,-100.0000,-0.0010,10.7449,34.5114,-1.3500,-1.3500
20.1391,17.5301,3.0488,0.0000,0.0000,-8.1000,-8.1000,-43.2000,0.0000,-0.2218,-0.1540,-0.1443,910,1365,1365,1365,2000,1000,1000,1000,1500,1500,1500,1500,1500,-0.0587,0.0717,-0.0911,-0.0055,0.0039,0.9914,-0.2121,0.5200,-0.0765,-0.2315,0.6000,0.2100,0.2450,0.6000,0.2100,0.2450,0.3000,0.0600,0.0002,0,-0.3000,-100.0000,-0.0010,-0.3000,-100.0000,-0.0010,10.7799,34.5531,-1.3500,-1.3500
20.1029,17.5037,3.0378,0.0000,0.0000,-8.1000,-8.1000,-43.2000,0.0000,-0.2216,-0.1539,-0.1445,910,1365,1365,1365,2000,1000,1000,1000,1500,1500,1500,1500,1500,-0.0365,0.1127,-0.0441,-0.0086,0.0054,0.9909,-0.2123,0.5201,-0.0768,-0.2310,0.6000,0.2100,0.2450,0.6000,0.2100,0.2450,0.3000,0.0600,0.0002,0,-0.3000,-100.0000,-0.0010,-0.3000,-100.0000,-0.0010,10.8149,34.5949,-1.3500,-1.3500
20.0677,17.4768,3.0268,-0.0829,0.0000,-8.1000,-8.1000,-43.2000,0.0000,-0.2217,-0.1535,-0.1445,910,1365,1365,1365,2000,1000,1000,1000,1500,1500,1500,1500,1500,0.0749,0.0037,-0.0446,-0.0062,0.0006,0.9939,-0.2127,0.5196,-0.0763,-0.2307,0.6000,0.2100,0.2450,0.6000,0.2100,0.2450,0.3000,0.0600,0.0002,0,-0.3000,-100.0000,-0.0010,-0.3000,-100.0000,-0.0010,10.8499,34.6366,-1.3500,-1.3500
20.0336,17.4483,3.0156,-0.0829,0.0000,-8.1000,-8.1000,-43.2000,0.0000,-0.2218,-0.1528,-0.1445,910,1365,1365,1365,2000,1000,1000,1000,1500,1500,1500,1500,1500,0.2200,-0.1866,-0.0184,-0.0102,-0.0013,0.9861,-0.2135,0.5192,-0.0755,-0.2301,0.6000,0.2100,0.2450,0.6000,0.2100,0.2450,0.3000,0.0600,0.0002,0,-0.3000,-100.0000,-0.0010,-0.3000,-100.0000,-0.0010,10.8848,34.6782,-1.3500,-1.3500
20.0001,17.4195,3.0041,0.0000,0.0000,-8.1000,-8.1000,-43.2000,0.0000,-0.2215,-0.1527,-0.1445,910,1365,1365,1365,2000,1000,1000,1000,1500,1500,1500,1500,1500,0.1598,-0.1656,-0.0570,-0.0063,-0.0002,0.9935,-0.2132,0.5187,-0.0757,-0.2297,0.6000,0.2100,0.2450,0.6000,0.2100,0.2450,0.3000,0.0600,0.0002,0,-0.3000,-100.0000,-0.0010,-0.3000,-100.0000,-0.0010,10.9198,34.7199,-1.3500,-1.3500
19.9656,17.3916,2.9927,0.0000,0.0000,-8.1000,-8.1000,-43.2000,0.0000,-0.2212,-0.1529,-0.1447,910,1365,1365,1365,2000,1000,1000,1000,1500,1500,1500,1500,1500,0.1360,-0.0224,0.0179,-0.0062,-0.0005,0.9938,-0.2130,0.5188,-0.0764,-0.2294,0.6000,0.2100,0.2450,0.6000,0.2100,0.2450,0.3000,0.0600,0.0002,0,-0.3000,-100.0000,-0.0010,-0.3000,-100.0000,-0.0010,10.9548,34.7616,-1.3500,-1.3500
19.9303,17.3639,2.9825,0.0000,0.0821,-8.1000,-8.1000,-43.2000,0.0000,-0.2205,-0.1528,-0.1447,910,1365,1365,1365,2000,1000,1000,1000,1500,1500,1500,1500,1500,-0.0907,0.0094,0.0317,-0.0133,0.0009,0.9931,-0.2124,0.5180,-0.0770,-0.2286,0.6000,0.2100,0.2450,0.6000,0.2100,0.2450,0.3000,0.0600,0.0002,0,-0.3000,-100.0000,-0.0010,-0.3000,-100.0000,-0.0010,10.9898,34.8032,-1.3500,-1.3500
19.8944,17.3368,2.9730,0.0000,0.0821,-8.1000,-8.1000,-43.2000,0.0000,-0.2203,-0.1529,-0.1447,910,1365,1365,1365,2000,1000,1000,1000,1500,1500,1500,1500,1500,-0.0662,0.1026,0.0612,-0.0078,0.0025,0.9918,-0.2122,0.5179,-0.0773,-0.2284,0.6000,0.2100,0.2450,0.6000,0.2100,0.2450,0.3000,0.0600,0.0002,0,-0.3000,-100.0000,-0.0010,-0.3000,-100.0000,-0.0010,11.0248,34.8449,-1.3500,-1.3500
19.8586,17.3109,2.9632,0.0000,0.0821,-8.1000,-8.1000,-43.2000,0.0000,-0.2202,-0.1527,-0.1445,910,1365,1365,1365,2000,1000,1000,1000,1500,1500,1500,1500,1500,-0.0120,0.1116,-0.0301,-0.0039,0.0025,0.9897,-0.2120,0.5174,-0.0770,-0.2285,0.6000,0.2100,0.2450,0.6000,0.2100,0.2450,0.3000,0.0600,0.0002,0,-0.3000,-100.0000,-0.0010,-0.3000,-100.0000,-0.0010,11.0598,34.8865,-1.3500,-1.3500
19.8240,17.2842,2.9527,0.0000,0.0000,-8.1000,-8.1000,-43.2000,0.0000,-0.2203,-0.1524,-0.1444,910,1365,1365,1365,2000,1000,1000,1000,1500,1500,1500,1500,1500,0.0959,0.0395,-0.0636,-0.0046,0.0047,0.9901,-0.2123,0.5171,-0.0765,-0.2283,0.6000,0.2100,0.2450,0.6000,0.2100,0.2450,0.3000,0.0600,0.0002,0,-0.3000,-100.0000,-0.0010,-0.3000,-100.0000,-0.0010,11.0948,34.9281,-1.3500,-1.3500
19.7897,17.2560,2.9417,0.0000,0.0821,-8.1000,-8.1000,-43.2000,0.0000,-0.2203,-0.1517,-0.1446,910,1365,1365,1365,2000,1000,1000,1000,1500,1500,1500,1500,1500,0.1702,-0.1853,-0.0072,-0.0042,0.0053,0.9889,-0.2132,0.5166,-0.0760,-0.2273,0.6000,0.2100,0.2450,0.6000,0.2100,0.2450,0.3000,0.0600,0.0002,0,-0.3000,-100.0000,-0.0010,-0.3000,-100.0000,-0.0010,11.1298,34.9697,-1.3500,-1.3500
19.7568,17.2266,2.9312,0.0829,0.0821,-8.1000,-8.1000,-43.2000,0.0000,-0.2204,-0.1516,-0.1450,910,1365,1365,1365,2000,1000,1000,1000,1500,1500,1500,1500,1500,0.3216,-0.1525,0.1344,-0.0086,0.0017,0.9946,-0.2138,0.5170,-0.0761,-0.2270,0.6000,0.2100,0.2450,0.6000,0.2100,0.2450,0.3000,0.0600,0.0002,0,-0.3000,-100.0000,-0.0010,-0.3000,-100.0000,-0.0010,11.1649,35.0113,-1.3500,-1.3500
19.7240,17.1973,2.9208,0.0000,0.0821,-8.1000,-8.1000,-43.2000,0.0000,-0.2200,-0.1516,-0.1448,910,1365,1365,1365,2000,1000,1000,1000,1500,1500,1500,1500,1500,0.2251,-0.0659,0.0708,-0.0074,0.0022,0.9901,-0.2132,0.5164,-0.0764,-0.2268,0.6000,0.2100,0.2450,0.6000,0.2100,0.2450,0.3000,0.0600,0.0002,0,-0.3000,-100.0000,-0.0010,-0.3000,-100.0000,-0.0010,11.1999,35.0528,-1.3500,-1.3500
19.6908,17.1698,2.9107,0.0000,-0.0821,-8.1000,-8.1000,-43.2000,0.0000,-0.2197,-0.1517,-0.1447,910,1365,1365,1365,2000,1000,1000,1000,1500,1500,1500,1500,1500,0.1871,0.0242,0.0548,-0.0082,-0.0035,0.9906,-0.2128,0.5161,-0.0767,-0.2266,0.6000,0.2100,0.2450,0.6000,0.2100,0.2450,0.3000,0.0600,0.0002,0,-0.3000,-100.0000,-0.0010,-0.3000,-100.0000,-0.0010,11.2349,35.0944,-1.3500,-1.3500
19.6566,17.1421,2.9010,-0.0829,0.0000,-8.1000,-8.1000,-43.2000,0.0000,-0.2190,-0.1515,-0.1448,910,1365,1365,1365,2000,1000,1000,1000,1500,1500,1500,1500,1500,0.0009,0.0245,0.0568,-0.0072,-0.0003,0.9904,-0.2123,0.5153,-0.0772,-0.2258,0.6000,0.2100,0.2450,0.6000,0.2100,0.2450,0.3000,0.0600,0.0002,0,-0.3000,-100.0000,-0.0010,-0.3000,-100.0000,-0.0010,11.2700,35.1360,-1.3500,-1.3500
19.6202,17.1152,2.8906,0.0829,0.0000,-8.1000,-8.1000,-43.2000,0.0000,-0.2185,-0.1515,-0.1447,910,1365,1365,1365,2000,1000,1000,1000,1500,1500,1500,1500,1500,-0.1459,0.0727,0.0336,-0.0083,0.0061,0.9896,-0.2117,0.5147,-0.0777,-0.2252,0.6000,0.2100,0.2450,0.6000,0.2100,0.2450,0.3000,0.0600,0.0002,0,-0.3000,-100.0000,-0.0010,-0.3000,-100.0000,-0.0010,11.3050,35.1775,-1.3500,-1.3500
19.5838,17.0885,2.8810,0.0000,0.0000,-8.1000,-8.1000,-43.2000,0.0000,-0.2185,-0.1514,-0.1448,910,1365,1365,1365,2000,1000,1000,1000,1500,1500,1500,1500,1500,-0.0576,0.1132,0.0653,-0.0053,0.0055,0.9917,-0.2119,0.5147,-0.0778,-0.2250,0.6000,0.2100,0.2450,0.6000,0.2100,0.2450,0.3000,0.0600,0.0002,0,-0.3000,-100.0000,-0.0010,-0.3000,-100.0000,-0.0010,11.3400,35.2191,-1.3500,-1.3500
19.5493,17.0607,2.8714,0.0000,0.0000,-8.1000,-8.1000,-43.2000,0.0000,-0.2187,-0.1509,-0.1449,910,1365,1365,1365,2000,1000,1000,1000,1500,1500,1500,1500,1500,0.1059,-0.0071,0.0937,-0.0041,0.0048,0.9949,-0.2126,0.5145,-0.0772,-0.2247,0.6000,0.2100,0.2450,0.6000,0.2100,0.2450,0.3000,0.0600,0.0002,0,-0.3000,-100.0000,-0.0010,-0.3000,-100.0000,-0.0010,11.3751,35.2606,-1.3500,-1.3500
19.5157,17.0324,2.8618,0.0000,0.0000,-8.1000,-8.1000,-43.2000,0.0000,-0.2188,-0.1506,-0.1447,910,1365,1365,1365,2000,1000,1000,1000,1500,1500,1500,1500,1500,0.2336,-0.0705,0.0329,-0.0048,0.0010,0.9851,-0.2129,0.5141,-0.0766,-0.2247,0.6000,0.2100,0.2450,0.6000,0.2100,0.2450,0.3000,0.0600,0.0002,0,-0.3000,-100.0000,-0.0010,-0.3000,-100.0000,-0.0010,11.4101,35.3021,-1.3500,-1.3500
19.4827,17.0040,2.8514,0.0000,0.0000,-8.1000,-8.1000,-43.2000,0.0000,-0.2187,-0.1506,-0.1447,910,1365,1365,1365,2000,1000,1000,1000,1500,1500,1500,1500,1500,0.3042,-0.0158,0.0202,-0.0052,0.0008,0.9897,-0.2128,0.5140,-0.0765,-0.2246,0.6000,0.2100,0.2450,0.6000,0.2100,0.2450,0.3000,0.0600,0.0002,0,-0.3000,-100.0000,-0.0010,-0.3000,-100.0000,-0.0010,11.4452,35.3436,-1.3500,-1.3500
19.4501,16.9763,2.8404,0.0000,0.0000,-8.1000,-8.1000,-43.2000,0.0000,-0.2183,-0.1504,-0.1444,910,1365,1365,1365,2000,1000,1000,1000,1500,1500,1500,1500,1500,0.2211,-0.0097,-0.0852,-0.0085,-0.0024,0.9861,-0.2123,0.5132,-0.0765,-0.2244,0.6000,0.2100,0.2450,0.6000,0.2100,0.2450,0.3000,0.0600,0.0002,0,-0.3000,-100.0000,-0.0010,-0.3000,-100.0000,-0.0010,11.4803,35.3851,-1.3500,-1.3500
19.4155,16.9483,2.8294,0.0000,0.0000,-8.1000,-8.1000,-43.2000,0.0000,-0.2178,-0.1503,-0.1446,910,1365,1365,1365,2000,1000,1000,1000,1500,1500,1500,1500,1500,0.0711,0.0014,0.0082,-0.0072,-0.0021,0.9914,-0.2121,0.5127,-0.0772,-0.2234,0.6000,0.2100,0.2450,0.6000,0.2100,0.2450,0.3000,0.0600,0.0002,0,-0.3000,-100.0000,-0.0010,-0.3000,-100.0000,-0.0010,11.5153,35.4266,-1.3500,-1.3500
19.3799,16.9207,2.8189,0.0000,0.0000,-8.1000,-8.1000,-43.2000,0.0000,-0.2172,-0.1501,-0.1445,910,1365,1365,1365,2000,1000,1000,1000,1500,1500,1500,1500,1500,-0.0796,0.0057,-0.0483,-0.0078,0.0022,0.9938,-0.2115,0.5118,-0.0774,-0.2228,0.6000,0.2100,0.2450,0.6000,0.2100,0.2450,0.3000,0.0600,0.0002,0,-0.3000,-100.0000,-0.0010,-0.3000,-100.0000,-0.0010,11.5504,35.4681,-1.3500,-1.3500
19.3431,16.8932,2.8082,0.0829,0.0821,-8.1000,-8.1000,-43.2000,0.0000,-0.2169,-0.1500,-0.1445,910,1365,1365,1365,2000,1000,1000,1000,1500,1500,1500,1500,1500,-0.1196,-0.0036,-0.0275,-0.0070,0.0036,0.9905,-0.2114,0.5113,-0.0776,-0.2223,0.6000,0.2100,0.2450,0.6000,0.2100,0.2450,0.3000,0.0600,0.0002,0,-0.3000,-100.0000,-0.0010,-0.3000,-100.0000,-0.0010,11.5855,35.5096,-1.3500,-1.3500
19.3063,16.8654,2.7976,0.0000,0.0000,-8.1000,-8.1000,-43.2000,0.0000,-0.2169,-0.1498,-0.1444,910,1365,1365,1365,2000,1000,1000,1000,1500,1500,1500,1500,1500,-0.0221,0.0222,-0.0475,-0.0085,0.0042,0.9868,-0.2114,0.5111,-0.0774,-0.2223,0.6000,0.2100,0.2450,0.6000,0.2100,0.2450,0.3000,0.0600,0.0002,0,-0.3000,-100.0000,-0.0010,-0.3000,-100.0000,-0.0010,11.6206,35.5511,-1.3500,-1.3500
19.2711,16.8379,2.7864,0.0000,0.0000,-8.1000,-8.1000,-43.2000,0.0000,-0.2172,-0.1497,-0.1445,910,1365,1365,1365,2000,1000,1000,1000,1500,1500,1500,1500,1500,0.1843,0.0357,-0.0484,-0.0068,0.0045,0.9913,-0.2119,0.5114,-0.0770,-0.2224,0.6000,0.2100,0.2450,0.6000,0.2100,0.2450,0.3000,0.0600,0.0002,0,-0.3000,-100.0000,-0.0010,-0.3000,-100.0000,-0.0010,11.6557,35.5925,-1.3500,-1.3500
19.2379,16.8101,2.7760,-0.0829,0.0000,-8.1000,-8.1000,-43.2000,0.0000,-0.2173,-0.1495,-0.1445,910,1365,1365,1365,2000,1000,1000,1000,1500,1500,1500,1500,1500,0.3286,0.0226,-0.0261,-0.0077,0.0046,0.9944,-0.2123,0.5113,-0.0767,-0.2224,0.6000,0.2100,0.2450,0.6000,0.2100,0.2450,0.3000,0.0600,0.0002,0,-0.3000,-100.0000,-0.0010,-0.3000,-100.0000,-0.0010,11.6908,35.6340,-1.3500,-1.3500
19.2059,16.7825,2.7652,0.0000,0.0000,-8.1000,-8.1000,-43.2000,0.0000,-0.2171,-0.1493,-0.1444,910,1365,1365,1365,2000,1000,1000,1000,1500,1500,1500,1500,1500,0.3153,0.0008,-0.0696,-0.0069,0.0008,0.9896,-0.2122,0.5108,-0.0766,-0.2220,0.6000,0.2100,0.2450,0.6000,0.2100,0.2450,0.3000,0.0600,0.0002,0,-0.3000,-100.0000,-0.0010,-0.3000,-100.0000,-0.0010,11.7260,35.6755,-1.3500,-1.3500
19.1732,16.7551,2.7544,0.0829,0.0000,-8.1000,-8.1000,-43.2000,0.0000,-0.2168,-0.1491,-0.1447,910,1365,1365,1365,2000,1000,1000,1000,1500,1500,1500,1500,1500,0.2602,-0.0202,0.0095,-0.0058,-0.0039,0.9918,-0.2124,0.5106,-0.0770,-0.2212,0.6000,0.2100,0.2450,0.6000,0.2100,0.2450,0.3000,0.0600,0.0002,0,-0.3000,-100.0000,-0.0010,-0.3000,-100.0000,-0.0010,11.7611,35.7169,-1.3500,-1.3500
19.1390,16.7273,2.7440,0.0829,0.0000,-8.1000,-8.1000,-43.2000,0.0000,-0.2160,-0.1490,-0.1446,910,1365,1365,1365,2000,1000,1000,1000,1500,1500,1500,1500,1500,0.0338,0.0094,-0.0024,-0.0085,-0.0007,0.9904,-0.2116,0.5096,-0.0775,-0.2204,0.6000,0.2100,0.2450,0.6000,0.2100,0.2450,0.3000,0.0600,0.0002,0,-0.3000,-100.0000,-0.0010,-0.3000,-100.0000,-0.0010,11.7962,35.7583,-1.3500,-1.3500
19.1029,16.6995,2.7342,0.0000,0.0000,-8.1000,-8.1000,-43.2000,0.0000,-0.2154,-0.1487,-0.1448,910,1365,1365,1365,2000,1000,1000,1000,1500,1500,1500,1500,1500,-0.1444,-0.0345,0.0533,-0.0078,0.0003,0.9939,-0.2114,0.5089,-0.0781,-0.2193,0.6000,0.2100,0.2450,0.6000,0.2100,0.2450,0.3000,0.0600,0.0002,0,-0.3000,-100.0000,-0.0010,-0.3000,-100.0000,-0.0010,11.8313,35.7997,-1.3500,-1.3500
19.0658,16.6718,2.7240,0.0829,0.0000,-8.1000,-8.1000,-43.2000,0.0000,-0.2152,-0.1486,-0.1446,910,1365,1365,1365,2000,1000,1000,1000,1500,1500,1500,1500,1500,-0.1325,0.0004,-0.0235,-0.0057,0.0033,0.9940,-0.2111,0.5084,-0.0780,-0.2192,0.6000,0.2100,0.2450,0.6000,0.2100,0.2450,0.3000,0.0600,0.0002,0,-0.3000,-100.0000,-0.0010,-0.3000,-100.0000,-0.0010,11.8665,35.8411,-1.3500,-1.3500
19.0289,16.6432,2.7135,0.0000,0.0000,-8.1000,-8.1000,-43.2000,0.0000,-0.2151,-0.1484,-0.1447,910,1365,1365,1365,2000,1000,1000,1000,1500,1500,1500,1500,1500,-0.0658,-0.0041,0.0366,-0.0068,0.0055,0.9911,-0.2114,0.5083,-0.0781,-0.2188,0.6000,0.2100,0.2450,0.6000,0.2100,0.2450,0.3000,0.0600,0.0002,0,-0.3000,-100.0000,-0.0010,-0.3000,-100.0000,-0.0010,11.9016,35.8824,-1.3500,-1.3500
18.9944,16.6154,2.7033,0.0000,0.0000,-8.1000,-8.1000,-43.2000,0.0000,-0.2155,-0.1482,-0.1447,910,1365,1365,1365,2000,1000,1000,1000,1500,1500,1500,1500,1500,0.1791,-0.0347,0.0281,-0.0076,0.0031,0.9917,-0.2120,0.5084,-0.0774,-0.2190,0.6000,0.2100,0.2450,0.6000,0.2100,0.2450,0.3000,0.0600,0.0002,0,-0.3000,-100.0000,-0.0010,-0.3000,-100.0000,-0.0010,11.9368,35.9238,-1.3500,-1.3500
18.9612,16.5868,2.6935,0.0000,0.0000,-8.1000,-8.1000,-43.2000,0.0000,-0.2155,-0.1481,-0.1449,910,1365,1365,1365,2000,1000,1000,1000,1500,1500,1500,1500,1500,0.2692,0.0012,0.0945,-0.0083,0.0036,0.9918,-0.2123,0.5085,-0.0775,-0.2188,0.6000,0.2100,0.2450,0.6000,0.2100,0.2450,0.3000,0.0600,0.0002,0,-0.3000,-100.0000,-0.0010,-0.3000,-100.0000,-0.0010,11.9720,35.9652,-1.3500,-1.3500
18.9296,16.5587,2.6841,0.0000,-0.0821,-8.1000,-8.1000,-43.2000,0.0000,-0.2155,-0.1478,-0.1448,910,1365,1365,1365,2000,1000,1000,1000,1500,1500,1500,1500,1500,0.3556,-0.0546,0.0639,-0.0079,0.0020,0.9939,-0.2125,0.5082,-0.0771,-0.2186,0.6000,0.2100,0.2450,0.6000,0.2100,0.2450,0.3000,0.0600,0.0002,0,-0.3000,-100.0000,-0.0010,-0.3000,-100.0000,-0.0010,12.0071,36.0065,-1.3500,-1.3500
18.8964,16.5302,2.6741,0.0000,0.0000,-8.1000,-8.1000,-43.2000,0.0000,-0.2149,-0.1478,-0.1447,910,1365,1365,1365,2000,1000,1000,1000,1500,1500,1500,1500,1500,0.1668,-0.0062,0.0275,-0.0047,-0.0009,0.9913,-0.2118,0.5073,-0.0776,-0.2180,0.6000,0.2100,0.2450,0.6000,0.2100,0.2450,0.3000,0.0600,0.0002,0,-0.3000,-100.0000,-0.0010,-0.3000,-100.0000,-0.0010,12.0423,36.0478,-1.3500,-1.3500
18.8627,16.5017,2.6645,0.0000,0.0000,-8.1000,-8.1000,-43.2000,0.0000,-0.2145,-0.1477,-0.1449,910,1365,1365,1365,2000,1000,1000,1000,1500,1500,1500,1500,1500,0.1099,0.0424,0.1160,-0.0068,0.0007,0.9934,-0.2118,0.5072,-0.0781,-0.2173,0.6000,0.2100,0.2450,0.6000,0.2100,0.2450,0.3000,0.0600,0.0002,0,-0.3000,-100.0000,-0.0010,-0.3000,-100.0000,-0.0010,12.0775,36.0891,-1.3500,-1.3500
18.8276,16.4743,2.6554,0.0829,0.0000,-8.1000,-8.1000,-43.2000,0.0000,-0.2140,-0.1476,-0.1449,910,1365,1365,1365,2000,1000,1000,1000,1500,1500,1500,1500,1500,-0.0164,0.0543,0.0782,-0.0048,-0.0000,0.9961,-0.2113,0.5065,-0.0784,-0.2167,0.6000,0.2100,0.2450,0.6000,0.2100,0.2450,0.3000,0.0600,0.0002,0,-0.3000,-100.0000,-0.0010,-0.3000,-100.0000,-0.0010,12.1127,36.1304,-1.3500,-1.3500
18.7914,16.4464,2.6457,0.0829,0.0000,-8.1000,-8.1000,-43.2000,0.0000,-0.2137,-0.1471,-0.1446,910,1365,1365,1365,2000,1000,1000,1000,1500,1500,1500,1500,1500,-0.0634,-0.0625,-0.0004,-0.0055,0.0009,0.9951,-0.2112,0.5055,-0.0781,-0.2162,0.6000,0.2100,0.2450,0.6000,0.2100,0.2450,0.3000,0.0600,0.0002,0,-0.3000,-100.0000,-0.0010,-0.3000,-100.0000,-0.0010,12.1478,36.1717,-1.3500,-1.3500
18.7559,16.4177,2.6355,0.0000,0.0000,-8.1000,-8.1000,-43.2000,0.0000,-0.2138,-0.1469,-0.1447,910,1365,1365,1365,2000,1000,1000,1000,1500,1500,1500,1500,1500,0.0749,-0.0675,0.0233,-0.0044,0.0028,0.9947,-0.2116,0.5055,-0.0778,-0.2160,0.6000,0.2100,0.2450,0.6000,0.2100,0.2450,0.3000,0.0600,0.0002,0,-0.3000,-100.0000,-0.0010,-0.3000,-100.0000,-0.0010,12.1830,36.2130,-1.3500,-1.3500
18.7211,16.3884,2.6251,0.0000,0.0000,-8.1000,-8.1000,-43.2000,0.0000,-0.2137,-0.1467,-0.1446,910,1365,1365,1365,2000,1000,1000,1000,1500,1500,1500,1500,1500,0.1074,-0.0914,0.0021,-0.0050,0.0040,0.9900,-0.2116,0.5050,-0.0776,-0.2158,0.6000,0.2100,0.2450,0.6000,0.2100,0.2450,0.3000,0.0600,0.0002,0,-0.3000,-100.0000,-0.0010,-0.3000,-100.0000,-0.0010,12.2182,36.2544,-1.3500,-1.3500
18.6873,16.3595,2.6148,0.0000,-0.0821,-8.1000,-8.1000,-43.2000,0.0000,-0.2138,-0.1466,-0.1447,910,1365,1365,1365,2000,1000,1000,1000,1500,1500,1500,1500,1500,0.2418,-0.0438,0.0137,-0.0058,0.0036,0.9897,-0.2118,0.5051,-0.0775,-0.2158,0.6000,0.2100,0.2450,0.6000,0.2100,0.2450,0.3000,0.0600,0.0002,0,-0.3000,-100.0000,-0.0010,-0.3000,-100.0000,-0.0010,12.2534,36.2956,-1.3500,-1.3500
18.6542,16.3314,2.6049,0.0000,0.0000,-8.1000,-8.1000,-43.2000,0.0000,-0.2136,-0.1467,-0.1447,910,1365,1365,1365,2000,1000,1000,1000,1500,1500,1500,1500,1500,0.2264,0.0360,0.0306,-0.0074,0.0037,0.9904,-0.2116,0.5049,-0.0778,-0.2156,0.6000,0.2100,0.2450,0.6000,0.2100,0.2450,0.3000,0.0600,0.0002,0,-0.3000,-100.0000,-0.0010,-0.3000,-100.0000,-0.0010,12.2886,36.3368,-1.3500,-1.3500
18.6210,16.3037,2.5950,0.0000,0.0000,-8.1000,-8.1000,-43.2000,0.0000,-0.2134,-0.1466,-0.1445,910,1365,1365,1365,2000,1000,1000,1000,1500,1500,1500,1500,1500,0.2282,0.0741,-0.0303,-0.0067,-0.0021,0.9919,-0.2113,0.5045,-0.0777,-0.2155,0.6000,0.2100,0.2450,0.6000,0.2100,0.2450,0.3000,0.0600,0.0002,0,-0.3000,-100.0000,-0.0010,-0.3000,-100.0000,-0.0010,12.3238,36.3780,-1.3500,-1.3500
18.5868,16.2764,2.5846,0.0829,-0.0821,-8.1000,-8.1000,-43.2000,0.0000,-0.2128,-0.1464,-0.1444,910,1365,1365,1365,2000,1000,1000,1000,1500,1500,1500,1500,1500,0.0857,0.0431,-0.0711,-0.0059,-0.0016,0.9951,-0.2109,0.5036,-0.0779,-0.2148,0.6000,0.2100,0.2450,0.6000,0.2100,0.2450,0.3000,0.0600,0.0002,0,-0.3000,-100.0000,-0.0010,-0.3000,-100.0000,-0.0010,12.3590,36.4192,-1.3500,-1.3500
18.5514,16.2491,2.5741,0.0000,0.0000,-8.1000,-8.1000,-43.2000,0.0000,-0.2123,-0.1462,-0.1444,910,1365,1365,1365,2000,1000,1000,1000,1500,1500,1500,1500,1500,-0.0403,0.0490,-0.0574,-0.0044,0.0000,0.9869,-0.2105,0.5029,-0.0783,-0.2141,0.6000,0.2100,0.2450,0.6000,0.2100,0.2450,0.3000,0.0600,0.0002,0,-0.3000,-100.0000,-0.0010,-0.3000,-100.0000,-0.0010,12.3942,36.4604,-1.3500,-1.3500
18.5156,16.2217,2.5635,0.0000,0.0000,-8.1000,-8.1000,-43.2000,0.0000,-0.2121,-0.1460,-0.1444,910,1365,1365,1365,2000,1000,1000,1000,1500,1500,1500,1500,1500,-0.0190,0.0090,-0.0597,-0.0055,-0.0002,0.9881,-0.2106,0.5025,-0.0782,-0.2137,0.6000,0.2100,0.2450,0.6000,0.2100,0.2450,0.3000,0.0600,0.0002,0,-0.3000,-100.0000,-0.0010,-0.3000,-100.0000,-0.0010,12.4295,36.5016,-1.3500,-1.3500
18.4801,16.1937,2.5527,0.0000,0.0000,-8.1000,-8.1000,-43.2000,0.0000,-0.2121,-0.1456,-0.1444,910,1365,1365,1365,2000,1000,1000,1000,1500,1500,1500,1500,1500,0.0290,-0.0722,-0.0642,-0.0044,0.0024,0.9882,-0.2109,0.5020,-0.0779,-0.2132,0.6000,0.2100,0.2450,0.6000,0.2100,0.2450,0.3000,0.0600,0.0002,0,-0.3000,-100.0000,-0.0010,-0.3000,-100.0000,-0.0010,12.4647,36.5428,-1.3500,-1.3500
18.4451,16.1652,2.5425,0.0000,0.0000,-8.1000,-8.1000,-43.2000,0.0000,-0.2121,-0.1456,-0.1446,910,1365,1365,1365,2000,1000,1000,1000,1500,1500,1500,1500,1500,0.1413,-0.0103,0.0040,-0.0067,0.0031,0.9880,-0.2112,0.5023,-0.0781,-0.2130,0.6000,0.2100,0.2450,0.6000,0.2100,0.2450,0.3000,0.0600,0.0002,0,-0.3000,-100.0000,-0.0010,-0.3000,-100.0000,-0.0010,12.4999,36.5840,-1.3500,-1.3500
18.4111,16.1368,2.5330,0.0000,0.0000,-8.1000,-8.1000,-43.2000,0.0000,-0.2119,-0.1454,-0.1446,910,1365,1365,1365,2000,1000,1000,1000,1500,1500,1500,1500,1500,0.1519,-0.0088,0.0254,-0.0062,0.0038,0.9889,-0.2112,0.5020,-0.0781,-0.2127,0.6000,0.2100,0.2450,0.6000,0.2100,0.2450,0.3000,0.0600,0.0002,0,-0.3000,-100.0000,-0.0010,-0.3000,-100.0000,-0.0010,12.5352,36.6252,-1.3500,-1.3500
18.3771,16.1085,2.5231,0.0000,0.0000,-8.1000,-8.1000,-43.2000,0.0000,-0.2117,-0.1452,-0.1445,910,1365,1365,1365,2000,1000,1000,1000,1500,1500,1500,1500,1500,0.1492,-0.0400,-0.0213,-0.0050,-0.0022,0.9886,-0.2111,0.5014,-0.0780,-0.2123,0.6000,0.2100,0.2450,0.6000,0.2100,0.2450,0.3000,0.0600,0.0002,0,-0.3000,-100.0000,-0.0010,-0.3000,-100.0000,-0.0010,12.5704,36.6664,-1.3500,-1.3500
18.3428,16.0804,2.5135,0.0000,0.0000,-8.1000,-8.1000,-43.2000,0.0000,-0.2114,-0.1450,-0.1447,910,1365,1365,1365,2000,1000,1000,1000,1500,1500,1500,1500,1500,0.0926,-0.0463,0.0338,-0.0075,0.0005,0.9950,-0.2111,0.5011,-0.0783,-0.2116,0.6000,0.2100,0.2450,0.6000,0.2100,0.2450,0.3000,0.0600,0.0002,0,-0.3000,-100.0000,-0.0010,-0.3000,-100.0000,-0.0010,12.6057,36.7075,-1.3500,-1.3500
18.3079,16.0525,2.5040,0.0000,0.0821,-8.1000,-8.1000,-43.2000,0.0000,-0.2112,-0.1449,-0.1446,910,1365,1365,1365,2000,1000,1000,1000,1500,1500,1500,1500,1500,0.0849,-0.0140,0.0116,-0.0079,-0.0004,0.9938,-0.2109,0.5006,-0.0783,-0.2114,0.6000,0.2100,0.2450,0.6000,0.2100,0.2450,0.3000,0.0600,0.0002,0,-0.3000,-100.0000,-0.0010,-0.3000,-100.0000,-0.0010,12.6409,36.7487,-1.3500,-1.3500
18.2722,16.0241,2.4938,0.0000,0.0000,-8.1000,-8.1000,-43.2000,0.0000,-0.2107,-0.1446,-0.1447,910,1365,1365,1365,2000,1000,1000,1000,1500,1500,1500,1500,1500,-0.0236,-0.0463,0.0430,-0.0073,0.0020,0.9933,-0.2108,0.5000,-0.0787,-0.2106,0.6000,0.2100,0.2450,0.6000,0.2100,0.2450,0.3000,0.0600,0.0002,0,-0.3000,-100.0000,-0.0010,-0.3000,-100.0000,-0.0010,12.6762,36.7898,-1.3500,-1.3500
18.2365,15.9948,2.4836,0.0000,0.0000,-8.1000,-8.1000,-43.2000,0.0000,-0.2106,-0.1444,-0.1447,910,1365,1365,1365,2000,1000,1000,1000,1500,1500,1500,1500,1500,0.0385,-0.0834,0.0110,-0.0068,0.0041,0.9917,-0.2109,0.4996,-0.0784,-0.2103,0.6000,0.2100,0.2450,0.6000,0.2100,0.2450,0.3000,0.0600,0.0002,0,-0.3000,-100.0000,-0.0010,-0.3000,-100.0000,-0.0010,12.7115,36.8310,-1.3500,-1.3500
18.2010,15.9656,2.4735,0.0829,0.0000,-8.1000,-8.1000,-43.2000,0.0000,-0.2105,-0.1441,-0.1447,910,1365,1365,1365,2000,1000,1000,1000,1500,1500,1500,1500,1500,0.0764,-0.1203,0.0409,-0.0058,0.0023,0.9921,-0.2111,0.4993,-0.0783,-0.2099,0.6000,0.2100,0.2450,0.6000,0.2100,0.2450,0.3000,0.0600,0.0002,0,-0.3000,-100.0000,-0.0010,-0.3000,-100.0000,-0.0010,12.7468,36.8722,-1.3500,-1.3500
18.1665,15.9373,2.4636,0.1657,0.0000,-8.1000,-8.1000,-43.2000,0.0000,-0.2107,-0.1443,-0.1448,910,1365,1365,1365,2000,1000,1000,1000,1500,1500,1500,1500,1500,0.2476,0.0485,0.0263,-0.0073,0.0013,0.9894,-0.2111,0.4998,-0.0784,-0.2103,0.6000,0.2100,0.2450,0.6000,0.2100,0.2450,0.3000,0.0600,0.0002,0,-0.3000,-100.0000,-0.0010,-0.3000,-100.0000,-0.0010,12.7821,36.9133,-1.3500,-1.3500
18.1333,15.9096,2.4545,0.0829,0.0821,-8.1000,-8.1000,-43.2000,0.0000,-0.2104,-0.1441,-0.1448,910,1365,1365,1365,2000,1000,1000,1000,1500,1500,1500,1500,1500,0.2081,0.0240,0.0447,-0.0053,0.0002,0.9884,-0.2111,0.4993,-0.0785,-0.2097,0.6000,0.2100,0.2450,0.6000,0.2100,0.2450,0.3000,0.0600,0.0002,0,-0.3000,-100.0000,-0.0010,-0.3000,-100.0000,-0.0010,12.8174,36.9545,-1.3500,-1.3500
18.0993,15.8818,2.4450,0.0829,0.0000,-8.1000,-8.1000,-43.2000,0.0000,-0.2100,-0.1439,-0.1445,910,1365,1365,1365,2000,1000,1000,1000,1500,1500,1500,1500,1500,0.1429,0.0141,-0.0150,-0.0071,-0.0014,0.9883,-0.2107,0.4985,-0.0784,-0.2094,0.6000,0.2100,0.2450,0.6000,0.2100,0.2450,0.3000,0.0600,0.0002,0,-0.3000,-100.0000,-0.0010,-0.3000,-100.0000,-0.0010,12.8527,36.9956,-1.3500,-1.3500
18.0647,15.8542,2.4347,-0.0829,0.0000,-8.1000,-8.1000,-43.2000,0.0000,-0.2097,-0.1437,-0.1443,910,1365,1365,1365,2000,1000,1000,1000,1500,1500,1500,1500,1500,0.0806,-0.0058,-0.0932,-0.0050,0.0013,0.9902,-0.2103,0.4977,-0.0783,-0.2091,0.6000,0.2100,0.2450,0.6000,0.2100,0.2450,0.3000,0.0600,0.0002,0,-0.3000,-100.0000,-0.0010,-0.3000,-100.0000,-0.0010,12.8880,37.0367,-1.3500,-1.3500
18.0295,15.8262,2.4246,0.0000,0.0000,-8.1000,-8.1000,-43.2000,0.0000,-0.2093,-0.1436,-0.1445,910,1365,1365,1365,2000,1000,1000,1000,1500,1500,1500,1500,1500,0.0194,0.0019,-0.0278,-0.0025,-0.0001,0.9960,-0.2102,0.4974,-0.0787,-0.2084,0.6000,0.2100,0.2450,0.6000,0.2100,0.2450,0.3000,0.0600,0.0002,0,-0.3000,-100.0000,-0.0010,-0.3000,-100.0000,-0.0010,12.9233,37.0778,-1.3500,-1.3500
17.9934,15.7973,2.4146,0.0000,0.0000,-8.1000,-8.1000,-43.2000,0.0000,-0.2089,-0.1430,-0.1444,910,1365,1365,1365,2000,1000,1000,1000,1500,1500,1500,1500,1500,-0.0520,-0.1435,-0.0614,-0.0033,0.0015,0.9900,-0.2103,0.4963,-0.0785,-0.2076,0.6000,0.2100,0.2450,0.6000,0.2100,0.2450,0.3000,0.0600,0.0002,0,-0.3000,-100.0000,-0.0010,-0.3000,-100.0000,-0.0010,12.9586,37.1189,-1.3500,-1.3500
17.9576,15.7681,2.4039,0.0000,0.0000,-8.1000,-8.1000,-43.2000,0.0000,-0.2090,-0.1429,-0.1445,910,1365,1365,1365,2000,1000,1000,1000,1500,1500,1500,1500,1500,0.0609,-0.1395,-0.0578,-0.0048,0.0003,0.9901,-0.2106,0.4963,-0.0783,-0.2074,0.6000,0.2100,0.2450,0.6000,0.2100,0.2450,0.3000,0.0600,0.0002,0,-0.3000,-100.0000,-0.0010,-0.3000,-100.0000,-0.0010,12.9940,37.1599,-1.3500,-1.3500
17.9229,15.7391,2.3932,0.0829,0.0000,-8.1000,-8.1000,-43.2000,0.0000,-0.2089,-0.1428,-0.1443,910,1365,1365,1365,2000,1000,1000,1000,1500,1500,1500,1500,1500,0.1263,-0.1009,-0.0888,-0.0098,0.0014,0.9914,-0.2105,0.4960,-0.0781,-0.2074,0.6000,0.2100,0.2450,0.6000,0.2100,0.2450,0.3000,0.0600,0.0002,0,-0.3000,-100.0000,-0.0010,-0.3000,-100.0000,-0.0010,13.0293,37.2010,-1.3500,-1.3500
17.8884,15.7105,2.3829,0.0829,0.0000,-8.1000,-8.1000,-43.2000,0.0000,-0.2088,-0.1429,-0.1446,910,1365,1365,1365,2000,1000,1000,1000,1500,1500,1500,1500,1500,0.1347,0.0014,-0.0062,-0.0074,-0.0000,0.9912,-0.2105,0.4962,-0.0787,-0.2071,0.6000,0.2100,0.2450,0.6000,0.2100,0.2450,0.3000,0.0600,0.0002,0,-0.3000,-100.0000,-0.0010,-0.3000,-100.0000,-0.0010,13.0646,37.2421,-1.3500,-1.3500
17.8540,15.6830,2.3728,0.0000,0.0000,-8.1000,-8.1000,-43.2000,0.0000,-0.2086,-0.1427,-0.1444,910,1365,1365,1365,2000,1000,1000,1000,1500,1500,1500,1500,1500,0.1621,0.0088,-0.0590,-0.0066,0.0009,0.9923,-0.2103,0.4958,-0.0785,-0.2069,0.6000,0.2100,0.2450,0.6000,0.2100,0.2450,0.3000,0.0600,0.0002,0,-0.3000,-100.0000,-0.0010,-0.3000,-100.0000,-0.0010,13.1000,37.2831,-1.3500,-1.3500
17.8197,15.6555,2.3627,0.0000,0.0000,-8.1000,-8.1000,-43.2000,0.0000,-0.2083,-0.1425,-0.1444,910,1365,1365,1365,2000,1000,1000,1000,1500,1500,1500,1500,1500,0.1111,-0.0134,-0.0713,-0.0066,-0.0005,0.9915,-0.2102,0.4952,-0.0786,-0.2064,0.6000,0.2100,0.2450,0.6000,0.2100,0.2450,0.3000,0.0600,0.0002,0,-0.3000,-100.0000,-0.0010,-0.3000,-100.0000,-0.0010,13.1353,37.3241,-1.3500,-1.3500
17.7846,15.6277,2.3528,0.0000,0.0821,-8.1000,-8.1000,-43.2000,0.0000,-0.2080,-0.1426,-0.1447,910,1365,1365,1365,2000,1000,1000,1000,1500,1500,1500,1500,1500,0.0928,0.0787,0.0137,-0.0067,0.0014,0.9893,-0.2102,0.4953,-0.0792,-0.2059,0.6000,0.2100,0.2450,0.6000,0.2100,0.2450,0.3000,0.0600,0.0002,0,-0.3000,-100.0000,-0.0010,-0.3000,-100.0000,-0.0010,13.1707,37.3651,-1.3500,-1.3500
17.7497,15.6002,2.3434,0.0000,0.0000,-8.1000,-8.1000,-43.2000,0.0000,-0.2076,-0.1424,-0.1446,910,1365,1365,1365,2000,1000,1000,1000,1500,1500,1500,1500,1500,-0.0131,0.0802,0.0109,-0.0080,0.0011,0.9921,-0.2098,0.4946,-0.0794,-0.2054,0.6000,0.2100,0.2450,0.6000,0.2100,0.2450,0.3000,0.0600,0.0002,0,-0.3000,-100.0000,-0.0010,-0.3000,-100.0000,-0.0010,13.2060,37.4060,-1.3500,-1.3500
17.7140,15.5721,2.3334,0.0000,0.0000,-8.1000,-8.1000,-43.2000,0.0000,-0.2075,-0.1420,-0.1444,910,1365,1365,1365,2000,1000,1000,1000,1500,1500,1500,1500,1500,0.0309,-0.0029,-0.0642,-0.0068,0.0012,0.9924,-0.2099,0.4939,-0.0790,-0.2050,0.6000,0.2100,0.2450,0.6000,0.2100,0.2450,0.3000,0.0600,0.0002,0,-0.3000,-100.0000,-0.0010,-0.3000,-100.0000,-0.0010,13.2414,37.4469,-1.3500,-1.3500
17.6789,15.5431,2.3235,0.0829,0.0000,-8.1000,-8.1000,-43.2000,0.0000,-0.2075,-0.1416,-0.1443,910,1365,1365,1365,2000,1000,1000,1000,1500,1500,1500,1500,1500,0.1343,-0.1020,-0.0761,-0.0073,0.0008,0.9889,-0.2102,0.4935,-0.0785,-0.2048,0.6000,0.2100,0.2450,0.6000,0.2100,0.2450,0.3000,0.0600,0.0002,0,-0.3000,-100.0000,-0.0010,-0.3000,-100.0000,-0.0010,13.2767,37.4879,-1.3500,-1.3500
17.6448,15.5146,2.3135,0.0000,0.0000,-8.1000,-8.1000,-43.2000,0.0000,-0.2075,-0.1417,-0.1447,910,1365,1365,1365,2000,1000,1000,1000,1500,1500,1500,1500,1500,0.2070,-0.0017,0.0225,-0.0071,0.0012,0.9913,-0.2104,0.4938,-0.0789,-0.2045,0.6000,0.2100,0.2450,0.6000,0.2100,0.2450,0.3000,0.0600,0.0002,0,-0.3000,-100.0000,-0.0010,-0.3000,-100.0000,-0.0010,13.3121,37.5288,-1.3500,-1.3500
17.6112,15.4858,2.3038,0.0000,0.0000,-8.1000,-8.1000,-43.2000,0.0000,-0.2073,-0.1413,-0.1448,910,1365,1365,1365,2000,1000,1000,1000,1500,1500,1500,1500,1500,0.2064,-0.0713,0.0540,-0.0064,0.0037,0.9903,-0.2107,0.4934,-0.0789,-0.2038,0.6000,0.2100,0.2450,0.6000,0.2100,0.2450,0.3000,0.0600,0.0002,0,-0.3000,-100.0000,-0.0010,-0.3000,-100.0000,-0.0010,13.3475,37.5698,-1.3500,-1.3500
17.5774,15.4570,2.2947,0.0000,-0.0821,-8.1000,-8.1000,-43.2000,0.0000,-0.2069,-0.1414,-0.1447,910,1365,1365,1365,2000,1000,1000,1000,1500,1500,1500,1500,1500,0.1410,0.0257,0.0350,-0.0096,0.0015,0.9884,-0.2102,0.4930,-0.0792,-0.2036,0.6000,0.2100,0.2450,0.6000,0.2100,0.2450,0.3000,0.0600,0.0002,0,-0.3000,-100.0000,-0.0010,-0.3000,-100.0000,-0.0010,13.3829,37.6108,-1.3500,-1.3500
17.5425,15.4297,2.2854,0.0829,0.0000,-8.1000,-8.1000,-43.2000,0.0000,-0.2065,-0.1415,-0.1444,910,1365,1365,1365,2000,1000,1000,1000,1500,1500,1500,1500,1500,0.0632,0.1128,-0.0584,-0.0090,0.0004,0.9897,-0.2095,0.4924,-0.0794,-0.2035,0.6000,0.2100,0.2450,0.6000,0.2100,0.2450,0.3000,0.0600,0.0002,0,-0.3000,-100.0000,-0.0010,-0.3000,-100.0000,-0.0010,13.4184,37.6518,-1.3500,-1.3500
17.5076,15.4015,2.2755,-0.0829,0.0000,-8.1000,-8.1000,-43.2000,0.0000,-0.2064,-0.1409,-0.1446,910,1365,1365,1365,2000,1000,1000,1000,1500,1500,1500,1500,1500,0.1113,-0.0256,-0.0225,-0.0047,0.0002,0.9873,-0.2100,0.4919,-0.0791,-0.2028,0.6000,0.2100,0.2450,0.6000,0.2100,0.2450,0.3000,0.0600,0.0002,0,-0.3000,-100.0000,-0.0010,-0.3000,-100.0000,-0.0010,13.4538,37.6927,-1.3500,-1.3500
17.4727,15.3728,2.2656,0.0000,0.0000,-8.1000,-8.1000,-43.2000,0.0000,-0.2061,-0.1408,-0.1446,910,1365,1365,1365,2000,1000,1000,1000,1500,1500,1500,1500,1500,0.0534,-0.0298,0.0186,-0.0063,0.0013,0.9918,-0.2099,0.4915,-0.0793,-0.2022,0.6000,0.2100,0.2450,0.6000,0.2100,0.2450,0.3000,0.0600,0.0002,0,-0.3000,-100.0000,-0.0010,-0.3000,-100.0000,-0.0010,13.4892,37.7336,-1.3500,-1.3500
17.4371,15.3439,2.2562,0.0000,0.0000,-8.1000,-8.1000,-43.2000,0.0000,-0.2057,-0.1406,-0.1448,910,1365,1365,1365,2000,1000,1000,1000,1500,1500,1500,1500,1500,0.0084,-0.0345,0.0541,-0.0090,0.0027,0.9957,-0.2099,0.4911,-0.0796,-0.2016,0.6000,0.2100,0.2450,0.6000,0.2100,0.2450,0.3000,0.0600,0.0002,0,-0.3000,-100.0000,-0.0010,-0.3000,-100.0000,-0.0010,13.5246,37.7745,-1.3500,-1.3500
17.4014,15.3152,2.2467,0.0000,0.0821,-8.1000,-8.1000,-43.2000,0.0000,-0.2056,-0.1406,-0.1445,910,1365,1365,1365,2000,1000,1000,1000,1500,1500,1500,1500,1500,0.0189,0.0495,-0.0193,-0.0081,0.0026,0.9902,-0.2095,0.4907,-0.0796,-0.2016,0.6000,0.2100,0.2450,0.6000,0.2100,0.2450,0.3000,0.0600,0.0002,0,-0.3000,-100.0000,-0.0010,-0.3000,-100.0000,-0.0010,13.5600,37.8154,-1.3500,-1.3500
17.3670,15.2872,2.2374,0.0000,0.0000,-8.1000,-8.1000,-43.2000,0.0000,-0.2056,-0.1404,-0.1447,910,1365,1365,1365,2000,1000,1000,1000,1500,1500,1500,1500,1500,0.1213,0.0173,0.0397,-0.0080,0.0042,0.9904,-0.2100,0.4907,-0.0795,-0.2012,0.6000,0.2100,0.2450,0.6000,0.2100,0.2450,0.3000,0.0600,0.0002,0,-0.3000,-100.0000,-0.0010,-0.3000,-100.0000,-0.0010,13.5954,37.8563,-1.3500,-1.3500
17.3330,15.2591,2.2283,0.0000,-0.0821,-8.1000,-8.1000,-43.2000,0.0000,-0.2056,-0.1402,-0.1447,910,1365,1365,1365,2000,1000,1000,1000,1500,1500,1500,1500,1500,0.1900,0.0271,0.0399,-0.0076,0.0020,0.9925,-0.2101,0.4905,-0.0794,-0.2011,0.6000,0.2100,0.2450,0.6000,0.2100,0.2450,0.3000,0.0600,0.0002,0,-0.3000,-100.0000,-0.0010,-0.3000,-100.0000,-0.0010,13.6309,37.8971,-1.3500,-1.3500
17.2995,15.2313,2.2194,0.0000,-0.0821,-8.1000,-8.1000,-43.2000,0.0000,-0.2052,-0.1402,-0.1447,910,1365,1365,1365,2000,1000,1000,1000,1500,1500,1500,1500,1500,0.1431,0.0744,0.0340,-0.0052,-0.0006,0.9935,-0.2098,0.4901,-0.0796,-0.2007,0.6000,0.2100,0.2450,0.6000,0.2100,0.2450,0.3000,0.0600,0.0002,0,-0.3000,-100.0000,-0.0010,-0.3000,-100.0000,-0.0010,13.6663,37.9380,-1.3500,-1.3500
17.2655,15.2029,2.2107,0.0000,0.0821,-8.1000,-8.1000,-43.2000,0.0000,-0.2050,-0.1399,-0.1446,910,1365,1365,1365,2000,1000,1000,1000,1500,1500,1500,1500,1500,0.1415,0.0140,0.0052,-0.0046,-0.0008,0.9919,-0.2098,0.4895,-0.0794,-0.2003,0.6000,0.2100,0.2450,0.6000,0.2100,0.2450,0.3000,0.0600,0.0002,0,-0.3000,-100.0000,-0.0010,-0.3000,-100.0000,-0.0010,13.7017,37.9788,-1.3500,-1.3500
17.2306,15.1745,2.2014,0.0829,0.0000,-8.1000,-8.1000,-43.2000,0.0000,-0.2046,-0.1396,-0.1447,910,1365,1365,1365,2000,1000,1000,1000,1500,1500,1500,1500,1500,0.0403,-0.0305,0.0351,-0.0054,0.0028,0.9885,-0.2097,0.4889,-0.0797,-0.1994,0.6000,0.2100,0.2450,0.6000,0.2100,0.2450,0.3000,0.0600,0.0002,0,-0.3000,-100.0000,-0.0010,-0.3000,-100.0000,-0.0010,13.7372,38.0196,-1.3500,-1.3500
17.1950,15.1456,2.1915,0.0000,0.0000,-8.1000,-8.1000,-43.2000,0.0000,-0.2043,-0.1392,-0.1444,910,1365,1365,1365,2000,1000,1000,1000,1500,1500,1500,1500,1500,0.0239,-0.1113,-0.0640,-0.0069,0.0018,0.9951,-0.2095,0.4879,-0.0792,-0.1992,0.6000,0.2100,0.2450,0.6000,0.2100,0.2450,0.3000,0.0600,0.0002,0,-0.3000,-100.0000,-0.0010,-0.3000,-100.0000,-0.0010,13.7726,38.0605,-1.3500,-1.3500
17.1594,15.1173,2.1818,0.0000,0.0000,-8.1000,-8.1000,-43.2000,0.0000,-0.2042,-0.1393,-0.1444,910,1365,1365,1365,2000,1000,1000,1000,1500,1500,1500,1500,1500,0.0446,0.0086,-0.0522,-0.0069,0.0028,0.9923,-0.2093,0.4879,-0.0796,-0.1990,0.6000,0.2100,0.2450,0.6000,0.2100,0.2450,0.3000,0.0600,0.0002,0,-0.3000,-100.0000,-0.0010,-0.3000,-100.0000,-0.0010,13.8081,38.1013,-1.3500,-1.3500
17.1242,15.0891,2.1725,0.0000,0.0000,-8.1000,-8.1000,-43.2000,0.0000,-0.2040,-0.1391,-0.1447,910,1365,1365,1365,2000,1000,1000,1000,1500,1500,1500,1500,1500,0.0638,-0.0127,0.0471,-0.0105,0.0007,0.9943,-0.2096,0.4878,-0.0798,-0.1984,0.6000,0.2100,0.2450,0.6000,0.2100,0.2450,0.3000,0.0600,0.0002,0,-0.3000,-100.0000,-0.0010,-0.3000,-100.0000,-0.0010,13.8435,38.1421,-1.3500,-1.3500
17.0896,15.0606,2.1640,0.0000,0.0000,-8.1000,-8.1000,-43.2000,0.0000,-0.2040,-0.1390,-0.1447,910,1365,1365,1365,2000,1000,1000,1000,1500,1500,1500,1500,1500,0.1652,0.0117,0.0459,-0.0113,0.0024,0.9888,-0.2097,0.4877,-0.0796,-0.1984,0.6000,0.2100,0.2450,0.6000,0.2100,0.2450,0.3000,0.0600,0.0002,0,-0.3000,-100.0000,-0.0010,-0.3000,-100.0000,-0.0010,13.8790,38.1829,-1.3500,-1.3500
17.0547,15.0319,2.1543,0.0000,0.0000,-8.1000,-8.1000,-43.2000,0.0000,-0.2037,-0.1388,-0.1444,910,1365,1365,1365,2000,1000,1000,1000,1500,1500,1500,1500,1500,0.1189,-0.0087,-0.0734,-0.0096,0.0039,0.9909,-0.2093,0.4869,-0.0794,-0.1981,0.6000,0.2100,0.2450,0.6000,0.2100,0.2450,0.3000,0.0600,0.0002,0,-0.3000,-100.0000,-0.0010,-0.3000,-100.0000,-0.0010,13.9145,38.2237,-1.3500,-1.3500
17.0205,15.0028,2.1443,0.0829,0.0000,-8.1000,-8.1000,-43.2000,0.0000,-0.2037,-0.1386,-0.1445,910,1365,1365,1365,2000,1000,1000,1000,1500,1500,1500,1500,1500,0.1875,-0.0262,-0.0215,-0.0073,0.0005,0.9930,-0.2096,0.4867,-0.0794,-0.1977,0.6000,0.2100,0.2450,0.6000,0.2100,0.2450,0.3000,0.0600,0.0002,0,-0.3000,-100.0000,-0.0010,-0.3000,-100.0000,-0.0010,13.9500,38.2644,-1.3500,-1.3500
16.9866,14.9745,2.1347,0.0000,0.0000,-8.1000,-8.1000,-43.2000,0.0000,-0.2034,-0.1385,-0.1445,910,1365,1365,1365,2000,1000,1000,1000,1500,1500,1500,1500,1500,0.1604,0.0210,-0.0452,-0.0053,-0.0005,0.9931,-0.2094,0.4864,-0.0796,-0.1974,0.6000,0.2100,0.2450,0.6000,0.2100,0.2450,0.3000,0.0600,0.0002,0,-0.3000,-100.0000,-0.0010,-0.3000,-100.0000,-0.0010,13.9854,38.3052,-1.3500,-1.3500
16.9522,14.9459,2.1263,0.0000,0.0000,-8.1000,-8.1000,-43.2000,0.0000,-0.2029,-0.1382,-0.1449,910,1365,1365,1365,2000,1000,1000,1000,1500,1500,1500,1500,1500,0.0490,-0.0496,0.0923,-0.0048,-0.0029,0.9886,-0.2096,0.4859,-0.0801,-0.1962,0.6000,0.2100,0.2450,0.6000,0.2100,0.2450,0.3000,0.0600,0.0002,0,-0.3000,-100.0000,-0.0010,-0.3000,-100.0000,-0.0010,14.0209,38.3459,-1.3500,-1.3500
16.9171,14.9171,2.1170,0.0000,0.0000,-8.1000,-8.1000,-43.2000,0.0000,-0.2029,-0.1380,-0.1443,910,1365,1365,1365,2000,1000,1000,1000,1500,1500,1500,1500,1500,0.1129,-0.0293,-0.0884,-0.0043,0.0001,0.9915,-0.2092,0.4852,-0.0795,-0.1966,0.6000,0.2100,0.2450,0.6000,0.2100,0.2450,0.3000,0.0600,0.0002,0,-0.3000,-100.0000,-0.0010,-0.3000,-100.0000,-0.0010,14.0564,38.3867,-1.3500,-1.3500
16.8821,14.8884,2.1070,0.0000,0.0000,-8.1000,-8.1000,-43.2000,0.0000,-0.2025,-0.1379,-0.1445,910,1365,1365,1365,2000,1000,1000,1000,1500,1500,1500,1500,1500,0.0354,-0.0028,-0.0368,-0.0035,0.0029,0.9900,-0.2091,0.4849,-0.0800,-0.1959,0.6000,0.2100,0.2450,0.6000,0.2100,0.2450,0.3000,0.0600,0.0002,0,-0.3000,-100.0000,-0.0010,-0.3000,-100.0000,-0.0010,14.0920,38.4275,-1.3500,-1.3500
16.8465,14.8591,2.0980,0.0000,0.0000,-8.1000,-8.1000,-43.2000,0.0000,-0.2022,-0.1375,-0.1445,910,1365,1365,1365,2000,1000,1000,1000,1500,1500,1500,1500,1500,-0.0015,-0.0872,-0.0346,-0.0020,0.0027,0.9917,-0.2091,0.4842,-0.0799,-0.1952,0.6000,0.2100,0.2450,0.6000,0.2100,0.2450,0.3000,0.0600,0.0002,0,-0.3000,-100.0000,-0.0010,-0.3000,-100.0000,-0.0010,14.1275,38.4682,-1.3500,-1.3500
16.8114,14.8294,2.0887,0.0829,0.0000,-8.1000,-8.1000,-43.2000,0.0000,-0.2021,-0.1373,-0.1447,910,1365,1365,1365,2000,1000,1000,1000,1500,1500,1500,1500,1500,0.0441,-0.1264,0.0365,-0.0038,0.0068,0.9903,-0.2095,0.4840,-0.0799,-0.1947,0.6000,0.2100,0.2450,0.6000,0.2100,0.2450,0.3000,0.0600,0.0002,0,-0.3000,-100.0000,-0.0010,-0.3000,-100.0000,-0.0010,14.1630,38.5090,-1.3500,-1.3500
16.7770,14.7995,2.0797,0.0000,0.0000,-8.1000,-8.1000,-43.2000,0.0000,-0.2021,-0.1373,-0.1445,910,1365,1365,1365,2000,1000,1000,1000,1500,1500,1500,1500,1500,0.1217,-0.0559,-0.0241,-0.0026,0.0041,0.9958,-0.2093,0.4839,-0.0797,-0.1948,0.6000,0.2100,0.2450,0.6000,0.2100,0.2450,0.3000,0.0600,0.0002,0,-0.3000,-100.0000,-0.0010,-0.3000,-100.0000,-0.0010,14.1986,38.5498,-1.3500,-1.3500
16.7429,14.7699,2.0704,0.0829,0.0000,-8.1000,-8.1000,-43.2000,0.0000,-0.2020,-0.1371,-0.1446,910,1365,1365,1365,2000,1000,1000,1000,1500,1500,1500,1500,1500,0.1753,-0.0411,0.0053,-0.0081,0.0045,0.9922,-0.2095,0.4837,-0.0798,-0.1945,0.6000,0.2100,0.2450,0.6000,0.2100,0.2450,0.3000,0.0600,0.0002,0,-0.3000,-100.0000,-0.0010,-0.3000,-100.0000,-0.0010,14.2341,38.5906,-1.3500,-1.3500
16.7092,14.7412,2.0616,0.0000,0.0000,-8.1000,-8.1000,-43.2000,0.0000,-0.2020,-0.1369,-0.1446,910,1365,1365,1365,2000,1000,1000,1000,1500,1500,1500,1500,1500,0.2474,-0.0510,0.0165,-0.0098,-0.0026,0.9920,-0.2097,0.4835,-0.0796,-0.1943,0.6000,0.2100,0.2450,0.6000,0.2100,0.2450,0.3000,0.0600,0.0002,0,-0.3000,-100.0000,-0.0010,-0.3000,-100.0000,-0.0010,14.2697,38.6313,-1.3500,-1.3500
16.6751,14.7120,2.0526,0.0000,0.0000,-8.1000,-8.1000,-43.2000,0.0000,-0.2015,-0.1367,-0.1445,910,1365,1365,1365,2000,1000,1000,1000,1500,1500,1500,1500,1500,0.1366,-0.0641,0.0036,-0.0090,-0.0016,0.9999,-0.2093,0.4827,-0.0798,-0.1937,0.6000,0.2100,0.2450,0.6000,0.2100,0.2450,0.3000,0.0600,0.0002,0,-0.3000,-100.0000,-0.0010,-0.3000,-100.0000,-0.0010,14.3052,38.6720,-1.3500,-1.3500
16.6399,14.6835,2.0433,0.0829,0.0000,-8.1000,-8.1000,-43.2000,0.0000,-0.2011,-0.1368,-0.1445,910,1365,1365,1365,2000,1000,1000,1000,1500,1500,1500,1500,1500,0.0553,0.0393,-0.0225,-0.0096,0.0019,0.9864,-0.2088,0.4824,-0.0803,-0.1933,0.6000,0.2100,0.2450,0.6000,0.2100,0.2450,0.3000,0.0600,0.0002,0,-0.3000,-100.0000,-0.0010,-0.3000,-100.0000,-0.0010,14.3408,38.7127,-1.3500,-1.3500
16.6043,14.6557,2.0341,0.0000,0.0000,-8.1000,-8.1000,-43.2000,0.0000,-0.2008,-0.1367,-0.1443,910,1365,1365,1365,2000,1000,1000,1000,1500,1500,1500,1500,1500,0.0100,0.0689,-0.0753,-0.0089,-0.0009,0.9936,-0.2084,0.4818,-0.0803,-0.1931,0.6000,0.2100,0.2450,0.6000,0.2100,0.2450,0.3000,0.0600,0.0002,0,-0.3000,-100.0000,-0.0010,-0.3000,-100.0000,-0.0010,14.3764,38.7533,-1.3500,-1.3500
16.5689,14.6279,2.0254,0.0829,0.0000,-8.1000,-8.1000,-43.2000,0.0000,-0.2005,-0.1365,-0.1449,910,1365,1365,1365,2000,1000,1000,1000,1500,1500,1500,1500,1500,0.0124,0.0662,0.0938,-0.0006,-0.0015,0.9950,-0.2089,0.4820,-0.0809,-0.1922,0.6000,0.2100,0.2450,0.6000,0.2100,0.2450,0.3000,0.0600,0.0002,0,-0.3000,-100.0000,-0.0010,-0.3000,-100.0000,-0.0010,14.4119,38.7940,-1.3500,-1.3500
16.5334,14.5995,2.0162,0.0000,0.0000,-8.1000,-8.1000,-43.2000,0.0000,-0.2004,-0.1363,-0.1445,910,1365,1365,1365,2000,1000,1000,1000,1500,1500,1500,1500,1500,0.0249,0.0410,-0.0443,-0.0018,0.0003,0.9901,-0.2086,0.4812,-0.0804,-0.1922,0.6000,0.2100,0.2450,0.6000,0.2100,0.2450,0.3000,0.0600,0.0002,0,-0.3000,-100.0000,-0.0010,-0.3000,-100.0000,-0.0010,14.4475,38.8346,-1.3500,-1.3500
16.4988,14.5703,2.0073,0.0000,0.0000,-8.1000,-8.1000,-43.2000,0.0000,-0.2003,-0.1359,-0.1445,910,1365,1365,1365,2000,1000,1000,1000,1500,1500,1500,1500,1500,0.0871,-0.0358,-0.0387,-0.0063,0.0054,0.9933,-0.2088,0.4807,-0.0801,-0.1918,0.6000,0.2100,0.2450,0.6000,0.2100,0.2450,0.3000,0.0600,0.0002,0,-0.3000,-100.0000,-0.0010,-0.3000,-100.0000,-0.0010,14.4831,38.8752,-1.3500,-1.3500
16.4640,14.5407,1.9977,0.0000,0.0821,-8.1000,-8.1000,-43.2000,0.0000,-0.2002,-0.1355,-0.1445,910,1365,1365,1365,2000,1000,1000,1000,1500,1500,1500,1500,1500,0.1336,-0.1246,-0.0478,-0.0101,0.0059,0.9934,-0.2091,0.4802,-0.0798,-0.1913,0.6000,0.2100,0.2450,0.6000,0.2100,0.2450,0.3000,0.0600,0.0002,0,-0.3000,-100.0000,-0.0010,-0.3000,-100.0000,-0.0010,14.5187,38.9159,-1.3500,-1.3500
16.4295,14.5106,1.9881,0.0829,0.0000,-8.1000,-8.1000,-43.2000,0.0000,-0.2001,-0.1353,-0.1445,910,1365,1365,1365,2000,1000,1000,1000,1500,1500,1500,1500,1500,0.1774,-0.1587,-0.0373,-0.0083,-0.0001,0.9864,-0.2093,0.4799,-0.0797,-0.1909,0.6000,0.2100,0.2450,0.6000,0.2100,0.2450,0.3000,0.0600,0.0002,0,-0.3000,-100.0000,-0.0010,-0.3000,-100.0000,-0.0010,14.5543,38.9565,-1.3500,-1.3500
16.3953,14.4811,1.9787,0.0000,0.0000,-8.1000,-8.1000,-43.2000,0.0000,-0.1999,-0.1352,-0.1445,910,1365,1365,1365,2000,1000,1000,1000,1500,1500,1500,1500,1500,0.1796,-0.1032,-0.0271,-0.0086,-0.0006,0.9906,-0.2092,0.4796,-0.0798,-0.1906,0.6000,0.2100,0.2450,0.6000,0.2100,0.2450,0.3000,0.0600,0.0002,0,-0.3000,-100.0000,-0.0010,-0.3000,-100.0000,-0.0010,14.5899,38.9971,-1.3500,-1.3500
16.3606,14.4525,1.9695,0.0000,0.0000,-8.1000,-8.1000,-43.2000,0.0000,-0.1995,-0.1355,-0.1446,910,1365,1365,1365,2000,1000,1000,1000,1500,1500,1500,1500,1500,0.1142,0.0561,0.0143,-0.0081,0.0005,0.9905,-0.2087,0.4796,-0.0805,-0.1904,0.6000,0.2100,0.2450,0.6000,0.2100,0.2450,0.3000,0.0600,0.0002,0,-0.3000,-100.0000,-0.0010,-0.3000,-100.0000,-0.0010,14.6255,39.0376,-1.3500,-1.3500
16.3256,14.4250,1.9606,-0.0829,0.0000,-8.1000,-8.1000,-43.2000,0.0000,-0.1991,-0.1353,-0.1444,910,1365,1365,1365,2000,1000,1000,1000,1500,1500,1500,1500,1500,0.0026,0.0499,-0.0673,-0.0077,0.0021,0.9949,-0.2082,0.4787,-0.0806,-0.1899,0.6000,0.2100,0.2450,0.6000,0.2100,0.2450,0.3000,0.0600,0.0002,0,-0.3000,-100.0000,-0.0010,-0.3000,-100.0000,-0.0010,14.6611,39.0782,-1.3500,-1.3500
16.2900,14.3976,1.9510,0.0000,0.0821,-8.1000,-8.1000,-43.2000,0.0000,-0.1990,-0.1352,-0.1444,910,1365,1365,1365,2000,1000,1000,1000,1500,1500,1500,1500,1500,0.0574,0.0786,-0.0831,-0.0082,0.0018,0.9906,-0.2082,0.4785,-0.0805,-0.1898,0.6000,0.2100,0.2450,0.6000,0.2100,0.2450,0.3000,0.0600,0.0002,0,-0.3000,-100.0000,-0.0010,-0.3000,-100.0000,-0.0010,14.6967,39.1187,-1.3500,-1.3500
16.2553,14.3693,1.9421,0.0000,0.0000,-8.1000,-8.1000,-43.2000,0.0000,-0.1990,-0.1349,-0.1444,910,1365,1365,1365,2000,1000,1000,1000,1500,1500,1500,1500,1500,0.1593,0.0285,-0.0587,-0.0037,-0.0013,0.9869,-0.2085,0.4783,-0.0802,-0.1895,0.6000,0.2100,0.2450,0.6000,0.2100,0.2450,0.3000,0.0600,0.0002,0,-0.3000,-100.0000,-0.0010,-0.3000,-100.0000,-0.0010,14.7323,39.1593,-1.3500,-1.3500
16.2209,14.3402,1.9327,0.0000,0.0000,-8.1000,-8.1000,-43.2000,0.0000,-0.1988,-0.1343,-0.1444,910,1365,1365,1365,2000,1000,1000,1000,1500,1500,1500,1500,1500,0.1334,-0.1474,-0.0464,-0.0011,-0.0040,0.9914,-0.2089,0.4775,-0.0800,-0.1886,0.6000,0.2100,0.2450,0.6000,0.2100,0.2450,0.3000,0.0600,0.0002,0,-0.3000,-100.0000,-0.0010,-0.3000,-100.0000,-0.0010,14.7679,39.1998,-1.3500,-1.3500
16.1867,14.3098,1.9233,0.0000,0.0000,-8.1000,-8.1000,-43.2000,0.0000,-0.1985,-0.1341,-0.1445,910,1365,1365,1365,2000,1000,1000,1000,1500,1500,1500,1500,1500,0.1204,-0.1430,-0.0204,-0.0042,-0.0007,0.9919,-0.2089,0.4772,-0.0801,-0.1881,0.6000,0.2100,0.2450,0.6000,0.2100,0.2450,0.3000,0.0600,0.0002,0,-0.3000,-100.0000,-0.0010,-0.3000,-100.0000,-0.0010,14.8036,39.2403,-1.3500,-1.3500
16.1522,14.2791,1.9132,0.0000,-0.0821,-8.1000,-8.1000,-43.2000,0.0000,-0.1982,-0.1340,-0.1446,910,1365,1365,1365,2000,1000,1000,1000,1500,1500,1500,1500,1500,0.0919,-0.1301,-0.0170,-0.0063,0.0042,0.9944,-0.2089,0.4768,-0.0803,-0.1876,0.6000,0.2100,0.2450,0.6000,0.2100,0.2450,0.3000,0.0600,0.0002,0,-0.3000,-100.0000,-0.0010,-0.3000,-100.0000,-0.0010,14.8392,39.2808,-1.3500,-1.3500
16.1170,14.2488,1.9039,0.0000,0.0821,-8.1000,-8.1000,-43.2000,0.0000,-0.1978,-0.1340,-0.1447,910,1365,1365,1365,2000,1000,1000,1000,1500,1500,1500,1500,1500,-0.0049,-0.0577,0.0492,-0.0108,0.0066,0.9917,-0.2086,0.4765,-0.0809,-0.1870,0.6000,0.2100,0.2450,0.6000,0.2100,0.2450,0.3000,0.0600,0.0002,0,-0.3000,-100.0000,-0.0010,-0.3000,-100.0000,-0.0010,14.8748,39.3214,-1.3500,-1.3500
16.0813,14.2199,1.8952,0.0000,0.0000,-8.1000,-8.1000,-43.2000,0.0000,-0.1976,-0.1339,-0.1445,910,1365,1365,1365,2000,1000,1000,1000,1500,1500,1500,1500,1500,0.0163,-0.0002,-0.0293,-0.0099,0.0054,0.9923,-0.2082,0.4760,-0.0807,-0.1871,0.6000,0.2100,0.2450,0.6000,0.2100,0.2450,0.3000,0.0600,0.0002,0,-0.3000,-100.0000,-0.0010,-0.3000,-100.0000,-0.0010,14.9105,39.3619,-1.3500,-1.3500
16.0459,14.1913,1.8861,0.0000,0.0821,-8.1000,-8.1000,-43.2000,0.0000,-0.1975,-0.1339,-0.1445,910,1365,1365,1365,2000,1000,1000,1000,1500,1500,1500,1500,1500,0.0602,0.0484,-0.0403,-0.0054,0.0020,0.9879,-0.2081,0.4759,-0.0808,-0.1869,0.6000,0.2100,0.2450,0.6000,0.2100,0.2450,0.3000,0.0600,0.0002,0,-0.3000,-100.0000,-0.0010,-0.3000,-100.0000,-0.0010,14.9462,39.4024,-1.3500,-1.3500
16.0110,14.1631,1.8775,0.0000,0.0821,-8.1000,-8.1000,-43.2000,0.0000,-0.1975,-0.1338,-0.1445,910,1365,1365,1365,2000,1000,1000,1000,1500,1500,1500,1500,1500,0.1299,0.0942,-0.0184,-0.0055,0.0014,0.9861,-0.2082,0.4758,-0.0809,-0.1868,0.6000,0.2100,0.2450,0.6000,0.2100,0.2450,0.3000,0.0600,0.0002,0,-0.3000,-100.0000,-0.0010,-0.3000,-100.0000,-0.0010,14.9818,39.4429,-1.3500,-1.3500
15.9771,14.1349,1.8693,0.0000,0.0000,-8.1000,-8.1000,-43.2000,0.0000,-0.1974,-0.1337,-0.1448,910,1365,1365,1365,2000,1000,1000,1000,1500,1500,1500,1500,1500,0.1940,0.1072,0.0511,-0.0020,0.0007,0.9942,-0.2085,0.4759,-0.0810,-0.1864,0.6000,0.2100,0.2450,0.6000,0.2100,0.2450,0.3000,0.0600,0.0002,0,-0.3000,-100.0000,-0.0010,-0.3000,-100.0000,-0.0010,15.0175,39.4834,-1.3500,-1.3500
15.9431,14.1059,1.8612,0.0000,0.0000,-8.1000,-8.1000,-43.2000,0.0000,-0.1970,-0.1331,-0.1450,910,1365,1365,1365,2000,1000,1000,1000,1500,1500,1500,1500,1500,0.1098,-0.0455,0.1085,-0.0072,0.0017,0.9890,-0.2089,0.4751,-0.0811,-0.1852,0.6000,0.2100,0.2450,0.6000,0.2100,0.2450,0.3000,0.0600,0.0002,0,-0.3000,-100.0000,-0.0010,-0.3000,-100.0000,-0.0010,15.0532,39.5239,-1.3500,-1.3500
15.9085,14.0762,1.8532,0.0000,0.0000,-8.1000,-8.1000,-43.2000,0.0000,-0.1968,-0.1328,-0.1446,910,1365,1365,1365,2000,1000,1000,1000,1500,1500,1500,1500,1500,0.1025,-0.0868,0.0198,-0.0064,-0.0020,0.9938,-0.2086,0.4743,-0.0807,-0.1850,0.6000,0.2100,0.2450,0.6000,0.2100,0.2450,0.3000,0.0600,0.0002,0,-0.3000,-100.0000,-0.0010,-0.3000,-100.0000,-0.0010,15.0889,39.5644,-1.3500,-1.3500
15.8737,14.0465,1.8448,0.0000,0.0000,-8.1000,-8.1000,-43.2000,0.0000,-0.1966,-0.1327,-0.1447,910,1365,1365,1365,2000,1000,1000,1000,1500,1500,1500,1500,1500,0.0984,-0.0613,0.0454,-0.0025,-0.0021,0.9930,-0.2086,0.4741,-0.0809,-0.1846,0.6000,0.2100,0.2450,0.6000,0.2100,0.2450,0.3000,0.0600,0.0002,0,-0.3000,-100.0000,-0.0010,-0.3000,-100.0000,-0.0010,15.1246,39.6048,-1.3500,-1.3500
15.8385,14.0170,1.8363,0.0829,0.0000,-8.1000,-8.1000,-43.2000,0.0000,-0.1963,-0.1328,-0.1447,910,1365,1365,1365,2000,1000,1000,1000,1500,1500,1500,1500,1500,0.0577,0.0546,0.0522,-0.0050,-0.0012,0.9939,-0.2082,0.4738,-0.0813,-0.1844,0.6000,0.2100,0.2450,0.6000,0.2100,0.2450,0.3000,0.0600,0.0002,0,-0.3000,-100.0000,-0.0010,-0.3000,-100.0000,-0.0010,15.1603,39.6453,-1.3500,-1.3500
15.8032,13.9879,1.8281,0.0000,0.0000,-8.1000,-8.1000,-43.2000,0.0000,-0.1959,-0.1326,-0.1448,910,1365,1365,1365,2000,1000,1000,1000,1500,1500,1500,1500,1500,-0.0236,0.0278,0.0461,-0.0055,0.0043,0.9923,-0.2081,0.4733,-0.0815,-0.1837,0.6000,0.2100,0.2450,0.6000,0.2100,0.2450,0.3000,0.0600,0.0002,0,-0.3000,-100.0000,-0.0010,-0.3000,-100.0000,-0.0010,15.1960,39.6857,-1.3500,-1.3500
15.7672,13.9593,1.8196,0.0000,0.0000,-8.1000,-8.1000,-43.2000,0.0000,-0.1957,-0.1325,-0.1444,910,1365,1365,1365,2000,1000,1000,1000,1500,1500,1500,1500,1500,-0.0162,0.0760,-0.0651,-0.0119,0.0045,0.9900,-0.2075,0.4726,-0.0812,-0.1838,0.6000,0.2100,0.2450,0.6000,0.2100,0.2450,0.3000,0.0600,0.0002,0,-0.3000,-100.0000,-0.0010,-0.3000,-100.0000,-0.0010,15.2317,39.7262,-1.3500,-1.3500
15.7325,13.9308,1.8117,0.0000,0.0000,-8.1000,-8.1000,-43.2000,0.0000,-0.1958,-0.1322,-0.1448,910,1365,1365,1365,2000,1000,1000,1000,1500,1500,1500,1500,1500,0.1276,-0.0044,0.0649,-0.0113,0.0066,0.9913,-0.2084,0.4728,-0.0812,-0.1832,0.6000,0.2100,0.2450,0.6000,0.2100,0.2450,0.3000,0.0600,0.0002,0,-0.3000,-100.0000,-0.0010,-0.3000,-100.0000,-0.0010,15.2674,39.7666,-1.3500,-1.3500
15.6987,13.9016,1.8039,-0.0829,0.0821,-8.1000,-8.1000,-43.2000,0.0000,-0.1957,-0.1320,-0.1448,910,1365,1365,1365,2000,1000,1000,1000,1500,1500,1500,1500,1500,0.1634,0.0128,0.0675,-0.0043,-0.0001,0.9925,-0.2085,0.4726,-0.0812,-0.1829,0.6000,0.2100,0.2450,0.6000,0.2100,0.2450,0.3000,0.0600,0.0002,0,-0.3000,-100.0000,-0.0010,-0.3000,-100.0000,-0.0010,15.3031,39.8070,-1.3500,-1.3500
15.6648,13.8719,1.7956,0.0000,0.0000,-8.1000,-8.1000,-43.2000,0.0000,-0.1955,-0.1317,-0.1446,910,1365,1365,1365,2000,1000,1000,1000,1500,1500,1500,1500,1500,0.1757,-0.0648,-0.0156,-0.0048,-0.0014,0.9933,-0.2084,0.4718,-0.0807,-0.1826,0.6000,0.2100,0.2450,0.6000,0.2100,0.2450,0.3000,0.0600,0.0002,0,-0.3000,-100.0000,-0.0010,-0.3000,-100.0000,-0.0010,15.3389,39.8475,-1.3500,-1.3500
15.6310,13.8426,1.7875,0.0000,0.0000,-8.1000,-8.1000,-43.2000,0.0000,-0.1954,-0.1316,-0.1447,910,1365,1365,1365,2000,1000,1000,1000,1500,1500,1500,1500,1500,0.2295,-0.0241,0.0410,-0.0070,-0.0015,0.9908,-0.2085,0.4717,-0.0808,-0.1824,0.6000,0.2100,0.2450,0.6000,0.2100,0.2450,0.3000,0.0600,0.0002,0,-0.3000,-100.0000,-0.0010,-0.3000,-100.0000,-0.0010,15.3746,39.8879,-1.3500,-1.3500
15.5969,13.8129,1.7789,0.0000,0.0000,-8.1000,-8.1000,-43.2000,0.0000,-0.1948,-0.1314,-0.1446,910,1365,1365,1365,2000,1000,1000,1000,1500,1500,1500,1500,1500,0.0684,-0.0368,0.0002,-0.0038,0.0002,0.9892,-0.2080,0.4708,-0.0811,-0.1817,0.6000,0.2100,0.2450,0.6000,0.2100,0.2450,0.3000,0.0600,0.0002,0,-0.3000,-100.0000,-0.0010,-0.3000,-100.0000,-0.0010,15.4103,39.9283,-1.3500,-1.3500
15.5620,13.7832,1.7702,0.0829,0.0000,-8.1000,-8.1000,-43.2000,0.0000,-0.1947,-0.1311,-0.1446,910,1365,1365,1365,2000,1000,1000,1000,1500,1500,1500,1500,1500,0.0870,-0.0910,0.0062,-0.0046,-0.0002,0.9925,-0.2083,0.4704,-0.0810,-0.1811,0.6000,0.2100,0.2450,0.6000,0.2100,0.2450,0.3000,0.0600,0.0002,0,-0.3000,-100.0000,-0.0010,-0.3000,-100.0000,-0.0010,15.4461,39.9687,-1.3500,-1.3500
15.5262,13.7532,1.7617,0.0000,0.0000,-8.1000,-8.1000,-43.2000,0.0000,-0.1942,-0.1309,-0.1446,910,1365,1365,1365,2000,1000,1000,1000,1500,1500,1500,1500,1500,-0.0348,-0.1062,0.0071,-0.0027,-0.0015,0.9930,-0.2079,0.4697,-0.0813,-0.1804,0.6000,0.2100,0.2450,0.6000,0.2100,0.2450,0.3000,0.0600,0.0002,0,-0.3000,-100.0000,-0.0010,-0.3000,-100.0000,-0.0010,15.4818,40.0090,-1.3500,-1.3500
15.4907,13.7235,1.7531,0.0000,0.0000,-8.1000,-8.1000,-43.2000,0.0000,-0.1941,-0.1310,-0.1447,910,1365,1365,1365,2000,1000,1000,1000,1500,1500,1500,1500,1500,0.0399,0.0090,0.0191,-0.0049,0.0023,0.9896,-0.2079,0.4698,-0.0815,-0.1804,0.6000,0.2100,0.2450,0.6000,0.2100,0.2450,0.3000,0.0600,0.0002,0,-0.3000,-100.0000,-0.0010,-0.3000,-100.0000,-0.0010,15.5176,40.0494,-1.3500,-1.3500
15.4552,13.6938,1.7449,0.0829,0.0821,-8.1000,-8.1000,-43.2000,0.0000,-0.1940,-0.1307,-0.1446,910,1365,1365,1365,2000,1000,1000,1000,1500,1500,1500,1500,1500,0.0496,-0.0180,0.0022,-0.0074,0.0057,0.9898,-0.2078,0.4692,-0.0813,-0.1801,0.6000,0.2100,0.2450,0.6000,0.2100,0.2450,0.3000,0.0600,0.0002,0,-0.3000,-100.0000,-0.0010,-0.3000,-100.0000,-0.0010,15.5534,40.0898,-1.3500,-1.3500
15.4203,13.6643,1.7360,0.0000,0.0000,-8.1000,-8.1000,-43.2000,0.0000,-0.1939,-0.1303,-0.1445,910,1365,1365,1365,2000,1000,1000,1000,1500,1500,1500,1500,1500,0.1271,-0.1342,-0.0344,-0.0091,0.0022,0.9927,-0.2082,0.4687,-0.0808,-0.1797,0.6000,0.2100,0.2450,0.6000,0.2100,0.2450,0.3000,0.0600,0.0002,0,-0.3000,-100.0000,-0.0010,-0.3000,-100.0000,-0.0010,15.5892,40.1301,-1.3500,-1.3500
15.3865,13.6348,1.7276,-0.0829,0.0000,-8.1000,-8.1000,-43.2000,0.0000,-0.1939,-0.1304,-0.1446,910,1365,1365,1365,2000,1000,1000,1000,1500,1500,1500,1500,1500,0.2065,-0.0045,0.0150,-0.0093,0.0035,0.9874,-0.2082,0.4690,-0.0811,-0.1797,0.6000,0.2100,0.2450,0.6000,0.2100,0.2450,0.3000,0.0600,0.0002,0,-0.3000,-100.0000,-0.0010,-0.3000,-100.0000,-0.0010,15.6250,40.1705,-1.3500,-1.3500
15.3528,13.6059,1.7191,0.0000,0.0000,-8.1000,-8.1000,-43.2000,0.0000,-0.1938,-0.1302,-0.1446,910,1365,1365,1365,2000,1000,1000,1000,1500,1500,1500,1500,1500,0.2482,-0.0168,-0.0130,-0.0062,0.0017,0.9888,-0.2082,0.4686,-0.0809,-0.1795,0.6000,0.2100,0.2450,0.6000,0.2100,0.2450,0.3000,0.0600,0.0002,0,-0.3000,-100.0000,-0.0010,-0.3000,-100.0000,-0.0010,15.6608,40.2108,-1.3500,-1.3500
15.3189,13.5764,1.7101,0.0000,0.0000,-8.1000,-8.1000,-43.2000,0.0000,-0.1933,-0.1301,-0.1445,910,1365,1365,1365,2000,1000,1000,1000,1500,1500,1500,1500,1500,0.0984,0.0160,-0.0270,-0.0034,-0.0017,0.9893,-0.2076,0.4678,-0.0813,-0.1789,0.6000,0.2100,0.2450,0.6000,0.2100,0.2450,0.3000,0.0600,0.0002,0,-0.3000,-100.0000,-0.0010,-0.3000,-100.0000,-0.0010,15.6966,40.2511,-1.3500,-1.3500
15.2840,13.5474,1.7017,0.0000,0.0000,-8.1000,-8.1000,-43.2000,0.0000,-0.1931,-0.1299,-0.1446,910,1365,1365,1365,2000,1000,1000,1000,1500,1500,1500,1500,1500,0.1011,0.0007,-0.0086,-0.0040,-0.0037,0.9877,-0.2077,0.4675,-0.0814,-0.1784,0.6000,0.2100,0.2450,0.6000,0.2100,0.2450,0.3000,0.0600,0.0002,0,-0.3000,-100.0000,-0.0010,-0.3000,-100.0000,-0.0010,15.7324,40.2914,-1.3500,-1.3500
15.2487,13.5183,1.6932,0.0000,0.0000,-8.1000,-8.1000,-43.2000,0.0000,-0.1928,-0.1296,-0.1448,910,1365,1365,1365,2000,1000,1000,1000,1500,1500,1500,1500,1500,0.0906,-0.0386,0.0463,-0.0085,0.0006,0.9955,-0.2080,0.4672,-0.0816,-0.1777,0.6000,0.2100,0.2450,0.6000,0.2100,0.2450,0.3000,0.0600,0.0002,0,-0.3000,-100.0000,-0.0010,-0.3000,-100.0000,-0.0010,15.7682,40.3317,-1.3500,-1.3500
15.2131,13.4886,1.6850,0.0829,0.0000,-8.1000,-8.1000,-43.2000,0.0000,-0.1924,-0.1294,-0.1445,910,1365,1365,1365,2000,1000,1000,1000,1500,1500,1500,1500,1500,0.0114,-0.0703,-0.0122,-0.0115,0.0020,0.9932,-0.2076,0.4663,-0.0815,-0.1772,0.6000,0.2100,0.2450,0.6000,0.2100,0.2450,0.3000,0.0600,0.0002,0,-0.3000,-100.0000,-0.0010,-0.3000,-100.0000,-0.0010,15.8041,40.3720,-1.3500,-1.3500
15.1770,13.4583,1.6760,0.0000,0.0821,-8.1000,-8.1000,-43.2000,0.0000,-0.1922,-0.1290,-0.1445,910,1365,1365,1365,2000,1000,1000,1000,1500,1500,1500,1500,1500,-0.0020,-0.1534,-0.0251,-0.0069,0.0004,0.9915,-0.2077,0.4657,-0.0813,-0.1766,0.6000,0.2100,0.2450,0.6000,0.2100,0.2450,0.3000,0.0600,0.0002,0,-0.3000,-100.0000,-0.0010,-0.3000,-100.0000,-0.0010,15.8399,40.4122,-1.3500,-1.3500
15.1414,13.4282,1.6679,0.0000,0.0000,-8.1000,-8.1000,-43.2000,0.0000,-0.1921,-0.1290,-0.1447,910,1365,1365,1365,2000,1000,1000,1000,1500,1500,1500,1500,1500,0.0617,-0.0500,0.0412,-0.0049,-0.0003,0.9945,-0.2078,0.4658,-0.0816,-0.1764,0.6000,0.2100,0.2450,0.6000,0.2100,0.2450,0.3000,0.0600,0.0002,0,-0.3000,-100.0000,-0.0010,-0.3000,-100.0000,-0.0010,15.8757,40.4525,-1.3500,-1.3500
15.1073,13.3986,1.6600,0.0000,0.0000,-8.1000,-8.1000,-43.2000,0.0000,-0.1921,-0.1290,-0.1447,910,1365,1365,1365,2000,1000,1000,1000,1500,1500,1500,1500,1500,0.1523,0.0190,0.0651,-0.0038,0.0031,0.9926,-0.2078,0.4659,-0.0817,-0.1764,0.6000,0.2100,0.2450,0.6000,0.2100,0.2450,0.3000,0.0600,0.0002,0,-0.3000,-100.0000,-0.0010,-0.3000,-100.0000,-0.0010,15.9115,40.4927,-1.3500,-1.3500
15.0742,13.3697,1.6525,0.0000,0.0000,-8.1000,-8.1000,-43.2000,0.0000,-0.1921,-0.1289,-0.1449,910,1365,1365,1365,2000,1000,1000,1000,1500,1500,1500,1500,1500,0.2077,0.0252,0.0932,-0.0093,0.0027,0.9888,-0.2081,0.4658,-0.0817,-0.1760,0.6000,0.2100,0.2450,0.6000,0.2100,0.2450,0.3000,0.0600,0.0002,0,-0.3000,-100.0000,-0.0010,-0.3000,-100.0000,-0.0010,15.9474,40.5329,-1.3500,-1.3500
15.0404,13.3412,1.6449,0.0000,0.0000,-8.1000,-8.1000,-43.2000,0.0000,-0.1918,-0.1289,-0.1446,910,1365,1365,1365,2000,1000,1000,1000,1500,1500,1500,1500,1500,0.1774,0.1118,0.0075,-0.0098,0.0019,0.9931,-0.2075,0.4653,-0.0818,-0.1761,0.6000,0.2100,0.2450,0.6000,0.2100,0.2450,0.3000,0.0600,0.0002,0,-0.3000,-100.0000,-0.0010,-0.3000,-100.0000,-0.0010,15.9832,40.5731,-1.3500,-1.3500
15.0062,13.3131,1.6372,0.0000,-0.0821,-8.1000,-8.1000,-43.2000,0.0000,-0.1913,-0.1287,-0.1446,910,1365,1365,1365,2000,1000,1000,1000,1500,1500,1500,1500,1500,0.0828,0.0743,0.0269,-0.0037,-0.0015,0.9950,-0.2073,0.4646,-0.0820,-0.1754,0.6000,0.2100,0.2450,0.6000,0.2100,0.2450,0.3000,0.0600,0.0002,0,-0.3000,-100.0000,-0.0010,-0.3000,-100.0000,-0.0010,16.0190,40.6133,-1.3500,-1.3500
14.9712,13.2834,1.6288,0.0000,0.0000,-8.1000,-8.1000,-43.2000,0.0000,-0.1911,-0.1281,-0.1444,910,1365,1365,1365,2000,1000,1000,1000,1500,1500,1500,1500,1500,0.0822,-0.0851,-0.0375,-0.0016,-0.0004,0.9860,-0.2075,0.4637,-0.0814,-0.1748,0.6000,0.2100,0.2450,0.6000,0.2100,0.2450,0.3000,0.0600,0.0002,0,-0.3000,-100.0000,-0.0010,-0.3000,-100.0000,-0.0010,16.0549,40.6535,-1.3500,-1.3500
14.9363,13.2537,1.6204,0.0829,0.0000,-8.1000,-8.1000,-43.2000,0.0000,-0.1909,-0.1279,-0.1446,910,1365,1365,1365,2000,1000,1000,1000,1500,1500,1500,1500,1500,0.0853,-0.0884,0.0172,-0.0070,-0.0018,0.9907,-0.2076,0.4634,-0.0816,-0.1742,0.6000,0.2100,0.2450,0.6000,0.2100,0.2450,0.3000,0.0600,0.0002,0,-0.3000,-100.0000,-0.0010,-0.3000,-100.0000,-0.0010,16.0907,40.6937,-1.3500,-1.3500
14.9010,13.2238,1.6120,0.0000,0.0000,-8.1000,-8.1000,-43.2000,0.0000,-0.1906,-0.1279,-0.1445,910,1365,1365,1365,2000,1000,1000,1000,1500,1500,1500,1500,1500,0.0263,0.0028,-0.0332,-0.0067,0.0017,0.9890,-0.2071,0.4630,-0.0819,-0.1740,0.6000,0.2100,0.2450,0.6000,0.2100,0.2450,0.3000,0.0600,0.0002,0,-0.3000,-100.0000,-0.0010,-0.3000,-100.0000,-0.0010,16.1266,40.7338,-1.3500,-1.3500
14.8661,13.1940,1.6036,0.0000,0.0000,-8.1000,-8.1000,-43.2000,0.0000,-0.1906,-0.1275,-0.1447,910,1365,1365,1365,2000,1000,1000,1000,1500,1500,1500,1500,1500,0.1105,-0.1184,0.0146,-0.0060,0.0054,0.9929,-0.2078,0.4627,-0.0816,-0.1734,0.6000,0.2100,0.2450,0.6000,0.2100,0.2450,0.3000,0.0600,0.0002,0,-0.3000,-100.0000,-0.0010,-0.3000,-100.0000,-0.0010,16.1625,40.7740,-1.3500,-1.3500
14.8318,13.1641,1.5952,0.0000,0.0821,-8.1000,-8.1000,-43.2000,0.0000,-0.1904,-0.1275,-0.1446,910,1365,1365,1365,2000,1000,1000,1000,1500,1500,1500,1500,1500,0.1068,-0.0284,-0.0163,-0.0091,0.0009,0.9920,-0.2074,0.4624,-0.0817,-0.1733,0.6000,0.2100,0.2450,0.6000,0.2100,0.2450,0.3000,0.0600,0.0002,0,-0.3000,-100.0000,-0.0010,-0.3000,-100.0000,-0.0010,16.1984,40.8142,-1.3500,-1.3500
14.7975,13.1356,1.5873,0.0000,0.0000,-8.1000,-8.1000,-43.2000,0.0000,-0.1903,-0.1276,-0.1448,910,1365,1365,1365,2000,1000,1000,1000,1500,1500,1500,1500,1500,0.1541,0.0767,0.0610,-0.0084,0.0010,0.9925,-0.2075,0.4627,-0.0822,-0.1730,0.6000,0.2100,0.2450,0.6000,0.2100,0.2450,0.3000,0.0600,0.0002,0,-0.3000,-100.0000,-0.0010,-0.3000,-100.0000,-0.0010,16.2343,40.8544,-1.3500,-1.3500
14.7628,13.1072,1.5793,0.0829,0.0000,-8.1000,-8.1000,-43.2000,0.0000,-0.1901,-0.1275,-0.1444,910,1365,1365,1365,2000,1000,1000,1000,1500,1500,1500,1500,1500,0.1782,0.1023,-0.0615,-0.0067,-0.0005,0.9940,-0.2070,0.4620,-0.0817,-0.1732,0.6000,0.2100,0.2450,0.6000,0.2100,0.2450,0.3000,0.0600,0.0002,0,-0.3000,-100.0000,-0.0010,-0.3000,-100.0000,-0.0010,16.2702,40.8946,-1.3500,-1.3500
14.7283,13.0792,1.5708,0.0000,0.0821,-8.1000,-8.1000,-43.2000,0.0000,-0.1900,-0.1272,-0.1444,910,1365,1365,1365,2000,1000,1000,1000,1500,1500,1500,1500,1500,0.1989,0.0712,-0.0528,-0.0051,-0.0003,0.9927,-0.2071,0.4616,-0.0817,-0.1728,0.6000,0.2100,0.2450,0.6000,0.2100,0.2450,0.3000,0.0600,0.0002,0,-0.3000,-100.0000,-0.0010,-0.3000,-100.0000,-0.0010,16.3061,40.9347,-1.3500,-1.3500
14.6945,13.0510,1.5628,0.0000,0.0821,-8.1000,-8.1000,-43.2000,0.0000,-0.1897,-0.1272,-0.1445,910,1365,1365,1365,2000,1000,1000,1000,1500,1500,1500,1500,1500,0.1894,0.1275,-0.0185,-0.0061,0.0014,0.9881,-0.2070,0.4614,-0.0820,-0.1725,0.6000,0.2100,0.2450,0.6000,0.2100,0.2450,0.3000,0.0600,0.0002,0,-0.3000,-100.0000,-0.0010,-0.3000,-100.0000,-0.0010,16.3420,40.9749,-1.3500,-1.3500
14.6608,13.0223,1.5544,0.0000,0.0821,-8.1000,-8.1000,-43.2000,0.0000,-0.1896,-0.1267,-0.1446,910,1365,1365,1365,2000,1000,1000,1000,1500,1500,1500,1500,1500,0.2236,-0.0163,-0.0047,-0.0030,-0.0038,0.9870,-0.2075,0.4609,-0.0817,-0.1717,0.6000,0.2100,0.2450,0.6000,0.2100,0.2450,0.3000,0.0600,0.0002,0,-0.3000,-100.0000,-0.0010,-0.3000,-100.0000,-0.0010,16.3779,41.0151,-1.3500,-1.3500
14.6273,12.9933,1.5461,0.0829,0.0821,-8.1000,-8.1000,-43.2000,0.0000,-0.1892,-0.1267,-0.1444,910,1365,1365,1365,2000,1000,1000,1000,1500,1500,1500,1500,1500,0.1528,0.0374,-0.0644,-0.0037,-0.0034,0.9896,-0.2070,0.4603,-0.0818,-0.1715,0.6000,0.2100,0.2450,0.6000,0.2100,0.2450,0.3000,0.0600,0.0002,0,-0.3000,-100.0000,-0.0010,-0.3000,-100.0000,-0.0010,16.4139,41.0552,-1.3500,-1.3500
14.5927,12.9638,1.5379,0.0000,0.0000,-8.1000,-8.1000,-43.2000,0.0000,-0.1886,-0.1261,-0.1447,910,1365,1365,1365,2000,1000,1000,1000,1500,1500,1500,1500,1500,-0.0039,-0.1136,0.0297,-0.0077,0.0022,1.0046,-0.2072,0.4594,-0.0821,-0.1701,0.6000,0.2100,0.2450,0.6000,0.2100,0.2450,0.3000,0.0600,0.0002,0,-0.3000,-100.0000,-0.0010,-0.3000,-100.0000,-0.0010,16.4498,41.0954,-1.3500,-1.3500
14.5561,12.9324,1.5289,0.0000,0.0000,-8.1000,-8.1000,-43.2000,0.0000,-0.1882,-0.1256,-0.1444,910,1365,1365,1365,2000,1000,1000,1000,1500,1500,1500,1500,1500,-0.1115,-0.2528,-0.0453,-0.0162,0.0121,0.9991,-0.2070,0.4582,-0.0819,-0.1693,0.6000,0.2100,0.2450,0.6000,0.2100,0.2450,0.3000,0.0600,0.0002,0,-0.3000,-100.0000,-0.0010,-0.3000,-100.0000,-0.0010,16.4857,41.1355,-1.3500,-1.3500
14.5191,12.9010,1.5200,0.0000,0.0000,-8.1000,-8.1000,-43.2000,0.0000,-0.1880,-0.1255,-0.1444,910,1365,1365,1365,2000,1000,1000,1000,1500,1500,1500,1500,1500,-0.0688,-0.2064,-0.0577,-0.0162,0.0074,0.9876,-0.2070,0.4580,-0.0819,-0.1691,0.6000,0.2100,0.2450,0.6000,0.2100,0.2450,0.3000,0.0600,0.0002,0,-0.3000,-100.0000,-0.0010,-0.3000,-100.0000,-0.0010,16.5217,41.1756,-1.3500,-1.3500
14.4838,12.8716,1.5117,-0.0829,0.0000,-8.1000,-8.1000,-43.2000,0.0000,-0.1884,-0.1262,-0.1447,910,1365,1365,1365,2000,1000,1000,1000,1500,1500,1500,1500,1500,0.1612,0.1387,0.0310,-0.0015,-0.0006,0.9871,-0.2069,0.4593,-0.0825,-0.1699,0.6000,0.2100,0.2450,0.6000,0.2100,0.2450,0.3000,0.0600,0.0002,0,-0.3000,-100.0000,-0.0010,-0.3000,-100.0000,-0.0010,16.5576,41.2157,-1.3500,-1.3500
14.4510,12.8430,1.5039,0.0000,0.0000,-8.1000,-8.1000,-43.2000,0.0000,-0.1886,-0.1259,-0.1446,910,1365,1365,1365,2000,1000,1000,1000,1500,1500,1500,1500,1500,0.3142,0.0841,-0.0310,0.0061,-0.0080,0.9891,-0.2073,0.4590,-0.0818,-0.1699,0.6000,0.2100,0.2450,0.6000,0.2100,0.2450,0.3000,0.0600,0.0002,0,-0.3000,-100.0000,-0.0010,-0.3000,-100.0000,-0.0010,16.5936,41.2558,-1.3500,-1.3500
14.4183,12.8143,1.4963,0.0000,0.0000,-8.1000,-8.1000,-43.2000,0.0000,-0.1881,-0.1257,-0.1445,910,1365,1365,1365,2000,1000,1000,1000,1500,1500,1500,1500,1500,0.1994,0.0832,-0.0104,-0.0075,0.0015,0.9961,-0.2069,0.4583,-0.0821,-0.1693,0.6000,0.2100,0.2450,0.6000,0.2100,0.2450,0.3000,0.0600,0.0002,0,-0.3000,-100.0000,-0.0010,-0.3000,-100.0000,-0.0010,16.6296,41.2959,-1.3500,-1.3500
14.3832,12.7856,1.4887,0.0000,0.0821,-8.1000,-8.1000,-43.2000,0.0000,-0.1874,-0.1254,-0.1449,910,1365,1365,1365,2000,1000,1000,1000,1500,1500,1500,1500,1500,0.0093,0.0543,0.0971,-0.0163,0.0109,0.9863,-0.2069,0.4578,-0.0829,-0.1679,0.6000,0.2100,0.2450,0.6000,0.2100,0.2450,0.3000,0.0600,0.0002,0,-0.3000,-100.0000,-0.0010,-0.3000,-100.0000,-0.0010,16.6656,41.3360,-1.3500,-1.3500
14.3478,12.7565,1.4813,0.0000,0.0000,-8.1000,-8.1000,-43.2000,0.0000,-0.1872,-0.1249,-0.1445,910,1365,1365,1365,2000,1000,1000,1000,1500,1500,1500,1500,1500,-0.0062,-0.0898,-0.0342,-0.0080,0.0060,0.9848,-0.2067,0.4566,-0.0822,-0.1676,0.6000,0.2100,0.2450,0.6000,0.2100,0.2450,0.3000,0.0600,0.0002,0,-0.3000,-100.0000,-0.0010,-0.3000,-100.0000,-0.0010,16.7015,41.3760,-1.3500,-1.3500
14.3120,12.7253,1.4732,0.0000,0.0821,-8.1000,-8.1000,-43.2000,0.0000,-0.1870,-0.1245,-0.1445,910,1365,1365,1365,2000,1000,1000,1000,1500,1500,1500,1500,1500,0.0302,-0.1912,-0.0053,0.0051,-0.0072,0.9950,-0.2071,0.4561,-0.0820,-0.1670,0.6000,0.2100,0.2450,0.6000,0.2100,0.2450,0.3000,0.0600,0.0002,0,-0.3000,-100.0000,-0.0010,-0.3000,-100.0000,-0.0010,16.7375,41.4160,-1.3500,-1.3500
14.2764,12.6934,1.4649,0.0000,0.0000,-8.1000,-8.1000,-43.2000,0.0000,-0.1868,-0.1244,-0.1448,910,1365,1365,1365,2000,1000,1000,1000,1500,1500,1500,1500,1500,0.0216,-0.1414,0.0663,0.0016,-0.0056,0.9909,-0.2072,0.4560,-0.0824,-0.1664,0.6000,0.2100,0.2450,0.6000,0.2100,0.2450,0.3000,0.0600,0.0002,0,-0.3000,-100.0000,-0.0010,-0.3000,-100.0000,-0.0010,16.7735,41.4561,-1.3500,-1.3500
14.2409,12.6628,1.4570,0.0000,0.0000,-8.1000,-8.1000,-43.2000,0.0000,-0.1868,-0.1245,-0.1446,910,1365,1365,1365,2000,1000,1000,1000,1500,1500,1500,1500,1500,0.0995,-0.0497,0.0163,-0.0164,0.0098,0.9930,-0.2069,0.4559,-0.0823,-0.1666,0.6000,0.2100,0.2450,0.6000,0.2100,0.2450,0.3000,0.0600,0.0002,0,-0.3000,-100.0000,-0.0010,-0.3000,-100.0000,-0.0010,16.8095,41.4961,-1.3500,-1.3500
14.2052,12.6324,1.4488,0.0000,0.0000,-8.1000,-8.1000,-43.2000,0.0000,-0.1866,-0.1239,-0.1446,910,1365,1365,1365,2000,1000,1000,1000,1500,1500,1500,1500,1500,0.1056,-0.2032,-0.0067,-0.0249,0.0160,0.9957,-0.2073,0.4551,-0.0819,-0.1659,0.6000,0.2100,0.2450,0.6000,0.2100,0.2450,0.3000,0.0600,0.0002,0,-0.3000,-100.0000,-0.0010,-0.3000,-100.0000,-0.0010,16.8455,41.5361,-1.3500,-1.3500
14.1714,12.6023,1.4410,0.0000,0.0000,-8.1000,-8.1000,-43.2000,0.0000,-0.1868,-0.1245,-0.1448,910,1365,1365,1365,2000,1000,1000,1000,1500,1500,1500,1500,1500,0.2572,0.1069,0.0611,-0.0080,0.0074,0.9907,-0.2071,0.4561,-0.0826,-0.1664,0.6000,0.2100,0.2450,0.6000,0.2100,0.2450,0.3000,0.0600,0.0002,0,-0.3000,-100.0000,-0.0010,-0.3000,-100.0000,-0.0010,16.8816,41.5761,-1.3500,-1.3500
14.1387,12.5730,1.4337,0.0829,0.0000,-8.1000,-8.1000,-43.2000,0.0000,-0.1868,-0.1242,-0.1446,910,1365,1365,1365,2000,1000,1000,1000,1500,1500,1500,1500,1500,0.3654,0.0768,0.0122,0.0068,-0.0136,0.9858,-0.2072,0.4557,-0.0820,-0.1664,0.6000,0.2100,0.2450,0.6000,0.2100,0.2450,0.3000,0.0600,0.0002,0,-0.3000,-100.0000,-0.0010,-0.3000,-100.0000,-0.0010,16.9176,41.6161,-1.3500,-1.3500
14.1058,12.5458,1.4267,0.0000,0.0000,-8.1000,-8.1000,-43.2000,0.0000,-0.1862,-0.1243,-0.1446,910,1365,1365,1365,2000,1000,1000,1000,1500,1500,1500,1500,1500,0.1732,0.1601,0.0251,0.0053,-0.0207,0.9889,-0.2065,0.4550,-0.0827,-0.1658,0.6000,0.2100,0.2450,0.6000,0.2100,0.2450,0.3000,0.0600,0.0002,0,-0.3000,-100.0000,-0.0010,-0.3000,-100.0000,-0.0010,16.9536,41.6561,-1.3500,-1.3500
14.0709,12.5191,1.4188,0.0000,0.0000,-8.1000,-8.1000,-43.2000,0.0000,-0.1857,-0.1239,-0.1444,910,1365,1365,1365,2000,1000,1000,1000,1500,1500,1500,1500,1500,0.0765,0.0909,-0.0669,-0.0071,-0.0059,0.9951,-0.2062,0.4541,-0.0826,-0.1652,0.6000,0.2100,0.2450,0.6000,0.2100,0.2450,0.3000,0.0600,0.0002,0,-0.3000,-100.0000,-0.0010,-0.3000,-100.0000,-0.0010,16.9897,41.6961,-1.3500,-1.3500
14.0341,12.4895,1.4109,0.0000,0.0000,-8.1000,-8.1000,-43.2000,0.0000,-0.1848,-0.1232,-0.1446,910,1365,1365,1365,2000,1000,1000,1000,1500,1500,1500,1500,1500,-0.1989,-0.1301,0.0021,-0.0114,0.0107,0.9973,-0.2062,0.4526,-0.0830,-0.1635,0.6000,0.2100,0.2450,0.6000,0.2100,0.2450,0.3000,0.0600,0.0002,0,-0.3000,-100.0000,-0.0010,-0.3000,-100.0000,-0.0010,17.0257,41.7361,-1.3500,-1.3500
13.9959,12.4569,1.4019,0.0000,0.0000,-8.1000,-8.1000,-43.2000,0.0000,-0.1844,-0.1225,-0.1443,910,1365,1365,1365,2000,1000,1000,1000,1500,1500,1500,1500,1500,-0.2950,-0.3476,-0.0856,-0.0060,0.0116,0.9916,-0.2062,0.4512,-0.0825,-0.1625,0.6000,0.2100,0.2450,0.6000,0.2100,0.2450,0.3000,0.0600,0.0002,0,-0.3000,-100.0000,-0.0010,-0.3000,-100.0000,-0.0010,17.0618,41.7760,-1.3500,-1.3500
13.9571,12.4230,1.3919,0.0000,0.0000,-8.1000,-8.1000,-43.2000,0.0000,-0.1841,-0.1222,-0.1443,910,1365,1365,1365,2000,1000,1000,1000,1500,1500,1500,1500,1500,-0.2842,-0.3794,-0.1385,-0.0073,0.0048,0.9932,-0.2062,0.4506,-0.0823,-0.1621,0.6000,0.2100,0.2450,0.6000,0.2100,0.2450,0.3000,0.0600,0.0002,0,-0.3000,-100.0000,-0.0010,-0.3000,-100.0000,-0.0010,17.0978,41.8159,-1.3500,-1.3500
13.9198,12.3907,1.3826,0.0000,0.0000,-8.1000,-8.1000,-43.2000,0.0000,-0.1849,-0.1224,-0.1445,910,1365,1365,1365,2000,1000,1000,1000,1500,1500,1500,1500,1500,0.1214,-0.2025,-0.0402,-0.0117,0.0007,0.9932,-0.2069,0.4518,-0.0820,-0.1629,0.6000,0.2100,0.2450,0.6000,0.2100,0.2450,0.3000,0.0600,0.0002,0,-0.3000,-100.0000,-0.0010,-0.3000,-100.0000,-0.0010,17.1339,41.8558,-1.3500,-1.3500
13.8866,12.3616,1.3747,0.0000,0.0000,-8.1000,-8.1000,-43.2000,0.0000,-0.1854,-0.1232,-0.1446,910,1365,1365,1365,2000,1000,1000,1000,1500,1500,1500,1500,1500,0.3882,0.1752,-0.0145,-0.0108,0.0056,0.9914,-0.2068,0.4532,-0.0825,-0.1639,0.6000,0.2100,0.2450,0.6000,0.2100,0.2450,0.3000,0.0600,0.0002,0,-0.3000,-100.0000,-0.0010,-0.3000,-100.0000,-0.0010,17.1699,41.8957,-1.3500,-1.3500
13.8563,12.3342,1.3683,0.0000,-0.0821,-8.1000,-8.1000,-43.2000,0.0000,-0.1855,-0.1234,-0.1448,910,1365,1365,1365,2000,1000,1000,1000,1500,1500,1500,1500,1500,0.5074,0.3305,0.0529,-0.0104,0.0094,0.9962,-0.2068,0.4537,-0.0827,-0.1641,0.6000,0.2100,0.2450,0.6000,0.2100,0.2450,0.3000,0.0600,0.0002,0,-0.3000,-100.0000,-0.0010,-0.3000,-100.0000,-0.0010,17.2060,41.9356,-1.3500,-1.3500
13.8257,12.3091,1.3622,0.0000,0.0000,-8.1000,-8.1000,-43.2000,0.0000,-0.1849,-0.1236,-0.1446,910,1365,1365,1365,2000,1000,1000,1000,1500,1500,1500,1500,1500,0.3605,0.4826,-0.0167,-0.0042,-0.0045,0.9903,-0.2059,0.4531,-0.0833,-0.1640,0.6000,0.2100,0.2450,0.6000,0.2100,0.2450,0.3000,0.0600,0.0002,0,-0.3000,-100.0000,-0.0010,-0.3000,-100.0000,-0.0010,17.2420,41.9756,-1.3500,-1.3500
13.7916,12.2830,1.3551,0.0000,0.0000,-8.1000,-8.1000,-43.2000,0.0000,-0.1841,-0.1225,-0.1446,910,1365,1365,1365,2000,1000,1000,1000,1500,1500,1500,1500,1500,0.0969,0.0962,0.0215,-0.0014,-0.0157,0.9795,-0.2062,0.4513,-0.0831,-0.1620,0.6000,0.2100,0.2450,0.6000,0.2100,0.2450,0.3000,0.0600,0.0002,0,-0.3000,-100.0000,-0.0010,-0.3000,-100.0000,-0.0010,17.2781,42.0155,-1.3500,-1.3500
13.7541,12.2534,1.3469,0.0000,0.0000,-8.1000,-8.1000,-43.2000,0.0000,-0.1830,-0.1216,-0.1443,910,1365,1365,1365,2000,1000,1000,1000,1500,1500,1500,1500,1500,-0.2560,-0.2262,-0.1015,0.0032,-0.0153,0.9910,-0.2057,0.4488,-0.0828,-0.1603,0.6000,0.2100,0.2450,0.6000,0.2100,0.2450,0.3000,0.0600,0.0002,0,-0.3000,-100.0000,-0.0010,-0.3000,-100.0000,-0.0010,17.3142,42.0553,-1.3500,-1.3500
13.7151,12.2213,1.3382,0.0000,0.0000,-8.1000,-8.1000,-43.2000,0.0000,-0.1828,-0.1212,-0.1446,910,1365,1365,1365,2000,1000,1000,1000,1500,1500,1500,1500,1500,-0.2572,-0.3142,0.0104,-0.0025,-0.0022,0.9930,-0.2062,0.4485,-0.0830,-0.1593,0.6000,0.2100,0.2450,0.6000,0.2100,0.2450,0.3000,0.0600,0.0002,0,-0.3000,-100.0000,-0.0010,-0.3000,-100.0000,-0.0010,17.3503,42.0952,-1.3500,-1.3500
13.6768,12.1870,1.3289,0.0000,0.0000,-8.1000,-8.1000,-43.2000,0.0000,-0.1828,-0.1207,-0.1444,910,1365,1365,1365,2000,1000,1000,1000,1500,1500,1500,1500,1500,-0.1530,-0.4368,-0.0517,-0.0163,0.0173,0.9931,-0.2066,0.4479,-0.0823,-0.1590,0.6000,0.2100,0.2450,0.6000,0.2100,0.2450,0.3000,0.0600,0.0002,0,-0.3000,-100.0000,-0.0010,-0.3000,-100.0000,-0.0010,17.3864,42.1350,-1.3500,-1.3500
13.6414,12.1538,1.3202,0.0829,0.0000,-8.1000,-8.1000,-43.2000,0.0000,-0.1834,-0.1211,-0.1445,910,1365,1365,1365,2000,1000,1000,1000,1500,1500,1500,1500,1500,0.1874,-0.1876,-0.0251,-0.0209,0.0180,0.9914,-0.2069,0.4490,-0.0822,-0.1599,0.6000,0.2100,0.2450,0.6000,0.2100,0.2450,0.3000,0.0600,0.0002,0,-0.3000,-100.0000,-0.0010,-0.3000,-100.0000,-0.0010,17.4225,42.1749,-1.3500,-1.3500
13.6080,12.1248,1.3123,0.0829,0.0000,-8.1000,-8.1000,-43.2000,0.0000,-0.1836,-0.1220,-0.1445,910,1365,1365,1365,2000,1000,1000,1000,1500,1500,1500,1500,1500,0.3524,0.2603,-0.0437,-0.0137,0.0040,0.9879,-0.2061,0.4501,-0.0829,-0.1611,0.6000,0.2100,0.2450,0.6000,0.2100,0.2450,0.3000,0.0600,0.0002,0,-0.3000,-100.0000,-0.0010,-0.3000,-100.0000,-0.0010,17.4586,42.2148,-1.3500,-1.3500
13.5768,12.0991,1.3055,0.0000,0.0000,-8.1000,-8.1000,-43.2000,0.0000,-0.1839,-0.1224,-0.1446,910,1365,1365,1365,2000,1000,1000,1000,1500,1500,1500,1500,1500,0.5304,0.4724,0.0021,-0.0034,-0.0042,0.9915,-0.2061,0.4508,-0.0831,-0.1616,0.6000,0.2100,0.2450,0.6000,0.2100,0.2450,0.3000,0.0600,0.0002,0,-0.3000,-100.0000,-0.0010,-0.3000,-100.0000,-0.0010,17.4948,42.2547,-1.3500,-1.3500
13.5465,12.0746,1.2997,0.0000,0.0000,-8.1000,-8.1000,-43.2000,0.0000,-0.1836,-0.1222,-0.1447,910,1365,1365,1365,2000,1000,1000,1000,1500,1500,1500,1500,1500,0.4966,0.4663,0.0435,-0.0020,-0.0073,0.9903,-0.2061,0.4505,-0.0833,-0.1611,0.6000,0.2100,0.2450,0.6000,0.2100,0.2450,0.3000,0.0600,0.0002,0,-0.3000,-100.0000,-0.0010,-0.3000,-100.0000,-0.0010,17.5309,42.2945,-1.3500,-1.3500
13.5139,12.0479,1.2928,0.0000,0.0000,-8.1000,-8.1000,-43.2000,0.0000,-0.1826,-0.1211,-0.1446,910,1365,1365,1365,2000,1000,1000,1000,1500,1500,1500,1500,1500,0.1854,0.0709,-0.0129,-0.0048,-0.0028,0.9945,-0.2061,0.4483,-0.0830,-0.1591,0.6000,0.2100,0.2450,0.6000,0.2100,0.2450,0.3000,0.0600,0.0002,0,-0.3000,-100.0000,-0.0010,-0.3000,-100.0000,-0.0010,17.5671,42.3344,-1.3500,-1.3500
13.4779,12.0172,1.2854,0.0000,0.0000,-8.1000,-8.1000,-43.2000,0.0000,-0.1815,-0.1201,-0.1447,910,1365,1365,1365,2000,1000,1000,1000,1500,1500,1500,1500,1500,-0.1999,-0.2280,0.0141,-0.0049,-0.0022,0.9967,-0.2060,0.4463,-0.0833,-0.1570,0.6000,0.2100,0.2450,0.6000,0.2100,0.2450,0.3000,0.0600,0.0002,0,-0.3000,-100.0000,-0.0010,-0.3000,-100.0000,-0.0010,17.6032,42.3743,-1.3500,-1.3500
13.4387,11.9839,1.2772,0.0829,0.0000,-8.1000,-8.1000,-43.2000,0.0000,-0.1809,-0.1194,-0.1447,910,1365,1365,1365,2000,1000,1000,1000,1500,1500,1500,1500,1500,-0.3313,-0.4361,0.0353,-0.0040,-0.0014,0.9925,-0.2062,0.4451,-0.0833,-0.1556,0.6000,0.2100,0.2450,0.6000,0.2100,0.2450,0.3000,0.0600,0.0002,0,-0.3000,-100.0000,-0.0010,-0.3000,-100.0000,-0.0010,17.6394,42.4141,-1.3500,-1.3500
13.3996,11.9503,1.2689,0.0000,0.0000,-8.1000,-8.1000,-43.2000,0.0000,-0.1808,-0.1194,-0.1445,910,1365,1365,1365,2000,1000,1000,1000,1500,1500,1500,1500,1500,-0.2737,-0.3514,-0.0387,-0.0028,0.0038,0.9886,-0.2059,0.4447,-0.0831,-0.1558,0.6000,0.2100,0.2450,0.6000,0.2100,0.2450,0.3000,0.0600,0.0002,0,-0.3000,-100.0000,-0.0010,-0.3000,-100.0000,-0.0010,17.6756,42.4540,-1.3500,-1.3500
13.3633,11.9178,1.2613,0.0000,0.0000,-8.1000,-8.1000,-43.2000,0.0000,-0.1815,-0.1200,-0.1448,910,1365,1365,1365,2000,1000,1000,1000,1500,1500,1500,1500,1500,0.1007,-0.0602,0.0642,-0.0081,0.0114,0.9893,-0.2063,0.4463,-0.0832,-0.1567,0.6000,0.2100,0.2450,0.6000,0.2100,0.2450,0.3000,0.0600,0.0002,0,-0.3000,-100.0000,-0.0010,-0.3000,-100.0000,-0.0010,17.7117,42.4938,-1.3500,-1.3500
13.3301,11.8884,1.2550,0.0000,0.0000,-8.1000,-8.1000,-43.2000,0.0000,-0.1819,-0.1204,-0.1447,910,1365,1365,1365,2000,1000,1000,1000,1500,1500,1500,1500,1500,0.3464,0.2015,0.0381,-0.0184,0.0145,0.9950,-0.2062,0.4471,-0.0832,-0.1577,0.6000,0.2100,0.2450,0.6000,0.2100,0.2450,0.3000,0.0600,0.0002,0,-0.3000,-100.0000,-0.0010,-0.3000,-100.0000,-0.0010,17.7479,42.5336,-1.3500,-1.3500
13.2987,11.8619,1.2485,0.0000,0.0000,-8.1000,-8.1000,-43.2000,0.0000,-0.1820,-0.1208,-0.1444,910,1365,1365,1365,2000,1000,1000,1000,1500,1500,1500,1500,1500,0.4392,0.4056,-0.0503,-0.0125,0.0061,0.9967,-0.2056,0.4471,-0.0832,-0.1584,0.6000,0.2100,0.2450,0.6000,0.2100,0.2450,0.3000,0.0600,0.0002,0,-0.3000,-100.0000,-0.0010,-0.3000,-100.0000,-0.0010,17.7841,42.5734,-1.3500,-1.3500
13.2675,11.8358,1.2419,0.0000,0.0000,-8.1000,-8.1000,-43.2000,0.0000,-0.1817,-0.1204,-0.1446,910,1365,1365,1365,2000,1000,1000,1000,1500,1500,1500,1500,1500,0.4230,0.3087,-0.0181,-0.0046,-0.0063,0.9939,-0.2059,0.4467,-0.0832,-0.1576,0.6000,0.2100,0.2450,0.6000,0.2100,0.2450,0.3000,0.0600,0.0002,0,-0.3000,-100.0000,-0.0010,-0.3000,-100.0000,-0.0010,17.8203,42.6131,-1.3500,-1.3500
13.2343,11.8084,1.2348,-0.0829,0.0000,-8.1000,-8.1000,-43.2000,0.0000,-0.1809,-0.1196,-0.1447,910,1365,1365,1365,2000,1000,1000,1000,1500,1500,1500,1500,1500,0.1740,0.0804,0.0284,0.0029,-0.0105,0.9900,-0.2060,0.4453,-0.0834,-0.1559,0.6000,0.2100,0.2450,0.6000,0.2100,0.2450,0.3000,0.0600,0.0002,0,-0.3000,-100.0000,-0.0010,-0.3000,-100.0000,-0.0010,17.8565,42.6529,-1.3500,-1.3500
13.1989,11.7780,1.2269,0.0000,0.0000,-8.1000,-8.1000,-43.2000,0.0000,-0.1801,-0.1187,-0.1446,910,1365,1365,1365,2000,1000,1000,1000,1500,1500,1500,1500,1500,-0.0721,-0.2460,-0.0122,0.0019,-0.0082,0.9925,-0.2060,0.4434,-0.0831,-0.1542,0.6000,0.2100,0.2450,0.6000,0.2100,0.2450,0.3000,0.0600,0.0002,0,-0.3000,-100.0000,-0.0010,-0.3000,-100.0000,-0.0010,17.8927,42.6926,-1.3500,-1.3500
13.1608,11.7455,1.2188,0.0829,0.0000,-8.1000,-8.1000,-43.2000,0.0000,-0.1792,-0.1183,-0.1446,910,1365,1365,1365,2000,1000,1000,1000,1500,1500,1500,1500,1500,-0.3465,-0.3027,-0.0025,-0.0118,0.0032,0.9914,-0.2055,0.4421,-0.0837,-0.1530,0.6000,0.2100,0.2450,0.6000,0.2100,0.2450,0.3000,0.0600,0.0002,0,-0.3000,-100.0000,-0.0010,-0.3000,-100.0000,-0.0010,17.9289,42.7324,-1.3500,-1.3500
13.1213,11.7128,1.2109,0.0000,0.0000,-8.1000,-8.1000,-43.2000,0.0000,-0.1791,-0.1182,-0.1446,910,1365,1365,1365,2000,1000,1000,1000,1500,1500,1500,1500,1500,-0.3135,-0.2825,-0.0037,-0.0141,0.0087,0.9938,-0.2054,0.4418,-0.0837,-0.1527,0.6000,0.2100,0.2450,0.6000,0.2100,0.2450,0.3000,0.0600,0.0002,0,-0.3000,-100.0000,-0.0010,-0.3000,-100.0000,-0.0010,17.9651,42.7720,-1.3500,-1.3500
13.0832,11.6805,1.2034,0.0000,0.0000,-8.1000,-8.1000,-43.2000,0.0000,-0.1793,-0.1186,-0.1446,910,1365,1365,1365,2000,1000,1000,1000,1500,1500,1500,1500,1500,-0.1140,-0.0391,0.0147,-0.0076,0.0117,0.9911,-0.2054,0.4425,-0.0839,-0.1533,0.6000,0.2100,0.2450,0.6000,0.2100,0.2450,0.3000,0.0600,0.0002,0,-0.3000,-100.0000,-0.0010,-0.3000,-100.0000,-0.0010,18.0013,42.8117,-1.3500,-1.3500
13.0492,11.6510,1.1967,0.0000,0.0000,-8.1000,-8.1000,-43.2000,0.0000,-0.1801,-0.1190,-0.1448,910,1365,1365,1365,2000,1000,1000,1000,1500,1500,1500,1500,1500,0.2932,0.1833,0.0727,-0.0013,0.0024,0.9919,-0.2060,0.4439,-0.0837,-0.1542,0.6000,0.2100,0.2450,0.6000,0.2100,0.2450,0.3000,0.0600,0.0002,0,-0.3000,-100.0000,-0.0010,-0.3000,-100.0000,-0.0010,18.0375,42.8514,-1.3500,-1.3500
13.0185,11.6236,1.1911,0.0000,0.0000,-8.1000,-8.1000,-43.2000,0.0000,-0.1806,-0.1193,-0.1448,910,1365,1365,1365,2000,1000,1000,1000,1500,1500,1500,1500,1500,0.5611,0.3765,0.0862,-0.0058,-0.0029,0.9968,-0.2061,0.4447,-0.0835,-0.1550,0.6000,0.2100,0.2450,0.6000,0.2100,0.2450,0.3000,0.0600,0.0002,0,-0.3000,-100.0000,-0.0010,-0.3000,-100.0000,-0.0010,18.0737,42.8911,-1.3500,-1.3500
12.9884,11.5976,1.1850,0.0000,0.0000,-8.1000,-8.1000,-43.2000,0.0000,-0.1802,-0.1188,-0.1446,910,1365,1365,1365,2000,1000,1000,1000,1500,1500,1500,1500,1500,0.4916,0.2671,-0.0050,-0.0106,-0.0049,0.9911,-0.2060,0.4436,-0.0832,-0.1545,0.6000,0.2100,0.2450,0.6000,0.2100,0.2450,0.3000,0.0600,0.0002,0,-0.3000,-100.0000,-0.0010,-0.3000,-100.0000,-0.0010,18.1100,42.9309,-1.3500,-1.3500
12.9557,11.5698,1.1783,0.0000,0.0000,-8.1000,-8.1000,-43.2000,0.0000,-0.1793,-0.1180,-0.1447,910,1365,1365,1365,2000,1000,1000,1000,1500,1500,1500,1500,1500,0.2031,-0.0104,0.0392,-0.0090,-0.0017,0.9928,-0.2061,0.4421,-0.0834,-0.1526,0.6000,0.2100,0.2450,0.6000,0.2100,0.2450,0.3000,0.0600,0.0002,0,-0.3000,-100.0000,-0.0010,-0.3000,-100.0000,-0.0010,18.1462,42.9705,-1.3500,-1.3500
12.9192,11.5383,1.1708,0.0829,0.0000,-8.1000,-8.1000,-43.2000,0.0000,-0.1781,-0.1171,-0.1445,910,1365,1365,1365,2000,1000,1000,1000,1500,1500,1500,1500,1500,-0.2013,-0.2842,-0.0321,-0.0047,-0.0011,0.9922,-0.2055,0.4398,-0.0835,-0.1508,0.6000,0.2100,0.2450,0.6000,0.2100,0.2450,0.3000,0.0600,0.0002,0,-0.3000,-100.0000,-0.0010,-0.3000,-100.0000,-0.0010,18.1825,43.0102,-1.3500,-1.3500
12.8802,11.5047,1.1630,0.0000,0.0000,-8.1000,-8.1000,-43.2000,0.0000,-0.1775,-0.1167,-0.1447,910,1365,1365,1365,2000,1000,1000,1000,1500,1500,1500,1500,1500,-0.3685,-0.3746,0.0174,-0.0011,-0.0011,0.9945,-0.2054,0.4388,-0.0839,-0.1495,0.6000,0.2100,0.2450,0.6000,0.2100,0.2450,0.3000,0.0600,0.0002,0,-0.3000,-100.0000,-0.0010,-0.3000,-100.0000,-0.0010,18.2188,43.0498,-1.3500,-1.3500
12.8408,11.4715,1.1554,0.0000,0.0000,-8.1000,-8.1000,-43.2000,0.0000,-0.1775,-0.1170,-0.1447,910,1365,1365,1365,2000,1000,1000,1000,1500,1500,1500,1500,1500,-0.2712,-0.1862,0.0275,-0.0083,0.0075,0.9912,-0.2052,0.4392,-0.0842,-0.1497,0.6000,0.2100,0.2450,0.6000,0.2100,0.2450,0.3000,0.0600,0.0002,0,-0.3000,-100.0000,-0.0010,-0.3000,-100.0000,-0.0010,18.2550,43.0895,-1.3500,-1.3500
