roll_imu,pitch_imu,yaw_imu,alpha,beta,roll_des,pitch_des,yaw_des,throttle_des,roll_pid,pitch_pid,yaw_pid,radio_ch1,radio_ch2,radio_ch3,radio_ch4,radio_ch5,radio_ch6,radio_ch7,radio_ch8,radio_ch9,radio_ch10,radio_ch11,radio_ch12,radio_ch13,GyroX,GyroY,GyroZ,AccX,AccY,AccZ,s1_command,s2_command,s3_command,s4_command,kp_roll,ki_roll,kd_roll,kp_pitch,ki_pitch,kd_pitch,kp_yaw,ki_yaw,kd_yaw,failsafeTriggered,kp_alphaRoll,ki_alphaRoll,kd_alphaRoll,kp_betaPitch,ki_betaPitch,kd_betaPitch,ripIMU_roll,ripIMU_pitch,ripRoll_des,ripPitch_des
0.0000,0.0000,0.0000,-12.9282,31.3133,0.0000,0.0000,0.0000,0.0000,0.0000,0.0000,0.0000,1000,1500,1500,1500,2000,1000,1000,1000,1500,1500,1500,1500,1500,0.0000,0.0000,0.0000,0.0000,0.0000,0.0000,0.0000,0.0000,0.0000,0.0000,0.9832,0.0385,0.1353,0.9832,0.0385,0.1353,0.3000,0.0600,0.0002,0,-0.3000,-100.0000,-0.0010,-0.3000,-100.0000,-0.0010,0.0000,0.0000,0.0000,0.0000
30.0716,45.6401,12.9575,-0.0829,-0.0000,-8.1000,-8.0400,-43.2000,0.0000,-0.8083,-1.0555,-0.1303,910,1365,1366,1365,2000,1000,1000,1000,1500,1500,1500,1500,1500,-0.0262,-0.0354,0.1239,-0.0249,0.0135,0.9251,0.1169,1.9940,-0.3775,-1.7335,1.9664,0.2310,0.2706,1.9664,0.2310,0.2706,0.3000,0.0600,0.0002,0,-0.3000,-100.0000,-0.0010,-0.3000,-100.0000,-0.0010,12.5686,51.5866,-1.3500,-1.3400
30.0413,45.6125,12.9368,0.0829,-0.0000,-2.3400,-2.1000,-12.8000,0.0000,-0.3347,-0.4785,-0.0391,971,1461,1465,1460,2008,1000,1505,1000,1000,1010,1005,1000,1013,-0.0796,-0.0054,0.0910,-0.0249,0.0149,0.9962,0.1046,0.8523,-0.1829,-0.7741,1.0029,0.0404,0.1353,1.0029,0.0404,0.1353,0.3000,0.0600,0.0002,0,-0.3000,-100.0000,-0.0010,-0.3000,-100.0000,-0.0010,12.5980,51.6194,-0.3900,-0.3500
30.0107,45.5853,12.9160,0.0000,-0.0000,-0.6000,-0.3000,-4.1600,0.0000,-0.3171,-0.4601,-0.0131,991,1490,1495,1487,2008,1000,1505,1000,1000,1010,1005,1000,1013,-0.0150,-0.0218,0.0463,-0.0267,0.0158,0.9999,0.1300,0.7903,-0.1561,-0.7641,1.0029,0.0404,0.1353,1.0029,0.0404,0.1353,0.3000,0.0600,0.0002,0,-0.3000,-100.0000,-0.0010,-0.3000,-100.0000,-0.0010,12.6285,51.6518,-0.1000,-0.0500
29.9797,45.5583,12.8941,-0.0829,-0.0821,0.0000,0.1200,-1.6000,0.0000,-0.3107,-0.4556,-0.0055,996,1500,1502,1495,2008,1000,1505,1000,1000,1010,1005,1000,1013,-0.0462,-0.0711,0.0516,-0.0232,0.0140,1.0015,0.1394,0.7718,-0.1504,-0.7608,1.0029,0.0404,0.1353,1.0029,0.0404,0.1353,0.3000,0.0600,0.0002,0,-0.3000,-100.0000,-0.0010,-0.3000,-100.0000,-0.0010,12.6591,51.6842,0.0000,0.0200
29.9491,45.5306,12.8727,0.0829,-0.0000,0.1200,0.3000,-0.9600,0.0000,-0.3093,-0.4535,-0.0036,998,1504,1507,1500,2008,1000,1505,1000,1000,1010,1005,1000,1013,0.0228,-0.0451,0.0779,-0.0287,0.0151,1.0020,0.1407,0.7664,-0.1478,-0.7592,1.0029,0.0404,0.1353,1.0029,0.0404,0.1353,0.3000,0.0600,0.0002,0,-0.3000,-100.0000,-0.0010,-0.3000,-100.0000,-0.0010,12.6898,51.7165,0.0200,0.0500
29.9188,45.5034,12.8514,0.0000,-0.0000,0.1200,0.4200,0.0000,0.0000,-0.3089,-0.4521,-0.0006,996,1502,1507,1500,2008,1000,1505,1000,1000,1010,1005,1000,1013,-0.0437,0.0036,0.0438,-0.0273,0.0162,1.0026,0.1426,0.7616,-0.1439,-0.7604,1.0029,0.0404,0.1353,1.0029,0.0404,0.1353,0.3000,0.0600,0.0002,0,-0.3000,-100.0000,-0.0010,-0.3000,-100.0000,-0.0010,12.7205,51.7489,0.0200,0.0700
29.8881,45.4764,12.8302,0.0000,-0.0821,0.1200,0.4200,0.0000,0.0000,-0.3086,-0.4519,-0.0007,996,1502,1507,1500,2008,1000,1505,1000,1000,1010,1005,1000,1013,-0.0049,0.0555,0.0526,-0.0240,0.0159,0.9978,0.1426,0.7612,-0.1440,-0.7599,1.0029,0.0404,0.1353,1.0029,0.0404,0.1353,0.3000,0.0600,0.0002,0,-0.3000,-100.0000,-0.0010,-0.3000,-100.0000,-0.0010,12.7511,51.7812,0.0200,0.0700
29.8585,45.4495,12.8095,0.0829,-0.0000,0.1200,0.4200,0.0000,0.0000,-0.3083,-0.4517,-0.0007,996,1502,1507,1500,2008,1000,1505,1000,1000,1010,1005,1000,1013,-0.0032,0.0570,0.0807,-0.0242,0.0158,1.0022,0.1426,0.7607,-0.1440,-0.7593,1.0029,0.0404,0.1353,1.0029,0.0404,0.1353,0.3000,0.0600,0.0002,0,-0.3000,-100.0000,-0.0010,-0.3000,-100.0000,-0.0010,12.7817,51.8136,0.0200,0.0700
29.8282,45.4227,12.7880,0.0000,0.0821,0.1200,0.4200,0.0000,0.0000,-0.3080,-0.4514,-0.0007,996,1502,1507,1500,2008,1000,1505,1000,1000,1010,1005,1000,1013,0.0054,0.0295,0.0475,-0.0249,0.0146,1.0044,0.1426,0.7601,-0.1440,-0.7587,1.0029,0.0404,0.1353,1.0029,0.0404,0.1353,0.3000,0.0600,0.0002,0,-0.3000,-100.0000,-0.0010,-0.3000,-100.0000,-0.0010,12.8124,51.8460,0.0200,0.0700
29.7976,45.3957,12.7667,0.0000,-0.0000,0.1200,0.4200,0.0000,0.0000,-0.3077,-0.4510,-0.0003,996,1502,1507,1500,2008,1000,1505,1000,1000,1010,1005,1000,1013,-0.0529,-0.0556,-0.0526,-0.0248,0.0128,1.0030,0.1430,0.7589,-0.1436,-0.7583,1.0029,0.0404,0.1353,1.0029,0.0404,0.1353,0.3000,0.0600,0.0002,0,-0.3000,-100.0000,-0.0010,-0.3000,-100.0000,-0.0010,12.8430,51.8783,0.0200,0.0700
29.7666,45.3687,12.7451,-0.0829,0.0821,0.1200,0.4200,0.0000,0.0000,-0.3073,-0.4507,-0.0008,998,1504,1507,1501,2008,1000,1505,1000,1000,1010,1005,1000,1013,-0.0954,-0.0519,0.0743,-0.0230,0.0146,1.0014,0.1427,0.7588,-0.1442,-0.7572,1.0029,0.0404,0.1353,1.0029,0.0404,0.1353,0.3000,0.0600,0.0002,0,-0.3000,-100.0000,-0.0010,-0.3000,-100.0000,-0.0010,12.8736,51.9106,0.0200,0.0700
29.7361,45.3415,12.7238,0.0000,-0.0000,0.1200,0.4200,0.0000,0.0000,-0.3071,-0.4505,-0.0007,996,1502,1507,1500,2008,1000,1505,1000,1000,1010,1005,1000,1013,0.0243,-0.0019,0.0695,-0.0262,0.0155,1.0023,0.1426,0.7584,-0.1441,-0.7569,1.0029,0.0404,0.1353,1.0029,0.0404,0.1353,0.3000,0.0600,0.0002,0,-0.3000,-100.0000,-0.0010,-0.3000,-100.0000,-0.0010,12.9042,51.9429,0.0200,0.0700
29.7059,45.3147,12.7026,0.0000,-0.0000,0.1200,0.4200,0.0000,0.0000,-0.3068,-0.4503,-0.0004,996,1502,1507,1500,2008,1000,1505,1000,1000,1010,1005,1000,1013,-0.0347,0.0394,-0.0234,-0.0239,0.0150,1.0026,0.1431,0.7575,-0.1439,-0.7566,1.0029,0.0404,0.1353,1.0029,0.0404,0.1353,0.3000,0.0600,0.0002,0,-0.3000,-100.0000,-0.0010,-0.3000,-100.0000,-0.0010,12.9348,51.9752,0.0200,0.0700
29.6753,45.2879,12.6809,0.0000,-0.0000,0.1200,0.4200,0.0000,0.0000,-0.3065,-0.4499,-0.0007,996,1502,1507,1500,2008,1000,1505,1000,1000,1010,1005,1000,1013,0.0103,-0.0142,0.0710,-0.0237,0.0152,0.9998,0.1427,0.7572,-0.1441,-0.7558,1.0029,0.0404,0.1353,1.0029,0.0404,0.1353,0.3000,0.0600,0.0002,0,-0.3000,-100.0000,-0.0010,-0.3000,-100.0000,-0.0010,12.9654,52.0075,0.0200,0.0700
29.6456,45.2603,12.6605,0.0000,-0.0821,0.1200,0.4200,0.0000,0.0000,-0.3062,-0.4497,-0.0009,996,1502,1507,1500,2008,1000,1505,1000,1000,1010,1005,1000,1013,-0.0211,0.0331,0.1095,-0.0238,0.0121,1.0045,0.1427,0.7568,-0.1444,-0.7550,1.0029,0.0404,0.1353,1.0029,0.0404,0.1353,0.3000,0.0600,0.0002,0,-0.3000,-100.0000,-0.0010,-0.3000,-100.0000,-0.0010,12.9960,52.0398,0.0200,0.0700
29.6155,45.2331,12.6397,0.0000,0.0821,0.1200,0.4200,0.0000,0.0000,-0.3059,-0.4495,-0.0005,996,1502,1507,1500,2008,1000,1505,1000,1000,1010,1005,1000,1013,-0.0298,0.0452,0.0006,-0.0273,0.0162,1.0039,0.1431,0.7558,-0.1441,-0.7549,1.0029,0.0404,0.1353,1.0029,0.0404,0.1353,0.3000,0.0600,0.0002,0,-0.3000,-100.0000,-0.0010,-0.3000,-100.0000,-0.0010,13.0265,52.0721,0.0200,0.0700
29.5847,45.2064,12.6185,0.0000,-0.0000,0.1200,0.4200,0.0000,0.0000,-0.3056,-0.4491,-0.0004,998,1504,1507,1501,2008,1000,1505,1000,1000,1010,1005,1000,1013,-0.0190,-0.0348,-0.0310,-0.0264,0.0102,1.0011,0.1431,0.7551,-0.1439,-0.7543,1.0029,0.0404,0.1353,1.0029,0.0404,0.1353,0.3000,0.0600,0.0002,0,-0.3000,-100.0000,-0.0010,-0.3000,-100.0000,-0.0010,13.0571,52.1043,0.0200,0.0700
29.5543,45.1795,12.5970,0.0829,-0.0000,0.1200,0.4200,0.0000,0.0000,-0.3052,-0.4490,-0.0007,996,1502,1507,1500,2008,1000,1505,1000,1000,1010,1005,1000,1013,-0.0452,0.0692,0.0850,-0.0258,0.0132,0.9984,0.1430,0.7549,-0.1445,-0.7535,1.0029,0.0404,0.1353,1.0029,0.0404,0.1353,0.3000,0.0600,0.0002,0,-0.3000,-100.0000,-0.0010,-0.3000,-100.0000,-0.0010,13.0876,52.1366,0.0200,0.0700
29.5246,45.1528,12.5764,0.0000,-0.0000,0.1200,0.4200,0.0000,0.0000,-0.3050,-0.4487,-0.0006,996,1502,1507,1500,2008,1000,1505,1000,1000,1010,1005,1000,1013,-0.0097,0.0787,0.0387,-0.0248,0.0141,1.0005,0.1431,0.7543,-0.1443,-0.7531,1.0029,0.0404,0.1353,1.0029,0.0404,0.1353,0.3000,0.0600,0.0002,0,-0.3000,-100.0000,-0.0010,-0.3000,-100.0000,-0.0010,13.1182,52.1688,0.0200,0.0700
29.4942,45.1258,12.5553,0.0829,-0.0000,0.1200,0.4200,0.0000,0.0000,-0.3047,-0.4483,-0.0005,996,1502,1507,1500,2008,1000,1505,1000,1000,1010,1005,1000,1013,-0.0082,-0.0281,0.0227,-0.0243,0.0153,1.0034,0.1431,0.7535,-0.1442,-0.7524,1.0029,0.0404,0.1353,1.0029,0.0404,0.1353,0.3000,0.0600,0.0002,0,-0.3000,-100.0000,-0.0010,-0.3000,-100.0000,-0.0010,13.1487,52.2011,0.0200,0.0700
29.4635,45.0986,12.5340,0.0000,-0.0000,0.1200,0.4200,0.0000,0.0000,-0.3043,-0.4481,-0.0006,996,1502,1507,1500,2008,1000,1505,1000,1000,1010,1005,1000,1013,-0.0292,0.0200,0.0294,-0.0252,0.0143,0.9976,0.1432,0.7530,-0.1443,-0.7518,1.0029,0.0404,0.1353,1.0029,0.0404,0.1353,0.3000,0.0600,0.0002,0,-0.3000,-100.0000,-0.0010,-0.3000,-100.0000,-0.0010,13.1792,52.2333,0.0200,0.0700
29.4334,45.0719,12.5138,0.0000,-0.0000,0.1200,0.4200,0.0000,0.0000,-0.3040,-0.4479,-0.0008,996,1502,1507,1500,2008,1000,1505,1000,1000,1010,1005,1000,1013,-0.0594,0.0403,0.0933,-0.0248,0.0177,1.0030,0.1431,0.7526,-0.1446,-0.7511,1.0029,0.0404,0.1353,1.0029,0.0404,0.1353,0.3000,0.0600,0.0002,0,-0.3000,-100.0000,-0.0010,-0.3000,-100.0000,-0.0010,13.2097,52.2656,0.0200,0.0700
29.4035,45.0443,12.4936,-0.0829,-0.0000,0.1200,0.4200,0.0000,0.0000,-0.3038,-0.4475,-0.0006,998,1504,1507,1500,2008,1000,1505,1000,1000,1010,1005,1000,1013,-0.0217,-0.0486,0.0437,-0.0252,0.0165,1.0002,0.1431,0.7518,-0.1443,-0.7506,1.0029,0.0404,0.1353,1.0029,0.0404,0.1353,0.3000,0.0600,0.0002,0,-0.3000,-100.0000,-0.0010,-0.3000,-100.0000,-0.0010,13.2402,52.2978,0.0200,0.0700
29.3729,45.0173,12.4717,-0.0829,-0.0000,0.1200,0.4200,0.0000,0.0000,-0.3035,-0.4473,-0.0006,996,1502,1507,1500,2008,1000,1505,1000,1000,1010,1005,1000,1013,0.0012,0.0166,0.0224,-0.0251,0.0127,1.0009,0.1432,0.7514,-0.1444,-0.7501,1.0029,0.0404,0.1353,1.0029,0.0404,0.1353,0.3000,0.0600,0.0002,0,-0.3000,-100.0000,-0.0010,-0.3000,-100.0000,-0.0010,13.2707,52.3300,0.0200,0.0700
29.3435,44.9898,12.4513,0.0000,-0.0000,0.1200,0.4200,0.0000,0.0000,-0.3032,-0.4470,-0.0007,996,1502,1507,1500,2008,1000,1505,1000,1000,1010,1005,1000,1013,0.0008,0.0313,0.0544,-0.0247,0.0146,1.0017,0.1432,0.7509,-0.1445,-0.7495,1.0029,0.0404,0.1353,1.0029,0.0404,0.1353,0.3000,0.0600,0.0002,0,-0.3000,-100.0000,-0.0010,-0.3000,-100.0000,-0.0010,13.3012,52.3622,0.0200,0.0700
29.3136,44.9626,12.4307,0.0000,-0.0821,0.1200,0.4200,0.0000,0.0000,-0.3028,-0.4468,-0.0006,996,1502,1507,1500,2008,1000,1505,1000,1000,1010,1005,1000,1013,-0.0363,0.0726,0.0236,-0.0224,0.0143,1.0014,0.1434,0.7502,-0.1445,-0.7491,1.0029,0.0404,0.1353,1.0029,0.0404,0.1353,0.3000,0.0600,0.0002,0,-0.3000,-100.0000,-0.0010,-0.3000,-100.0000,-0.0010,13.3317,52.3943,0.0200,0.0700
29.2832,44.9356,12.4099,0.0000,-0.0000,0.1200,0.4200,0.0000,0.0000,-0.3025,-0.4465,-0.0005,996,1502,1507,1500,2008,1000,1505,1000,1000,1010,1005,1000,1013,-0.0288,0.0176,0.0132,-0.0258,0.0116,1.0027,0.1434,0.7495,-0.1444,-0.7485,1.0029,0.0404,0.1353,1.0029,0.0404,0.1353,0.3000,0.0600,0.0002,0,-0.3000,-100.0000,-0.0010,-0.3000,-100.0000,-0.0010,13.3621,52.4266,0.0200,0.0700
29.2527,44.9086,12.3887,0.0829,-0.0000,0.1200,0.4200,0.0000,0.0000,-0.3022,-0.4462,-0.0004,996,1502,1507,1500,2008,1000,1505,1000,1000,1010,1005,1000,1013,-0.0334,0.0061,-0.0369,-0.0259,0.0129,0.9989,0.1436,0.7488,-0.1443,-0.7480,1.0029,0.0404,0.1353,1.0029,0.0404,0.1353,0.3000,0.0600,0.0002,0,-0.3000,-100.0000,-0.0010,-0.3000,-100.0000,-0.0010,13.3926,52.4588,0.0200,0.0700
29.2218,44.8815,12.3672,0.0000,-0.0000,0.1200,0.4200,0.0000,0.0000,-0.3018,-0.4459,-0.0005,998,1504,1507,1501,2008,1000,1505,1000,1000,1010,1005,1000,1013,-0.1152,-0.0234,0.0094,-0.0257,0.0149,0.9977,0.1435,0.7482,-0.1446,-0.7471,1.0029,0.0404,0.1353,1.0029,0.0404,0.1353,0.3000,0.0600,0.0002,0,-0.3000,-100.0000,-0.0010,-0.3000,-100.0000,-0.0010,13.4231,52.4911,0.0200,0.0700
29.1916,44.8544,12.3466,0.0829,-0.0000,0.1200,0.4200,0.0000,0.0000,-0.3017,-0.4457,-0.0007,996,1502,1507,1500,2008,1000,1505,1000,1000,1010,1005,1000,1013,0.0019,0.0649,0.0742,-0.0243,0.0135,0.9999,0.1433,0.7481,-0.1448,-0.7466,1.0029,0.0404,0.1353,1.0029,0.0404,0.1353,0.3000,0.0600,0.0002,0,-0.3000,-100.0000,-0.0010,-0.3000,-100.0000,-0.0010,13.4535,52.5233,0.0200,0.0700
29.1620,44.8270,12.3264,0.0000,-0.0000,0.1200,0.4200,0.0000,0.0000,-0.3013,-0.4453,-0.0008,996,1502,1507,1500,2008,1000,1505,1000,1000,1010,1005,1000,1013,-0.0102,-0.0160,0.0895,-0.0237,0.0126,1.0042,0.1432,0.7474,-0.1448,-0.7459,1.0029,0.0404,0.1353,1.0029,0.0404,0.1353,0.3000,0.0600,0.0002,0,-0.3000,-100.0000,-0.0010,-0.3000,-100.0000,-0.0010,13.4840,52.5556,0.0200,0.0700
29.1323,44.7994,12.3060,0.0829,-0.0000,0.1200,0.4200,0.0000,0.0000,-0.3010,-0.4451,-0.0006,996,1502,1507,1500,2008,1000,1505,1000,1000,1010,1005,1000,1013,-0.0244,0.0265,0.0457,-0.0237,0.0140,1.0049,0.1434,0.7468,-0.1447,-0.7455,1.0029,0.0404,0.1353,1.0029,0.0404,0.1353,0.3000,0.0600,0.0002,0,-0.3000,-100.0000,-0.0010,-0.3000,-100.0000,-0.0010,13.5145,52.5878,0.0200,0.0700
29.1028,44.7720,12.2858,0.0000,-0.0000,0.1200,0.4200,0.0000,0.0000,-0.3008,-0.4448,-0.0008,996,1502,1507,1500,2008,1000,1505,1000,1000,1010,1005,1000,1013,-0.0038,0.0257,0.0932,-0.0249,0.0126,0.9996,0.1432,0.7464,-0.1449,-0.7448,1.0029,0.0404,0.1353,1.0029,0.0404,0.1353,0.3000,0.0600,0.0002,0,-0.3000,-100.0000,-0.0010,-0.3000,-100.0000,-0.0010,13.5449,52.6200,0.0200,0.0700
29.0731,44.7447,12.2651,0.0000,-0.0000,0.1200,0.4200,0.0000,0.0000,-0.3004,-0.4445,-0.0006,996,1502,1507,1500,2008,1000,1505,1000,1000,1010,1005,1000,1013,-0.0249,-0.0203,0.0494,-0.0257,0.0138,0.9978,0.1434,0.7456,-0.1447,-0.7443,1.0029,0.0404,0.1353,1.0029,0.0404,0.1353,0.3000,0.0600,0.0002,0,-0.3000,-100.0000,-0.0010,-0.3000,-100.0000,-0.0010,13.5754,52.6523,0.0200,0.0700
29.0422,44.7174,12.2432,0.0000,-0.0000,0.1200,0.4200,0.0000,0.0000,-0.3001,-0.4443,-0.0005,998,1504,1507,1501,2008,1000,1505,1000,1000,1010,1005,1000,1013,-0.0159,0.0250,-0.0092,-0.0279,0.0130,1.0038,0.1436,0.7449,-0.1446,-0.7439,1.0029,0.0404,0.1353,1.0029,0.0404,0.1353,0.3000,0.0600,0.0002,0,-0.3000,-100.0000,-0.0010,-0.3000,-100.0000,-0.0010,13.6058,52.6845,0.0200,0.0700
29.0119,44.6905,12.2219,0.0000,-0.0000,0.1200,0.4200,0.0000,0.0000,-0.2998,-0.4440,-0.0004,996,1502,1507,1500,2008,1000,1505,1000,1000,1010,1005,1000,1013,-0.0411,0.0183,-0.0364,-0.0244,0.0139,1.0020,0.1438,0.7442,-0.1446,-0.7434,1.0029,0.0404,0.1353,1.0029,0.0404,0.1353,0.3000,0.0600,0.0002,0,-0.3000,-100.0000,-0.0010,-0.3000,-100.0000,-0.0010,13.6362,52.7167,0.0200,0.0700
28.9811,44.6635,12.2005,0.0829,-0.0000,0.1200,0.4200,0.0000,0.0000,-0.2995,-0.4437,-0.0005,996,1502,1507,1500,2008,1000,1505,1000,1000,1010,1005,1000,1013,-0.0369,0.0219,0.0164,-0.0219,0.0137,1.0022,0.1437,0.7438,-0.1448,-0.7427,1.0029,0.0404,0.1353,1.0029,0.0404,0.1353,0.3000,0.0600,0.0002,0,-0.3000,-100.0000,-0.0010,-0.3000,-100.0000,-0.0010,13.6666,52.7489,0.0200,0.0700
28.9512,44.6365,12.1799,0.0829,-0.0000,0.1200,0.4200,0.0000,0.0000,-0.2992,-0.4434,-0.0006,996,1502,1507,1500,2008,1000,1505,1000,1000,1010,1005,1000,1013,-0.0292,-0.0003,0.0462,-0.0234,0.0141,1.0020,0.1436,0.7433,-0.1449,-0.7420,1.0029,0.0404,0.1353,1.0029,0.0404,0.1353,0.3000,0.0600,0.0002,0,-0.3000,-100.0000,-0.0010,-0.3000,-100.0000,-0.0010,13.6970,52.7811,0.0200,0.0700
28.9213,44.6089,12.1598,0.0829,-0.0000,0.1200,0.4200,0.0000,0.0000,-0.2989,-0.4432,-0.0009,996,1502,1507,1500,2008,1000,1505,1000,1000,1010,1005,1000,1013,-0.0511,0.0633,0.1269,-0.0251,0.0162,1.0019,0.1435,0.7430,-0.1452,-0.7412,1.0029,0.0404,0.1353,1.0029,0.0404,0.1353,0.3000,0.0600,0.0002,0,-0.3000,-100.0000,-0.0010,-0.3000,-100.0000,-0.0010,13.7274,52.8133,0.0200,0.0700
28.8918,44.5804,12.1398,0.0000,-0.0821,0.1200,0.4200,0.0000,0.0000,-0.2986,-0.4428,-0.0009,996,1502,1507,1500,2008,1000,1505,1000,1000,1010,1005,1000,1013,-0.0413,-0.0290,0.1182,-0.0236,0.0128,1.0013,0.1434,0.7423,-0.1451,-0.7405,1.0029,0.0404,0.1353,1.0029,0.0404,0.1353,0.3000,0.0600,0.0002,0,-0.3000,-100.0000,-0.0010,-0.3000,-100.0000,-0.0010,13.7578,52.8455,0.0200,0.0700
28.8627,44.5529,12.1202,0.0000,-0.0000,0.1200,0.4200,0.0000,0.0000,-0.2983,-0.4427,-0.0008,998,1504,1507,1500,2008,1000,1505,1000,1000,1010,1005,1000,1013,-0.0465,0.0674,0.0870,-0.0259,0.0162,1.0053,0.1436,0.7417,-0.1452,-0.7402,1.0029,0.0404,0.1353,1.0029,0.0404,0.1353,0.3000,0.0600,0.0002,0,-0.3000,-100.0000,-0.0010,-0.3000,-100.0000,-0.0010,13.7882,52.8778,0.0200,0.0700
28.8333,44.5259,12.1005,0.0829,-0.0821,0.1200,0.4200,0.0000,0.0000,-0.2980,-0.4424,-0.0008,996,1502,1507,1500,2008,1000,1505,1000,1000,1010,1005,1000,1013,-0.0594,0.0487,0.0856,-0.0268,0.0133,1.0003,0.1436,0.7411,-0.1452,-0.7396,1.0029,0.0404,0.1353,1.0029,0.0404,0.1353,0.3000,0.0600,0.0002,0,-0.3000,-100.0000,-0.0010,-0.3000,-100.0000,-0.0010,13.8186,52.9100,0.0200,0.0700
28.8036,44.4983,12.0805,0.0000,-0.0000,0.1200,0.4200,0.0000,0.0000,-0.2978,-0.4421,-0.0007,996,1502,1507,1500,2008,1000,1505,1000,1000,1010,1005,1000,1013,0.0270,0.0154,0.0650,-0.0247,0.0125,1.0025,0.1436,0.7406,-0.1450,-0.7392,1.0029,0.0404,0.1353,1.0029,0.0404,0.1353,0.3000,0.0600,0.0002,0,-0.3000,-100.0000,-0.0010,-0.3000,-100.0000,-0.0010,13.8489,52.9421,0.0200,0.0700
28.7744,44.4710,12.0606,0.0000,-0.0821,0.1200,0.4200,0.0000,0.0000,-0.2974,-0.4418,-0.0006,996,1502,1507,1500,2008,1000,1505,1000,1000,1010,1005,1000,1013,-0.0385,0.0516,0.0235,-0.0248,0.0152,0.9999,0.1438,0.7398,-0.1450,-0.7387,1.0029,0.0404,0.1353,1.0029,0.0404,0.1353,0.3000,0.0600,0.0002,0,-0.3000,-100.0000,-0.0010,-0.3000,-100.0000,-0.0010,13.8792,52.9742,0.0200,0.0700
28.7443,44.4437,12.0399,0.0000,-0.0821,0.1200,0.4200,0.0000,0.0000,-0.2972,-0.4415,-0.0004,996,1502,1507,1500,2008,1000,1505,1000,1000,1010,1005,1000,1013,-0.0141,0.0324,-0.0263,-0.0239,0.0156,1.0005,0.1440,0.7391,-0.1448,-0.7383,1.0029,0.0404,0.1353,1.0029,0.0404,0.1353,0.3000,0.0600,0.0002,0,-0.3000,-100.0000,-0.0010,-0.3000,-100.0000,-0.0010,13.9095,53.0062,0.0200,0.0700
28.7143,44.4167,12.0187,0.0000,-0.0821,0.1200,0.4200,0.0000,0.0000,-0.2969,-0.4412,-0.0004,996,1502,1507,1500,2008,1000,1505,1000,1000,1010,1005,1000,1013,0.0291,0.0155,-0.0224,-0.0243,0.0182,1.0036,0.1439,0.7386,-0.1448,-0.7377,1.0029,0.0404,0.1353,1.0029,0.0404,0.1353,0.3000,0.0600,0.0002,0,-0.3000,-100.0000,-0.0010,-0.3000,-100.0000,-0.0010,13.9398,53.0383,0.0200,0.0700
28.6840,44.3897,11.9971,-0.0829,-0.0000,0.1200,0.4200,0.0000,0.0000,-0.2966,-0.4410,-0.0001,998,1504,1507,1501,2008,1000,1505,1000,1000,1010,1005,1000,1013,-0.0101,0.0058,-0.1151,-0.0241,0.0157,1.0000,0.1443,0.7376,-0.1445,-0.7374,1.0029,0.0404,0.1353,1.0029,0.0404,0.1353,0.3000,0.0600,0.0002,0,-0.3000,-100.0000,-0.0010,-0.3000,-100.0000,-0.0010,13.9701,53.0703,0.0200,0.0700
28.6537,44.3625,11.9758,0.0000,0.0821,0.1200,0.4200,0.0000,0.0000,-0.2963,-0.4407,-0.0006,996,1502,1507,1500,2008,1000,1505,1000,1000,1010,1005,1000,1013,-0.0001,0.0299,0.0171,-0.0255,0.0148,1.0002,0.1439,0.7375,-0.1450,-0.7364,1.0029,0.0404,0.1353,1.0029,0.0404,0.1353,0.3000,0.0600,0.0002,0,-0.3000,-100.0000,-0.0010,-0.3000,-100.0000,-0.0010,14.0004,53.1024,0.0200,0.0700
28.6239,44.3352,11.9548,0.0000,-0.0000,0.1200,0.4200,0.0000,0.0000,-0.2960,-0.4404,-0.0003,996,1502,1507,1500,2008,1000,1505,1000,1000,1010,1005,1000,1013,0.0228,0.0203,-0.0435,-0.0238,0.0128,0.9970,0.1441,0.7368,-0.1448,-0.7361,1.0029,0.0404,0.1353,1.0029,0.0404,0.1353,0.3000,0.0600,0.0002,0,-0.3000,-100.0000,-0.0010,-0.3000,-100.0000,-0.0010,14.0307,53.1344,0.0200,0.0700
28.5945,44.3076,11.9344,0.0829,-0.0000,0.1200,0.4200,0.0000,0.0000,-0.2957,-0.4401,-0.0006,996,1502,1507,1500,2008,1000,1505,1000,1000,1010,1005,1000,1013,-0.0022,-0.0473,0.0350,-0.0290,0.0155,1.0058,0.1438,0.7363,-0.1450,-0.7351,1.0029,0.0404,0.1353,1.0029,0.0404,0.1353,0.3000,0.0600,0.0002,0,-0.3000,-100.0000,-0.0010,-0.3000,-100.0000,-0.0010,14.0609,53.1665,0.0200,0.0700
28.5647,44.2799,11.9139,0.0000,-0.0821,0.1200,0.4200,0.0000,0.0000,-0.2953,-0.4398,-0.0005,996,1502,1507,1500,2008,1000,1505,1000,1000,1010,1005,1000,1013,-0.0603,-0.0336,0.0200,-0.0272,0.0138,1.0001,0.1440,0.7356,-0.1451,-0.7346,1.0029,0.0404,0.1353,1.0029,0.0404,0.1353,0.3000,0.0600,0.0002,0,-0.3000,-100.0000,-0.0010,-0.3000,-100.0000,-0.0010,14.0912,53.1986,0.0200,0.0700
28.5345,44.2521,11.8933,0.0000,-0.0821,0.1200,0.4200,0.0000,0.0000,-0.2950,-0.4396,-0.0004,996,1502,1507,1500,2008,1000,1505,1000,1000,1010,1005,1000,1013,-0.0294,-0.0142,-0.0117,-0.0243,0.0133,1.0017,0.1441,0.7350,-0.1450,-0.7341,1.0029,0.0404,0.1353,1.0029,0.0404,0.1353,0.3000,0.0600,0.0002,0,-0.3000,-100.0000,-0.0010,-0.3000,-100.0000,-0.0010,14.1215,53.2306,0.0200,0.0700
28.5044,44.2244,11.8725,0.0000,-0.0000,0.1200,0.4200,0.0000,0.0000,-0.2947,-0.4393,-0.0003,998,1504,1507,1501,2008,1000,1505,1000,1000,1010,1005,1000,1013,-0.0224,0.0198,-0.0498,-0.0302,0.0122,1.0004,0.1443,0.7344,-0.1449,-0.7337,1.0029,0.0404,0.1353,1.0029,0.0404,0.1353,0.3000,0.0600,0.0002,0,-0.3000,-100.0000,-0.0010,-0.3000,-100.0000,-0.0010,14.1517,53.2627,0.0200,0.0700
28.4741,44.1970,11.8511,0.0000,-0.0000,0.1200,0.4200,0.0000,0.0000,-0.2945,-0.4391,-0.0005,996,1502,1507,1500,2008,1000,1505,1000,1000,1010,1005,1000,1013,0.0197,0.0234,-0.0106,-0.0252,0.0158,1.0029,0.1441,0.7340,-0.1451,-0.7331,1.0029,0.0404,0.1353,1.0029,0.0404,0.1353,0.3000,0.0600,0.0002,0,-0.3000,-100.0000,-0.0010,-0.3000,-100.0000,-0.0010,14.1819,53.2947,0.0200,0.0700
28.4443,44.1697,11.8307,0.0000,-0.0000,0.1200,0.4200,0.0000,0.0000,-0.2941,-0.4388,-0.0006,996,1502,1507,1500,2008,1000,1505,1000,1000,1010,1005,1000,1013,-0.0248,0.0316,0.0278,-0.0265,0.0132,1.0009,0.1440,0.7335,-0.1453,-0.7323,1.0029,0.0404,0.1353,1.0029,0.0404,0.1353,0.3000,0.0600,0.0002,0,-0.3000,-100.0000,-0.0010,-0.3000,-100.0000,-0.0010,14.2122,53.3268,0.0200,0.0700
28.4146,44.1424,11.8107,0.0000,-0.0821,0.1200,0.4200,0.0000,0.0000,-0.2938,-0.4386,-0.0003,996,1502,1507,1500,2008,1000,1505,1000,1000,1010,1005,1000,1013,-0.0353,0.0742,-0.0311,-0.0248,0.0125,0.9996,0.1444,0.7327,-0.1451,-0.7320,1.0029,0.0404,0.1353,1.0029,0.0404,0.1353,0.3000,0.0600,0.0002,0,-0.3000,-100.0000,-0.0010,-0.3000,-100.0000,-0.0010,14.2424,53.3589,0.0200,0.0700
28.3846,44.1146,11.7898,0.0000,-0.0821,0.1200,0.4200,0.0000,0.0000,-0.2936,-0.4382,-0.0005,996,1502,1507,1500,2008,1000,1505,1000,1000,1010,1005,1000,1013,0.0045,-0.0328,0.0023,-0.0256,0.0129,1.0003,0.1441,0.7322,-0.1451,-0.7312,1.0029,0.0404,0.1353,1.0029,0.0404,0.1353,0.3000,0.0600,0.0002,0,-0.3000,-100.0000,-0.0010,-0.3000,-100.0000,-0.0010,14.2727,53.3909,0.0200,0.0700
28.3548,44.0867,11.7694,0.0000,-0.0000,0.1200,0.4200,0.0000,0.0000,-0.2932,-0.4379,-0.0005,996,1502,1507,1500,2008,1000,1505,1000,1000,1010,1005,1000,1013,-0.0306,0.0014,0.0261,-0.0260,0.0127,1.0024,0.1442,0.7317,-0.1452,-0.7306,1.0029,0.0404,0.1353,1.0029,0.0404,0.1353,0.3000,0.0600,0.0002,0,-0.3000,-100.0000,-0.0010,-0.3000,-100.0000,-0.0010,14.3029,53.4230,0.0200,0.0700
28.3251,44.0590,11.7494,0.0000,-0.1642,0.1200,0.4200,0.0000,0.0000,-0.2929,-0.4376,-0.0007,998,1504,1507,1501,2008,1000,1505,1000,1000,1010,1005,1000,1013,-0.0360,-0.0050,0.0548,-0.0248,0.0158,1.0033,0.1440,0.7312,-0.1454,-0.7299,1.0029,0.0404,0.1353,1.0029,0.0404,0.1353,0.3000,0.0600,0.0002,0,-0.3000,-100.0000,-0.0010,-0.3000,-100.0000,-0.0010,14.3331,53.4551,0.0200,0.0700
28.2956,44.0308,11.7297,0.0000,-0.0000,0.1200,0.4200,0.0000,0.0000,-0.2926,-0.4374,-0.0006,996,1502,1507,1500,2008,1000,1505,1000,1000,1010,1005,1000,1013,-0.0587,0.0309,0.0349,-0.0260,0.0157,1.0011,0.1442,0.7306,-0.1454,-0.7294,1.0029,0.0404,0.1353,1.0029,0.0404,0.1353,0.3000,0.0600,0.0002,0,-0.3000,-100.0000,-0.0010,-0.3000,-100.0000,-0.0010,14.3633,53.4871,0.0200,0.0700
28.2654,44.0025,11.7092,0.0000,-0.0821,0.1200,0.4200,0.0000,0.0000,-0.2923,-0.4370,-0.0007,996,1502,1507,1500,2008,1000,1505,1000,1000,1010,1005,1000,1013,-0.0773,-0.0223,0.0550,-0.0261,0.0145,0.9994,0.1441,0.7300,-0.1455,-0.7286,1.0029,0.0404,0.1353,1.0029,0.0404,0.1353,0.3000,0.0600,0.0002,0,-0.3000,-100.0000,-0.0010,-0.3000,-100.0000,-0.0010,14.3935,53.5192,0.0200,0.0700
28.2354,43.9747,11.6887,0.0000,-0.0000,0.1200,0.4200,0.0000,0.0000,-0.2920,-0.4368,-0.0005,996,1502,1507,1500,2008,1000,1505,1000,1000,1010,1005,1000,1013,-0.0491,0.0043,-0.0126,-0.0245,0.0162,1.0027,0.1443,0.7293,-0.1453,-0.7283,1.0029,0.0404,0.1353,1.0029,0.0404,0.1353,0.3000,0.0600,0.0002,0,-0.3000,-100.0000,-0.0010,-0.3000,-100.0000,-0.0010,14.4237,53.5513,0.0200,0.0700
28.2051,43.9471,11.6683,0.0829,-0.0000,0.1200,0.4200,0.0000,0.0000,-0.2917,-0.4365,-0.0007,996,1502,1507,1500,2008,1000,1505,1000,1000,1010,1005,1000,1013,-0.0619,0.0239,0.0561,-0.0268,0.0159,1.0034,0.1441,0.7290,-0.1456,-0.7275,1.0029,0.0404,0.1353,1.0029,0.0404,0.1353,0.3000,0.0600,0.0002,0,-0.3000,-100.0000,-0.0010,-0.3000,-100.0000,-0.0010,14.4539,53.5834,0.0200,0.0700
28.1754,43.9194,11.6480,-0.0829,-0.0821,0.1200,0.4200,0.0000,0.0000,-0.2914,-0.4362,-0.0004,996,1502,1507,1500,2008,1000,1505,1000,1000,1010,1005,1000,1013,-0.0181,-0.0082,-0.0185,-0.0255,0.0159,1.0005,0.1444,0.7281,-0.1452,-0.7272,1.0029,0.0404,0.1353,1.0029,0.0404,0.1353,0.3000,0.0600,0.0002,0,-0.3000,-100.0000,-0.0010,-0.3000,-100.0000,-0.0010,14.4840,53.6154,0.0200,0.0700
28.1455,43.8917,11.6277,0.0000,-0.0821,0.1200,0.4200,0.0000,0.0000,-0.2911,-0.4360,-0.0006,998,1504,1507,1501,2008,1000,1505,1000,1000,1010,1005,1000,1013,-0.0294,-0.0004,0.0456,-0.0249,0.0144,1.0070,0.1442,0.7277,-0.1455,-0.7265,1.0029,0.0404,0.1353,1.0029,0.0404,0.1353,0.3000,0.0600,0.0002,0,-0.3000,-100.0000,-0.0010,-0.3000,-100.0000,-0.0010,14.5142,53.6475,0.0200,0.0700
28.1159,43.8637,11.6076,0.0000,-0.0000,0.1200,0.4200,0.0000,0.0000,-0.2908,-0.4357,-0.0006,996,1502,1507,1500,2008,1000,1505,1000,1000,1010,1005,1000,1013,-0.0160,-0.0142,0.0227,-0.0278,0.0157,1.0015,0.1442,0.7271,-0.1454,-0.7259,1.0029,0.0404,0.1353,1.0029,0.0404,0.1353,0.3000,0.0600,0.0002,0,-0.3000,-100.0000,-0.0010,-0.3000,-100.0000,-0.0010,14.5444,53.6795,0.0200,0.0700
28.0863,43.8360,11.5874,0.0000,-0.0000,0.1200,0.4200,0.0000,0.0000,-0.2906,-0.4354,-0.0004,996,1502,1507,1500,2008,1000,1505,1000,1000,1010,1005,1000,1013,0.0116,-0.0012,-0.0407,-0.0266,0.0137,1.0012,0.1444,0.7264,-0.1452,-0.7256,1.0029,0.0404,0.1353,1.0029,0.0404,0.1353,0.3000,0.0600,0.0002,0,-0.3000,-100.0000,-0.0010,-0.3000,-100.0000,-0.0010,14.5745,53.7115,0.0200,0.0700
28.0570,43.8083,11.5678,0.1657,-0.0821,0.1200,0.4200,0.0000,0.0000,-0.2902,-0.4351,-0.0006,996,1502,1507,1500,2008,1000,1505,1000,1000,1010,1005,1000,1013,-0.0283,0.0029,0.0581,-0.0241,0.0177,1.0016,0.1443,0.7260,-0.1455,-0.7247,1.0029,0.0404,0.1353,1.0029,0.0404,0.1353,0.3000,0.0600,0.0002,0,-0.3000,-100.0000,-0.0010,-0.3000,-100.0000,-0.0010,14.6046,53.7435,0.0200,0.0700
28.0271,43.7803,11.5475,0.0000,-0.0000,0.1200,0.4200,0.0000,0.0000,-0.2899,-0.4348,-0.0004,996,1502,1507,1500,2008,1000,1505,1000,1000,1010,1005,1000,1013,-0.0617,-0.0034,-0.0242,-0.0251,0.0157,1.0042,0.1445,0.7252,-0.1454,-0.7243,1.0029,0.0404,0.1353,1.0029,0.0404,0.1353,0.3000,0.0600,0.0002,0,-0.3000,-100.0000,-0.0010,-0.3000,-100.0000,-0.0010,14.6347,53.7756,0.0200,0.0700
27.9972,43.7519,11.5270,0.0000,-0.0000,0.1200,0.4200,0.0000,0.0000,-0.2897,-0.4345,-0.0006,996,1502,1507,1500,2008,1000,1505,1000,1000,1010,1005,1000,1013,-0.0143,-0.0454,0.0222,-0.0260,0.0162,1.0032,0.1443,0.7247,-0.1454,-0.7236,1.0029,0.0404,0.1353,1.0029,0.0404,0.1353,0.3000,0.0600,0.0002,0,-0.3000,-100.0000,-0.0010,-0.3000,-100.0000,-0.0010,14.6649,53.8076,0.0200,0.0700
27.9670,43.7239,11.5062,0.0000,-0.0000,0.1200,0.4200,0.0000,0.0000,-0.2893,-0.4342,-0.0003,998,1504,1507,1501,2008,1000,1505,1000,1000,1010,1005,1000,1013,-0.0548,-0.0340,-0.0529,-0.0257,0.0131,0.9967,0.1446,0.7239,-0.1453,-0.7232,1.0029,0.0404,0.1353,1.0029,0.0404,0.1353,0.3000,0.0600,0.0002,0,-0.3000,-100.0000,-0.0010,-0.3000,-100.0000,-0.0010,14.6949,53.8396,0.0200,0.0700
27.9371,43.6960,11.4858,0.0000,-0.0821,0.1200,0.4200,0.0000,0.0000,-0.2890,-0.4341,-0.0005,996,1502,1507,1500,2008,1000,1505,1000,1000,1010,1005,1000,1013,-0.0761,0.0764,0.0052,-0.0285,0.0148,0.9987,0.1446,0.7236,-0.1456,-0.7226,1.0029,0.0404,0.1353,1.0029,0.0404,0.1353,0.3000,0.0600,0.0002,0,-0.3000,-100.0000,-0.0010,-0.3000,-100.0000,-0.0010,14.7250,53.8715,0.0200,0.0700
27.9076,43.6686,11.4652,0.0000,-0.0821,0.1200,0.4200,0.0000,0.0000,-0.2888,-0.4337,-0.0005,996,1502,1507,1500,2008,1000,1505,1000,1000,1010,1005,1000,1013,-0.0111,-0.0370,-0.0275,-0.0281,0.0147,0.9983,0.1444,0.7229,-0.1454,-0.7220,1.0029,0.0404,0.1353,1.0029,0.0404,0.1353,0.3000,0.0600,0.0002,0,-0.3000,-100.0000,-0.0010,-0.3000,-100.0000,-0.0010,14.7551,53.9035,0.0200,0.0700
27.8778,43.6405,11.4446,0.0000,-0.0000,0.1200,0.4200,0.0000,0.0000,-0.2884,-0.4335,-0.0008,996,1502,1507,1500,2008,1000,1505,1000,1000,1010,1005,1000,1013,-0.0243,0.0197,0.0727,-0.0228,0.0139,1.0006,0.1442,0.7227,-0.1458,-0.7211,1.0029,0.0404,0.1353,1.0029,0.0404,0.1353,0.3000,0.0600,0.0002,0,-0.3000,-100.0000,-0.0010,-0.3000,-100.0000,-0.0010,14.7851,53.9355,0.0200,0.0700
27.8480,43.6122,11.4244,0.0000,-0.0000,0.1200,0.4200,0.0000,0.0000,-0.2881,-0.4332,-0.0004,996,1502,1507,1500,2008,1000,1505,1000,1000,1010,1005,1000,1013,-0.0469,0.0216,-0.0252,-0.0255,0.0147,0.9997,0.1446,0.7217,-0.1455,-0.7209,1.0029,0.0404,0.1353,1.0029,0.0404,0.1353,0.3000,0.0600,0.0002,0,-0.3000,-100.0000,-0.0010,-0.3000,-100.0000,-0.0010,14.8152,53.9675,0.0200,0.0700
27.8183,43.5843,11.4044,0.0000,-0.0000,0.1200,0.4200,0.0000,0.0000,-0.2879,-0.4328,-0.0007,996,1502,1507,1500,2008,1000,1505,1000,1000,1010,1005,1000,1013,-0.0127,-0.0234,0.0815,-0.0226,0.0154,1.0007,0.1443,0.7214,-0.1457,-0.7200,1.0029,0.0404,0.1353,1.0029,0.0404,0.1353,0.3000,0.0600,0.0002,0,-0.3000,-100.0000,-0.0010,-0.3000,-100.0000,-0.0010,14.8452,53.9994,0.0200,0.0700
27.7895,43.5561,11.3860,0.0000,-0.0821,0.1200,0.4200,0.0000,0.0000,-0.2876,-0.4327,-0.0008,998,1504,1507,1501,2008,1000,1505,1000,1000,1010,1005,1000,1013,-0.0211,0.0756,0.1015,-0.0241,0.0155,1.0017,0.1444,0.7210,-0.1459,-0.7195,1.0029,0.0404,0.1353,1.0029,0.0404,0.1353,0.3000,0.0600,0.0002,0,-0.3000,-100.0000,-0.0010,-0.3000,-100.0000,-0.0010,14.8752,54.0313,0.0200,0.0700
27.7610,43.5280,11.3670,0.0000,-0.0821,0.1200,0.4200,0.0000,0.0000,-0.2873,-0.4324,-0.0009,996,1502,1507,1500,2008,1000,1505,1000,1000,1010,1005,1000,1013,0.0235,0.0413,0.1305,-0.0237,0.0143,1.0064,0.1441,0.7206,-0.1459,-0.7188,1.0029,0.0404,0.1353,1.0029,0.0404,0.1353,0.3000,0.0600,0.0002,0,-0.3000,-100.0000,-0.0010,-0.3000,-100.0000,-0.0010,14.9052,54.0633,0.0200,0.0700
27.7323,43.5000,11.3475,0.0829,-0.0821,0.1200,0.4200,0.0000,0.0000,-0.2871,-0.4321,-0.0003,996,1502,1507,1500,2008,1000,1505,1000,1000,1010,1005,1000,1013,0.0358,0.0354,-0.0423,-0.0252,0.0176,1.0032,0.1447,0.7195,-0.1454,-0.7188,1.0029,0.0404,0.1353,1.0029,0.0404,0.1353,0.3000,0.0600,0.0002,0,-0.3000,-100.0000,-0.0010,-0.3000,-100.0000,-0.0010,14.9353,54.0953,0.0200,0.0700
27.7029,43.4723,11.3276,-0.0829,-0.0821,0.1200,0.4200,0.0000,0.0000,-0.2867,-0.4319,-0.0005,996,1502,1507,1500,2008,1000,1505,1000,1000,1010,1005,1000,1013,-0.0022,0.0758,0.0037,-0.0256,0.0151,1.0043,0.1447,0.7191,-0.1456,-0.7181,1.0029,0.0404,0.1353,1.0029,0.0404,0.1353,0.3000,0.0600,0.0002,0,-0.3000,-100.0000,-0.0010,-0.3000,-100.0000,-0.0010,14.9653,54.1273,0.0200,0.0700
27.6741,43.4446,11.3080,-0.0829,-0.0000,0.1200,0.4200,0.0000,0.0000,-0.2864,-0.4315,-0.0006,996,1502,1507,1500,2008,1000,1505,1000,1000,1010,1005,1000,1013,-0.0039,0.0456,0.0288,-0.0253,0.0161,1.0005,0.1445,0.7186,-0.1457,-0.7174,1.0029,0.0404,0.1353,1.0029,0.0404,0.1353,0.3000,0.0600,0.0002,0,-0.3000,-100.0000,-0.0010,-0.3000,-100.0000,-0.0010,14.9953,54.1593,0.0200,0.0700
27.6456,43.4169,11.2888,0.0000,-0.0821,0.1200,0.4200,0.0000,0.0000,-0.2862,-0.4313,-0.0006,996,1502,1507,1500,2008,1000,1505,1000,1000,1010,1005,1000,1013,0.0119,0.0949,0.0620,-0.0249,0.0123,1.0032,0.1445,0.7181,-0.1458,-0.7168,1.0029,0.0404,0.1353,1.0029,0.0404,0.1353,0.3000,0.0600,0.0002,0,-0.3000,-100.0000,-0.0010,-0.3000,-100.0000,-0.0010,15.0253,54.1913,0.0200,0.0700
27.6165,43.3889,11.2695,0.0000,-0.0821,0.1200,0.4200,0.0000,0.0000,-0.2858,-0.4310,-0.0007,998,1504,1507,1500,2008,1000,1505,1000,1000,1010,1005,1000,1013,-0.0488,0.0444,0.0526,-0.0252,0.0127,1.0020,0.1445,0.7174,-0.1458,-0.7161,1.0029,0.0404,0.1353,1.0029,0.0404,0.1353,0.3000,0.0600,0.0002,0,-0.3000,-100.0000,-0.0010,-0.3000,-100.0000,-0.0010,15.0553,54.2233,0.0200,0.0700
27.5871,43.3605,11.2495,0.0829,-0.0000,0.1200,0.4200,0.0000,0.0000,-0.2855,-0.4307,-0.0005,996,1502,1507,1500,2008,1000,1505,1000,1000,1010,1005,1000,1013,-0.0114,0.0222,0.0195,-0.0244,0.0133,1.0000,0.1446,0.7167,-0.1456,-0.7157,1.0029,0.0404,0.1353,1.0029,0.0404,0.1353,0.3000,0.0600,0.0002,0,-0.3000,-100.0000,-0.0010,-0.3000,-100.0000,-0.0010,15.0853,54.2553,0.0200,0.0700
27.5577,43.3322,11.2296,0.0000,-0.0000,0.1200,0.4200,0.0000,0.0000,-0.2852,-0.4303,-0.0007,996,1502,1507,1500,2008,1000,1505,1000,1000,1010,1005,1000,1013,-0.0405,-0.0120,0.0532,-0.0254,0.0140,1.0011,0.1445,0.7162,-0.1458,-0.7149,1.0029,0.0404,0.1353,1.0029,0.0404,0.1353,0.3000,0.0600,0.0002,0,-0.3000,-100.0000,-0.0010,-0.3000,-100.0000,-0.0010,15.1152,54.2873,0.0200,0.0700
27.5285,43.3037,11.2101,0.0829,-0.0000,0.1200,0.4200,0.0000,0.0000,-0.2849,-0.4301,-0.0006,996,1502,1507,1500,2008,1000,1505,1000,1000,1010,1005,1000,1013,-0.0542,-0.0064,0.0465,-0.0261,0.0131,1.0005,0.1445,0.7156,-0.1458,-0.7143,1.0029,0.0404,0.1353,1.0029,0.0404,0.1353,0.3000,0.0600,0.0002,0,-0.3000,-100.0000,-0.0010,-0.3000,-100.0000,-0.0010,15.1452,54.3192,0.0200,0.0700
27.4992,43.2755,11.1904,0.0000,-0.0000,0.1200,0.4200,0.0000,0.0000,-0.2847,-0.4298,-0.0005,996,1502,1507,1500,2008,1000,1505,1000,1000,1010,1005,1000,1013,-0.0205,0.0197,0.0054,-0.0284,0.0112,1.0038,0.1446,0.7150,-0.1457,-0.7139,1.0029,0.0404,0.1353,1.0029,0.0404,0.1353,0.3000,0.0600,0.0002,0,-0.3000,-100.0000,-0.0010,-0.3000,-100.0000,-0.0010,15.1752,54.3512,0.0200,0.0700
27.4693,43.2477,11.1698,0.0000,0.0821,0.1200,0.4200,0.0000,0.0000,-0.2844,-0.4296,-0.0006,996,1502,1507,1500,2008,1000,1505,1000,1000,1010,1005,1000,1013,-0.0031,0.0377,0.0168,-0.0261,0.0153,0.9999,0.1446,0.7145,-0.1457,-0.7134,1.0029,0.0404,0.1353,1.0029,0.0404,0.1353,0.3000,0.0600,0.0002,0,-0.3000,-100.0000,-0.0010,-0.3000,-100.0000,-0.0010,15.2051,54.3831,0.0200,0.0700
27.4411,43.2196,11.1508,0.0000,-0.0821,0.1200,0.4200,0.0000,0.0000,-0.2842,-0.4293,-0.0006,998,1504,1507,1501,2008,1000,1505,1000,1000,1010,1005,1000,1013,0.0434,0.0639,0.0326,-0.0258,0.0144,1.0036,0.1445,0.7141,-0.1458,-0.7129,1.0029,0.0404,0.1353,1.0029,0.0404,0.1353,0.3000,0.0600,0.0002,0,-0.3000,-100.0000,-0.0010,-0.3000,-100.0000,-0.0010,15.2350,54.4151,0.0200,0.0700
27.4126,43.1918,11.1317,0.0000,-0.1642,0.1200,0.4200,0.0000,0.0000,-0.2838,-0.4290,-0.0006,996,1502,1507,1500,2008,1000,1505,1000,1000,1010,1005,1000,1013,-0.0151,0.0182,0.0453,-0.0254,0.0138,1.0017,0.1445,0.7134,-0.1458,-0.7121,1.0029,0.0404,0.1353,1.0029,0.0404,0.1353,0.3000,0.0600,0.0002,0,-0.3000,-100.0000,-0.0010,-0.3000,-100.0000,-0.0010,15.2649,54.4470,0.0200,0.0700
27.3842,43.1638,11.1126,0.0000,-0.0821,0.1200,0.4200,0.0000,0.0000,-0.2835,-0.4287,-0.0006,996,1502,1507,1500,2008,1000,1505,1000,1000,1010,1005,1000,1013,-0.0410,0.0174,0.0332,-0.0251,0.0153,0.9967,0.1447,0.7127,-0.1458,-0.7116,1.0029,0.0404,0.1353,1.0029,0.0404,0.1353,0.3000,0.0600,0.0002,0,-0.3000,-100.0000,-0.0010,-0.3000,-100.0000,-0.0010,15.2949,54.4790,0.0200,0.0700
27.3549,43.1356,11.0929,0.0000,-0.0000,0.1200,0.4200,0.0000,0.0000,-0.2832,-0.4284,-0.0005,996,1502,1507,1500,2008,1000,1505,1000,1000,1010,1005,1000,1013,-0.0308,0.0446,0.0030,-0.0249,0.0167,1.0023,0.1447,0.7121,-0.1458,-0.7111,1.0029,0.0404,0.1353,1.0029,0.0404,0.1353,0.3000,0.0600,0.0002,0,-0.3000,-100.0000,-0.0010,-0.3000,-100.0000,-0.0010,15.3248,54.5110,0.0200,0.0700
27.3261,43.1077,11.0738,0.0000,-0.0821,0.1200,0.4200,0.0000,0.0000,-0.2829,-0.4282,-0.0009,996,1502,1507,1500,2008,1000,1505,1000,1000,1010,1005,1000,1013,-0.0247,0.0667,0.1068,-0.0237,0.0153,1.0023,0.1444,0.7120,-0.1461,-0.7103,1.0029,0.0404,0.1353,1.0029,0.0404,0.1353,0.3000,0.0600,0.0002,0,-0.3000,-100.0000,-0.0010,-0.3000,-100.0000,-0.0010,15.3547,54.5429,0.0200,0.0700
27.2978,43.0795,11.0553,0.0000,-0.0000,0.1200,0.4200,0.0000,0.0000,-0.2827,-0.4279,-0.0008,996,1502,1507,1500,2008,1000,1505,1000,1000,1010,1005,1000,1013,-0.0075,0.0858,0.0840,-0.0245,0.0171,1.0050,0.1445,0.7114,-0.1461,-0.7098,1.0029,0.0404,0.1353,1.0029,0.0404,0.1353,0.3000,0.0600,0.0002,0,-0.3000,-100.0000,-0.0010,-0.3000,-100.0000,-0.0010,15.3845,54.5749,0.0200,0.0700
27.2692,43.0513,11.0364,-0.0829,-0.0821,0.1200,0.4200,0.0000,0.0000,-0.2823,-0.4276,-0.0006,998,1504,1507,1501,2008,1000,1505,1000,1000,1010,1005,1000,1013,-0.0225,0.0238,0.0140,-0.0218,0.0180,1.0032,0.1446,0.7105,-0.1458,-0.7093,1.0029,0.0404,0.1353,1.0029,0.0404,0.1353,0.3000,0.0600,0.0002,0,-0.3000,-100.0000,-0.0010,-0.3000,-100.0000,-0.0010,15.4144,54.6069,0.0200,0.0700
27.2397,43.0233,11.0164,-0.0829,-0.0821,0.1200,0.4200,0.0000,0.0000,-0.2821,-0.4273,-0.0004,996,1502,1507,1500,2008,1000,1505,1000,1000,1010,1005,1000,1013,-0.0002,0.0185,-0.0583,-0.0252,0.0156,1.0029,0.1448,0.7097,-0.1456,-0.7090,1.0029,0.0404,0.1353,1.0029,0.0404,0.1353,0.3000,0.0600,0.0002,0,-0.3000,-100.0000,-0.0010,-0.3000,-100.0000,-0.0010,15.4443,54.6388,0.0200,0.0700
27.2100,42.9950,10.9961,0.0000,-0.0000,0.1200,0.4200,0.0000,0.0000,-0.2818,-0.4270,-0.0006,996,1502,1507,1500,2008,1000,1505,1000,1000,1010,1005,1000,1013,-0.0234,0.0017,0.0165,-0.0263,0.0154,1.0010,0.1446,0.7093,-0.1458,-0.7081,1.0029,0.0404,0.1353,1.0029,0.0404,0.1353,0.3000,0.0600,0.0002,0,-0.3000,-100.0000,-0.0010,-0.3000,-100.0000,-0.0010,15.4741,54.6707,0.0200,0.0700
27.1810,42.9668,10.9769,0.0000,-0.0000,0.1200,0.4200,0.0000,0.0000,-0.2815,-0.4268,-0.0005,996,1502,1507,1500,2008,1000,1505,1000,1000,1010,1005,1000,1013,-0.0022,0.0868,0.0021,-0.0255,0.0162,0.9987,0.1449,0.7088,-0.1458,-0.7078,1.0029,0.0404,0.1353,1.0029,0.0404,0.1353,0.3000,0.0600,0.0002,0,-0.3000,-100.0000,-0.0010,-0.3000,-100.0000,-0.0010,15.5039,54.7025,0.0200,0.0700
27.1518,42.9385,10.9575,0.0000,-0.0821,0.1200,0.4200,0.0000,0.0000,-0.2811,-0.4263,-0.0007,996,1502,1507,1500,2008,1000,1505,1000,1000,1010,1005,1000,1013,-0.0744,-0.0450,0.0453,-0.0271,0.0163,1.0019,0.1446,0.7081,-0.1459,-0.7068,1.0029,0.0404,0.1353,1.0029,0.0404,0.1353,0.3000,0.0600,0.0002,0,-0.3000,-100.0000,-0.0010,-0.3000,-100.0000,-0.0010,15.5337,54.7344,0.0200,0.0700
27.1229,42.9095,10.9384,0.0829,-0.0000,0.1200,0.4200,0.0000,0.0000,-0.2809,-0.4261,-0.0007,996,1502,1507,1500,2008,1000,1505,1000,1000,1010,1005,1000,1013,-0.0083,-0.0291,0.0559,-0.0241,0.0138,0.9988,0.1445,0.7076,-0.1459,-0.7063,1.0029,0.0404,0.1353,1.0029,0.0404,0.1353,0.3000,0.0600,0.0002,0,-0.3000,-100.0000,-0.0010,-0.3000,-100.0000,-0.0010,15.5635,54.7663,0.0200,0.0700
27.0934,42.8805,10.9189,0.0000,-0.0000,0.1200,0.4200,0.0000,0.0000,-0.2806,-0.4258,-0.0004,998,1504,1507,1501,2008,1000,1505,1000,1000,1010,1005,1000,1013,-0.0123,-0.0059,-0.0287,-0.0219,0.0129,1.0027,0.1448,0.7068,-0.1456,-0.7060,1.0029,0.0404,0.1353,1.0029,0.0404,0.1353,0.3000,0.0600,0.0002,0,-0.3000,-100.0000,-0.0010,-0.3000,-100.0000,-0.0010,15.5933,54.7982,0.0200,0.0700
27.0646,42.8518,10.8996,0.0000,-0.0821,0.1200,0.4200,0.0000,0.0000,-0.2803,-0.4255,-0.0007,996,1502,1507,1500,2008,1000,1505,1000,1000,1010,1005,1000,1013,-0.0484,0.0007,0.0613,-0.0248,0.0159,0.9985,0.1446,0.7065,-0.1460,-0.7051,1.0029,0.0404,0.1353,1.0029,0.0404,0.1353,0.3000,0.0600,0.0002,0,-0.3000,-100.0000,-0.0010,-0.3000,-100.0000,-0.0010,15.6231,54.8301,0.0200,0.0700
27.0355,42.8230,10.8802,0.0000,-0.0000,0.1200,0.4200,0.0000,0.0000,-0.2800,-0.4252,-0.0004,996,1502,1507,1500,2008,1000,1505,1000,1000,1010,1005,1000,1013,-0.0023,-0.0551,-0.0141,-0.0262,0.0146,1.0024,0.1447,0.7056,-0.1456,-0.7048,1.0029,0.0404,0.1353,1.0029,0.0404,0.1353,0.3000,0.0600,0.0002,0,-0.3000,-100.0000,-0.0010,-0.3000,-100.0000,-0.0010,15.6529,54.8621,0.0200,0.0700
27.0060,42.7942,10.8603,0.0000,-0.0821,0.1200,0.4200,0.0000,0.0000,-0.2797,-0.4250,-0.0006,996,1502,1507,1500,2008,1000,1505,1000,1000,1010,1005,1000,1013,-0.0214,0.0060,0.0199,-0.0268,0.0175,1.0001,0.1446,0.7053,-0.1459,-0.7040,1.0029,0.0404,0.1353,1.0029,0.0404,0.1353,0.3000,0.0600,0.0002,0,-0.3000,-100.0000,-0.0010,-0.3000,-100.0000,-0.0010,15.6827,54.8940,0.0200,0.0700
26.9767,42.7659,10.8406,0.0000,-0.0821,0.1200,0.4200,0.0000,0.0000,-0.2794,-0.4247,-0.0003,996,1502,1507,1500,2008,1000,1505,1000,1000,1010,1005,1000,1013,-0.0429,0.0298,-0.0451,-0.0236,0.0157,0.9996,0.1450,0.7044,-0.1457,-0.7038,1.0029,0.0404,0.1353,1.0029,0.0404,0.1353,0.3000,0.0600,0.0002,0,-0.3000,-100.0000,-0.0010,-0.3000,-100.0000,-0.0010,15.7125,54.9259,0.0200,0.0700
26.9470,42.7371,10.8207,0.0000,-0.0000,0.1200,0.4200,0.0000,0.0000,-0.2791,-0.4243,-0.0006,996,1502,1507,1500,2008,1000,1505,1000,1000,1010,1005,1000,1013,-0.0660,-0.0465,0.0209,-0.0227,0.0153,1.0041,0.1447,0.7039,-0.1458,-0.7028,1.0029,0.0404,0.1353,1.0029,0.0404,0.1353,0.3000,0.0600,0.0002,0,-0.3000,-100.0000,-0.0010,-0.3000,-100.0000,-0.0010,15.7422,54.9578,0.0200,0.0700
26.9175,42.7083,10.8012,-0.0829,-0.0821,0.1200,0.4200,0.0000,0.0000,-0.2788,-0.4240,-0.0006,998,1504,1507,1500,2008,1000,1505,1000,1000,1010,1005,1000,1013,-0.0668,-0.0708,0.0226,-0.0261,0.0138,0.9977,0.1447,0.7033,-0.1458,-0.7022,1.0029,0.0404,0.1353,1.0029,0.0404,0.1353,0.3000,0.0600,0.0002,0,-0.3000,-100.0000,-0.0010,-0.3000,-100.0000,-0.0010,15.7720,54.9897,0.0200,0.0700
26.8883,42.6790,10.7819,0.0000,-0.0000,0.1200,0.4200,0.0000,0.0000,-0.2785,-0.4237,-0.0007,996,1502,1507,1500,2008,1000,1505,1000,1000,1010,1005,1000,1013,-0.0280,-0.0409,0.0701,-0.0249,0.0148,0.9976,0.1445,0.7030,-0.1459,-0.7016,1.0029,0.0404,0.1353,1.0029,0.0404,0.1353,0.3000,0.0600,0.0002,0,-0.3000,-100.0000,-0.0010,-0.3000,-100.0000,-0.0010,15.8017,55.0215,0.0200,0.0700
26.8598,42.6497,10.7627,0.0000,-0.0000,0.1200,0.4200,0.0000,0.0000,-0.2782,-0.4235,-0.0007,996,1502,1507,1500,2008,1000,1505,1000,1000,1010,1005,1000,1013,-0.0187,-0.0114,0.0783,-0.0268,0.0131,0.9987,0.1445,0.7025,-0.1460,-0.7010,1.0029,0.0404,0.1353,1.0029,0.0404,0.1353,0.3000,0.0600,0.0002,0,-0.3000,-100.0000,-0.0010,-0.3000,-100.0000,-0.0010,15.8314,55.0533,0.0200,0.0700
26.8311,42.6207,10.7439,0.0000,-0.0000,0.1200,0.4200,0.0000,0.0000,-0.2780,-0.4232,-0.0005,996,1502,1507,1500,2008,1000,1505,1000,1000,1010,1005,1000,1013,-0.0157,0.0144,0.0291,-0.0259,0.0143,0.9989,0.1447,0.7017,-0.1458,-0.7007,1.0029,0.0404,0.1353,1.0029,0.0404,0.1353,0.3000,0.0600,0.0002,0,-0.3000,-100.0000,-0.0010,-0.3000,-100.0000,-0.0010,15.8611,55.0852,0.0200,0.0700
26.8025,42.5922,10.7252,0.0829,-0.0821,0.1200,0.4200,0.0000,0.0000,-0.2777,-0.4230,-0.0005,996,1502,1507,1500,2008,1000,1505,1000,1000,1010,1005,1000,1013,-0.0091,0.0160,0.0033,-0.0249,0.0157,1.0058,0.1448,0.7012,-0.1458,-0.7001,1.0029,0.0404,0.1353,1.0029,0.0404,0.1353,0.3000,0.0600,0.0002,0,-0.3000,-100.0000,-0.0010,-0.3000,-100.0000,-0.0010,15.8908,55.1170,0.0200,0.0700
26.7738,42.5638,10.7058,0.0000,-0.0000,0.1200,0.4200,0.0000,0.0000,-0.2774,-0.4226,-0.0004,996,1502,1507,1500,2008,1000,1505,1000,1000,1010,1005,1000,1013,-0.0060,-0.0006,-0.0354,-0.0228,0.0155,1.0000,0.1449,0.7004,-0.1456,-0.6997,1.0029,0.0404,0.1353,1.0029,0.0404,0.1353,0.3000,0.0600,0.0002,0,-0.3000,-100.0000,-0.0010,-0.3000,-100.0000,-0.0010,15.9205,55.1488,0.0200,0.0700
26.7447,42.5353,10.6864,0.0000,-0.0821,0.1200,0.4200,0.0000,0.0000,-0.2771,-0.4224,-0.0006,998,1504,1507,1500,2008,1000,1505,1000,1000,1010,1005,1000,1013,-0.0350,0.0471,0.0431,-0.0273,0.0134,1.0014,0.1447,0.7001,-0.1460,-0.6989,1.0029,0.0404,0.1353,1.0029,0.0404,0.1353,0.3000,0.0600,0.0002,0,-0.3000,-100.0000,-0.0010,-0.3000,-100.0000,-0.0010,15.9501,55.1806,0.0200,0.0700
26.7162,42.5060,10.6676,-0.0829,-0.0821,0.1200,0.4200,0.0000,0.0000,-0.2768,-0.4220,-0.0006,996,1502,1507,1500,2008,1000,1505,1000,1000,1010,1005,1000,1013,-0.0059,-0.0587,0.0403,-0.0244,0.0135,1.0012,0.1445,0.6994,-0.1458,-0.6982,1.0029,0.0404,0.1353,1.0029,0.0404,0.1353,0.3000,0.0600,0.0002,0,-0.3000,-100.0000,-0.0010,-0.3000,-100.0000,-0.0010,15.9798,55.2125,0.0200,0.0700
26.6870,42.4771,10.6476,-0.0829,-0.0821,0.1200,0.4200,0.0000,0.0000,-0.2765,-0.4217,-0.0004,996,1502,1507,1500,2008,1000,1505,1000,1000,1010,1005,1000,1013,-0.0062,-0.0336,-0.0322,-0.0253,0.0153,1.0001,0.1448,0.6987,-0.1456,-0.6979,1.0029,0.0404,0.1353,1.0029,0.0404,0.1353,0.3000,0.0600,0.0002,0,-0.3000,-100.0000,-0.0010,-0.3000,-100.0000,-0.0010,16.0094,55.2443,0.0200,0.0700
26.6579,42.4486,10.6278,0.0000,0.0821,0.1200,0.4200,0.0000,0.0000,-0.2762,-0.4215,-0.0004,996,1502,1507,1500,2008,1000,1505,1000,1000,1010,1005,1000,1013,-0.0049,0.0195,-0.0226,-0.0238,0.0128,0.9999,0.1449,0.6982,-0.1457,-0.6973,1.0029,0.0404,0.1353,1.0029,0.0404,0.1353,0.3000,0.0600,0.0002,0,-0.3000,-100.0000,-0.0010,-0.3000,-100.0000,-0.0010,16.0391,55.2761,0.0200,0.0700
26.6289,42.4201,10.6086,0.0000,-0.0821,0.1200,0.4200,0.0000,0.0000,-0.2759,-0.4213,-0.0005,996,1502,1507,1500,2008,1000,1505,1000,1000,1010,1005,1000,1013,-0.0340,0.0465,0.0057,-0.0267,0.0126,0.9990,0.1448,0.6977,-0.1459,-0.6966,1.0029,0.0404,0.1353,1.0029,0.0404,0.1353,0.3000,0.0600,0.0002,0,-0.3000,-100.0000,-0.0010,-0.3000,-100.0000,-0.0010,16.0687,55.3080,0.0200,0.0700
26.6002,42.3911,10.5893,0.0000,-0.0821,0.1200,0.4200,0.0000,0.0000,-0.2757,-0.4210,-0.0006,996,1502,1507,1500,2008,1000,1505,1000,1000,1010,1005,1000,1013,-0.0119,0.0352,0.0578,-0.0266,0.0165,1.0017,0.1447,0.6972,-0.1459,-0.6960,1.0029,0.0404,0.1353,1.0029,0.0404,0.1353,0.3000,0.0600,0.0002,0,-0.3000,-100.0000,-0.0010,-0.3000,-100.0000,-0.0010,16.0983,55.3398,0.0200,0.0700
26.5717,42.3624,10.5704,0.0000,-0.0000,0.1200,0.4200,0.0000,0.0000,-0.2754,-0.4206,-0.0005,998,1504,1507,1501,2008,1000,1505,1000,1000,1010,1005,1000,1013,0.0205,0.0120,-0.0019,-0.0259,0.0138,0.9993,0.1447,0.6965,-0.1457,-0.6956,1.0029,0.0404,0.1353,1.0029,0.0404,0.1353,0.3000,0.0600,0.0002,0,-0.3000,-100.0000,-0.0010,-0.3000,-100.0000,-0.0010,16.1279,55.3715,0.0200,0.0700
26.5428,42.3331,10.5513,-0.1657,-0.0000,0.1200,0.4200,0.0000,0.0000,-0.2750,-0.4204,-0.0006,996,1502,1507,1500,2008,1000,1505,1000,1000,1010,1005,1000,1013,-0.0643,0.0305,0.0418,-0.0255,0.0144,1.0018,0.1448,0.6960,-0.1460,-0.6948,1.0029,0.0404,0.1353,1.0029,0.0404,0.1353,0.3000,0.0600,0.0002,0,-0.3000,-100.0000,-0.0010,-0.3000,-100.0000,-0.0010,16.1575,55.4033,0.0200,0.0700
26.5147,42.3045,10.5333,0.0000,-0.0000,0.1200,0.4200,0.0000,0.0000,-0.2748,-0.4201,-0.0007,996,1502,1507,1500,2008,1000,1505,1000,1000,1010,1005,1000,1013,0.0132,0.0392,0.0595,-0.0238,0.0132,1.0068,0.1446,0.6956,-0.1460,-0.6942,1.0029,0.0404,0.1353,1.0029,0.0404,0.1353,0.3000,0.0600,0.0002,0,-0.3000,-100.0000,-0.0010,-0.3000,-100.0000,-0.0010,16.1871,55.4351,0.0200,0.0700
26.4860,42.2755,10.5142,0.0829,0.0821,0.1200,0.4200,0.0000,0.0000,-0.2745,-0.4197,-0.0007,996,1502,1507,1500,2008,1000,1505,1000,1000,1010,1005,1000,1013,0.0114,-0.0422,0.0765,-0.0253,0.0150,1.0002,0.1445,0.6949,-0.1459,-0.6935,1.0029,0.0404,0.1353,1.0029,0.0404,0.1353,0.3000,0.0600,0.0002,0,-0.3000,-100.0000,-0.0010,-0.3000,-100.0000,-0.0010,16.2166,55.4669,0.0200,0.0700
26.4577,42.2467,10.4954,-0.0829,-0.0000,0.1200,0.4200,0.0000,0.0000,-0.2743,-0.4195,-0.0005,996,1502,1507,1500,2008,1000,1505,1000,1000,1010,1005,1000,1013,0.0306,-0.0070,-0.0027,-0.0228,0.0170,1.0009,0.1447,0.6942,-0.1457,-0.6932,1.0029,0.0404,0.1353,1.0029,0.0404,0.1353,0.3000,0.0600,0.0002,0,-0.3000,-100.0000,-0.0010,-0.3000,-100.0000,-0.0010,16.2462,55.4987,0.0200,0.0700
26.4293,42.2179,10.4768,-0.0829,-0.0821,0.1200,0.4200,0.0000,0.0000,-0.2739,-0.4192,-0.0005,996,1502,1507,1500,2008,1000,1505,1000,1000,1010,1005,1000,1013,-0.0063,0.0128,0.0135,-0.0289,0.0166,1.0008,0.1447,0.6936,-0.1458,-0.6926,1.0029,0.0404,0.1353,1.0029,0.0404,0.1353,0.3000,0.0600,0.0002,0,-0.3000,-100.0000,-0.0010,-0.3000,-100.0000,-0.0010,16.2758,55.5305,0.0200,0.0700
26.4010,42.1893,10.4577,0.0000,-0.0000,0.1200,0.4200,0.0000,0.0000,-0.2737,-0.4189,-0.0006,998,1504,1507,1501,2008,1000,1505,1000,1000,1010,1005,1000,1013,-0.0028,-0.0154,0.0196,-0.0280,0.0148,0.9988,0.1446,0.6931,-0.1458,-0.6919,1.0029,0.0404,0.1353,1.0029,0.0404,0.1353,0.3000,0.0600,0.0002,0,-0.3000,-100.0000,-0.0010,-0.3000,-100.0000,-0.0010,16.3053,55.5624,0.0200,0.0700
26.3722,42.1603,10.4388,0.0000,-0.0000,0.1200,0.4200,0.0000,0.0000,-0.2734,-0.4186,-0.0006,996,1502,1507,1500,2008,1000,1505,1000,1000,1010,1005,1000,1013,0.0245,0.0056,0.0168,-0.0253,0.0129,1.0072,0.1446,0.6926,-0.1458,-0.6914,1.0029,0.0404,0.1353,1.0029,0.0404,0.1353,0.3000,0.0600,0.0002,0,-0.3000,-100.0000,-0.0010,-0.3000,-100.0000,-0.0010,16.3349,55.5942,0.0200,0.0700
26.3436,42.1312,10.4201,0.0000,-0.0000,0.1200,0.4200,0.0000,0.0000,-0.2730,-0.4183,-0.0005,996,1502,1507,1500,2008,1000,1505,1000,1000,1010,1005,1000,1013,-0.0594,-0.0186,0.0141,-0.0231,0.0139,1.0003,0.1448,0.6918,-0.1458,-0.6908,1.0029,0.0404,0.1353,1.0029,0.0404,0.1353,0.3000,0.0600,0.0002,0,-0.3000,-100.0000,-0.0010,-0.3000,-100.0000,-0.0010,16.3644,55.6261,0.0200,0.0700
26.3148,42.1024,10.4013,0.0000,-0.0000,0.1200,0.4200,0.0000,0.0000,-0.2728,-0.4181,-0.0007,996,1502,1507,1500,2008,1000,1505,1000,1000,1010,1005,1000,1013,0.0038,0.0256,0.0549,-0.0240,0.0163,0.9990,0.1446,0.6915,-0.1459,-0.6902,1.0029,0.0404,0.1353,1.0029,0.0404,0.1353,0.3000,0.0600,0.0002,0,-0.3000,-100.0000,-0.0010,-0.3000,-100.0000,-0.0010,16.3940,55.6579,0.0200,0.0700
26.2862,42.0735,10.3823,0.0000,-0.1642,0.1200,0.4200,0.0000,0.0000,-0.2726,-0.4178,-0.0007,996,1502,1507,1500,2008,1000,1505,1000,1000,1010,1005,1000,1013,0.0365,0.0184,0.0622,-0.0253,0.0146,1.0032,0.1445,0.6910,-0.1459,-0.6896,1.0029,0.0404,0.1353,1.0029,0.0404,0.1353,0.3000,0.0600,0.0002,0,-0.3000,-100.0000,-0.0010,-0.3000,-100.0000,-0.0010,16.4235,55.6897,0.0200,0.0700
26.2583,42.0444,10.3639,0.0000,-0.0000,0.1200,0.4200,0.0000,0.0000,-0.2723,-0.4175,-0.0007,996,1502,1507,1500,2008,1000,1505,1000,1000,1010,1005,1000,1013,0.0243,0.0567,0.0805,-0.0250,0.0177,1.0018,0.1445,0.6905,-0.1460,-0.6890,1.0029,0.0404,0.1353,1.0029,0.0404,0.1353,0.3000,0.0600,0.0002,0,-0.3000,-100.0000,-0.0010,-0.3000,-100.0000,-0.0010,16.4530,55.7215,0.0200,0.0700
26.2302,42.0156,10.3457,0.0000,-0.0000,0.1200,0.4200,0.0000,0.0000,-0.2719,-0.4173,-0.0007,998,1504,1507,1500,2008,1000,1505,1000,1000,1010,1005,1000,1013,-0.0136,0.0758,0.0618,-0.0250,0.0141,0.9971,0.1446,0.6899,-0.1460,-0.6885,1.0029,0.0404,0.1353,1.0029,0.0404,0.1353,0.3000,0.0600,0.0002,0,-0.3000,-100.0000,-0.0010,-0.3000,-100.0000,-0.0010,16.4824,55.7533,0.0200,0.0700
26.2026,41.9863,10.3284,0.0000,-0.0821,0.1200,0.4200,0.0000,0.0000,-0.2717,-0.4169,-0.0011,996,1502,1507,1500,2008,1000,1505,1000,1000,1010,1005,1000,1013,0.0082,0.0369,0.1663,-0.0236,0.0150,0.9979,0.1442,0.6896,-0.1463,-0.6875,1.0029,0.0404,0.1353,1.0029,0.0404,0.1353,0.3000,0.0600,0.0002,0,-0.3000,-100.0000,-0.0010,-0.3000,-100.0000,-0.0010,16.5119,55.7850,0.0200,0.0700
26.1750,41.9571,10.3110,0.0000,-0.0000,0.1200,0.4200,0.0000,0.0000,-0.2713,-0.4166,-0.0008,996,1502,1507,1500,2008,1000,1505,1000,1000,1010,1005,1000,1013,-0.0449,0.0428,0.0904,-0.0239,0.0138,0.9999,0.1445,0.6887,-0.1460,-0.6872,1.0029,0.0404,0.1353,1.0029,0.0404,0.1353,0.3000,0.0600,0.0002,0,-0.3000,-100.0000,-0.0010,-0.3000,-100.0000,-0.0010,16.5413,55.8168,0.0200,0.0700
26.1461,41.9278,10.2924,0.0829,-0.0000,0.1200,0.4200,0.0000,0.0000,-0.2710,-0.4163,-0.0007,996,1502,1507,1500,2008,1000,1505,1000,1000,1010,1005,1000,1013,-0.0718,0.0266,0.0676,-0.0240,0.0141,0.9997,0.1446,0.6880,-0.1460,-0.6866,1.0029,0.0404,0.1353,1.0029,0.0404,0.1353,0.3000,0.0600,0.0002,0,-0.3000,-100.0000,-0.0010,-0.3000,-100.0000,-0.0010,16.5708,55.8485,0.0200,0.0700
26.1169,41.8989,10.2730,0.0000,-0.0821,0.1200,0.4200,0.0000,0.0000,-0.2708,-0.4159,-0.0005,996,1502,1507,1500,2008,1000,1505,1000,1000,1010,1005,1000,1013,-0.0460,-0.0243,-0.0168,-0.0243,0.0161,1.0001,0.1447,0.6872,-0.1456,-0.6862,1.0029,0.0404,0.1353,1.0029,0.0404,0.1353,0.3000,0.0600,0.0002,0,-0.3000,-100.0000,-0.0010,-0.3000,-100.0000,-0.0010,16.6002,55.8803,0.0200,0.0700
26.0884,41.8699,10.2542,0.0000,-0.0000,0.1200,0.4200,0.0000,0.0000,-0.2705,-0.4158,-0.0006,996,1502,1507,1500,2008,1000,1505,1000,1000,1010,1005,1000,1013,-0.0152,0.0801,0.0273,-0.0258,0.0161,1.0016,0.1447,0.6869,-0.1459,-0.6857,1.0029,0.0404,0.1353,1.0029,0.0404,0.1353,0.3000,0.0600,0.0002,0,-0.3000,-100.0000,-0.0010,-0.3000,-100.0000,-0.0010,16.6296,55.9121,0.0200,0.0700
26.0601,41.8407,10.2361,0.0000,-0.0000,0.1200,0.4200,0.0000,0.0000,-0.2702,-0.4155,-0.0006,998,1504,1507,1500,2008,1000,1505,1000,1000,1010,1005,1000,1013,-0.0699,0.0434,0.0321,-0.0292,0.0151,1.0025,0.1447,0.6862,-0.1459,-0.6850,1.0029,0.0404,0.1353,1.0029,0.0404,0.1353,0.3000,0.0600,0.0002,0,-0.3000,-100.0000,-0.0010,-0.3000,-100.0000,-0.0010,16.6590,55.9439,0.0200,0.0700
26.0315,41.8115,10.2175,0.0000,-0.0821,0.1200,0.4200,0.0000,0.0000,-0.2700,-0.4151,-0.0008,996,1502,1507,1500,2008,1000,1505,1000,1000,1010,1005,1000,1013,0.0033,-0.0199,0.0810,-0.0282,0.0159,1.0007,0.1443,0.6858,-0.1459,-0.6843,1.0029,0.0404,0.1353,1.0029,0.0404,0.1353,0.3000,0.0600,0.0002,0,-0.3000,-100.0000,-0.0010,-0.3000,-100.0000,-0.0010,16.6884,55.9756,0.0200,0.0700
26.0034,41.7828,10.1990,0.0000,-0.0000,0.1200,0.4200,0.0000,0.0000,-0.2697,-0.4150,-0.0005,996,1502,1507,1500,2008,1000,1505,1000,1000,1010,1005,1000,1013,0.0328,0.1033,-0.0037,-0.0248,0.0162,1.0017,0.1447,0.6852,-0.1457,-0.6842,1.0029,0.0404,0.1353,1.0029,0.0404,0.1353,0.3000,0.0600,0.0002,0,-0.3000,-100.0000,-0.0010,-0.3000,-100.0000,-0.0010,16.7178,56.0074,0.0200,0.0700
25.9749,41.7539,10.1797,0.0829,0.0821,0.1200,0.4200,0.0000,0.0000,-0.2694,-0.4145,-0.0003,996,1502,1507,1500,2008,1000,1505,1000,1000,1010,1005,1000,1013,-0.0092,-0.0445,-0.0612,-0.0265,0.0164,1.0015,0.1448,0.6842,-0.1454,-0.6835,1.0029,0.0404,0.1353,1.0029,0.0404,0.1353,0.3000,0.0600,0.0002,0,-0.3000,-100.0000,-0.0010,-0.3000,-100.0000,-0.0010,16.7471,56.0391,0.0200,0.0700
25.9462,41.7248,10.1606,0.0000,-0.0000,0.1200,0.4200,0.0000,0.0000,-0.2690,-0.4142,-0.0006,996,1502,1507,1500,2008,1000,1505,1000,1000,1010,1005,1000,1013,-0.0564,0.0045,0.0314,-0.0265,0.0141,1.0020,0.1446,0.6838,-0.1458,-0.6827,1.0029,0.0404,0.1353,1.0029,0.0404,0.1353,0.3000,0.0600,0.0002,0,-0.3000,-100.0000,-0.0010,-0.3000,-100.0000,-0.0010,16.7764,56.0709,0.0200,0.0700
25.9179,41.6959,10.1425,0.0000,-0.0821,0.1200,0.4200,0.0000,0.0000,-0.2688,-0.4139,-0.0005,996,1502,1507,1500,2008,1000,1505,1000,1000,1010,1005,1000,1013,-0.0148,-0.0040,0.0190,-0.0252,0.0145,1.0021,0.1446,0.6833,-0.1457,-0.6822,1.0029,0.0404,0.1353,1.0029,0.0404,0.1353,0.3000,0.0600,0.0002,0,-0.3000,-100.0000,-0.0010,-0.3000,-100.0000,-0.0010,16.8058,56.1026,0.0200,0.0700
25.8897,41.6660,10.1243,0.0000,-0.0821,0.1200,0.4200,0.0000,0.0000,-0.2686,-0.4136,-0.0007,998,1504,1507,1501,2008,1000,1505,1000,1000,1010,1005,1000,1013,0.0091,-0.0486,0.0657,-0.0253,0.0158,1.0009,0.1443,0.6829,-0.1458,-0.6814,1.0029,0.0404,0.1353,1.0029,0.0404,0.1353,0.3000,0.0600,0.0002,0,-0.3000,-100.0000,-0.0010,-0.3000,-100.0000,-0.0010,16.8351,56.1343,0.0200,0.0700
25.8610,41.6365,10.1053,0.0000,-0.0000,0.1200,0.4200,0.0000,0.0000,-0.2682,-0.4133,-0.0005,996,1502,1507,1500,2008,1000,1505,1000,1000,1010,1005,1000,1013,-0.0305,-0.0226,-0.0116,-0.0258,0.0135,1.0014,0.1446,0.6820,-0.1456,-0.6811,1.0029,0.0404,0.1353,1.0029,0.0404,0.1353,0.3000,0.0600,0.0002,0,-0.3000,-100.0000,-0.0010,-0.3000,-100.0000,-0.0010,16.8644,56.1661,0.0200,0.0700
25.8324,41.6077,10.0866,0.0000,-0.0000,0.1200,0.4200,0.0000,0.0000,-0.2680,-0.4132,-0.0006,996,1502,1507,1500,2008,1000,1505,1000,1000,1010,1005,1000,1013,-0.0079,0.0717,0.0283,-0.0262,0.0120,0.9985,0.1446,0.6817,-0.1458,-0.6805,1.0029,0.0404,0.1353,1.0029,0.0404,0.1353,0.3000,0.0600,0.0002,0,-0.3000,-100.0000,-0.0010,-0.3000,-100.0000,-0.0010,16.8937,56.1978,0.0200,0.0700
25.8045,41.5791,10.0686,0.0000,-0.0821,0.1200,0.4200,0.0000,0.0000,-0.2677,-0.4128,-0.0005,996,1502,1507,1500,2008,1000,1505,1000,1000,1010,1005,1000,1013,-0.0270,0.0551,0.0094,-0.0289,0.0154,1.0000,0.1447,0.6810,-0.1457,-0.6800,1.0029,0.0404,0.1353,1.0029,0.0404,0.1353,0.3000,0.0600,0.0002,0,-0.3000,-100.0000,-0.0010,-0.3000,-100.0000,-0.0010,16.9230,56.2296,0.0200,0.0700
25.7758,41.5503,10.0503,0.0000,0.0821,0.1200,0.4200,0.0000,0.0000,-0.2674,-0.4125,-0.0007,996,1502,1507,1500,2008,1000,1505,1000,1000,1010,1005,1000,1013,-0.0202,0.0055,0.0614,-0.0232,0.0144,0.9949,0.1445,0.6805,-0.1458,-0.6792,1.0029,0.0404,0.1353,1.0029,0.0404,0.1353,0.3000,0.0600,0.0002,0,-0.3000,-100.0000,-0.0010,-0.3000,-100.0000,-0.0010,16.9523,56.2614,0.0200,0.0700
25.7473,41.5207,10.0316,0.0000,-0.0821,0.1200,0.4200,0.0000,0.0000,-0.2670,-0.4122,-0.0004,996,1502,1507,1500,2008,1000,1505,1000,1000,1010,1005,1000,1013,-0.0655,0.0346,-0.0063,-0.0232,0.0164,1.0026,0.1448,0.6797,-0.1456,-0.6788,1.0029,0.0404,0.1353,1.0029,0.0404,0.1353,0.3000,0.0600,0.0002,0,-0.3000,-100.0000,-0.0010,-0.3000,-100.0000,-0.0010,16.9816,56.2932,0.0200,0.0700
25.7189,41.4916,10.0133,0.0000,-0.0821,0.1200,0.4200,0.0000,0.0000,-0.2668,-0.4120,-0.0005,998,1504,1507,1501,2008,1000,1505,1000,1000,1010,1005,1000,1013,-0.0398,0.0479,-0.0146,-0.0264,0.0136,1.0023,0.1447,0.6792,-0.1456,-0.6783,1.0029,0.0404,0.1353,1.0029,0.0404,0.1353,0.3000,0.0600,0.0002,0,-0.3000,-100.0000,-0.0010,-0.3000,-100.0000,-0.0010,17.0109,56.3250,0.0200,0.0700
25.6908,41.4627,9.9951,0.0000,-0.0000,0.1200,0.4200,0.0000,0.0000,-0.2665,-0.4117,-0.0007,996,1502,1507,1500,2008,1000,1505,1000,1000,1010,1005,1000,1013,-0.0457,0.0708,0.0536,-0.0222,0.0130,0.9992,0.1445,0.6789,-0.1459,-0.6775,1.0029,0.0404,0.1353,1.0029,0.0404,0.1353,0.3000,0.0600,0.0002,0,-0.3000,-100.0000,-0.0010,-0.3000,-100.0000,-0.0010,17.0402,56.3568,0.0200,0.0700
25.6629,41.4335,9.9774,0.0000,-0.0000,0.1200,0.4200,0.0000,0.0000,-0.2663,-0.4113,-0.0007,996,1502,1507,1500,2008,1000,1505,1000,1000,1010,1005,1000,1013,0.0048,-0.0007,0.0749,-0.0264,0.0146,1.0041,0.1443,0.6783,-0.1458,-0.6769,1.0029,0.0404,0.1353,1.0029,0.0404,0.1353,0.3000,0.0600,0.0002,0,-0.3000,-100.0000,-0.0010,-0.3000,-100.0000,-0.0010,17.0695,56.3886,0.0200,0.0700
25.6347,41.4036,9.9589,-0.0829,-0.0821,0.1200,0.4200,0.0000,0.0000,-0.2660,-0.4110,-0.0008,996,1502,1507,1500,2008,1000,1505,1000,1000,1010,1005,1000,1013,-0.0024,-0.0122,0.0693,-0.0264,0.0120,1.0001,0.1442,0.6777,-0.1458,-0.6762,1.0029,0.0404,0.1353,1.0029,0.0404,0.1353,0.3000,0.0600,0.0002,0,-0.3000,-100.0000,-0.0010,-0.3000,-100.0000,-0.0010,17.0987,56.4203,0.0200,0.0700
25.6069,41.3742,9.9411,-0.0829,-0.0000,0.1200,0.4200,0.0000,0.0000,-0.2657,-0.4107,-0.0006,996,1502,1507,1500,2008,1000,1505,1000,1000,1010,1005,1000,1013,-0.0166,0.0098,0.0443,-0.0246,0.0160,1.0009,0.1444,0.6770,-0.1457,-0.6758,1.0029,0.0404,0.1353,1.0029,0.0404,0.1353,0.3000,0.0600,0.0002,0,-0.3000,-100.0000,-0.0010,-0.3000,-100.0000,-0.0010,17.1279,56.4521,0.0200,0.0700
25.5787,41.3448,9.9228,0.0829,-0.0000,0.1200,0.4200,0.0000,0.0000,-0.2654,-0.4105,-0.0006,996,1502,1507,1500,2008,1000,1505,1000,1000,1010,1005,1000,1013,-0.0027,0.0276,0.0214,-0.0256,0.0114,1.0009,0.1444,0.6765,-0.1456,-0.6753,1.0029,0.0404,0.1353,1.0029,0.0404,0.1353,0.3000,0.0600,0.0002,0,-0.3000,-100.0000,-0.0010,-0.3000,-100.0000,-0.0010,17.1572,56.4838,0.0200,0.0700
25.5505,41.3151,9.9045,0.0000,-0.0000,0.1200,0.4200,0.0000,0.0000,-0.2651,-0.4101,-0.0007,998,1504,1507,1501,2008,1000,1505,1000,1000,1010,1005,1000,1013,-0.0039,-0.0298,0.0481,-0.0267,0.0142,0.9997,0.1443,0.6759,-0.1456,-0.6746,1.0029,0.0404,0.1353,1.0029,0.0404,0.1353,0.3000,0.0600,0.0002,0,-0.3000,-100.0000,-0.0010,-0.3000,-100.0000,-0.0010,17.1863,56.5155,0.0200,0.0700
25.5227,41.2854,9.8861,0.0000,-0.0000,0.1200,0.4200,0.0000,0.0000,-0.2649,-0.4099,-0.0003,996,1502,1507,1500,2008,1000,1505,1000,1000,1010,1005,1000,1013,-0.0034,0.0268,-0.0629,-0.0224,0.0173,1.0037,0.1447,0.6750,-0.1453,-0.6744,1.0029,0.0404,0.1353,1.0029,0.0404,0.1353,0.3000,0.0600,0.0002,0,-0.3000,-100.0000,-0.0010,-0.3000,-100.0000,-0.0010,17.2155,56.5472,0.0200,0.0700
25.4938,41.2557,9.8671,0.0000,-0.0821,0.1200,0.4200,0.0000,0.0000,-0.2645,-0.4095,-0.0005,996,1502,1507,1500,2008,1000,1505,1000,1000,1010,1005,1000,1013,-0.0730,-0.0018,-0.0057,-0.0234,0.0150,1.0008,0.1446,0.6745,-0.1455,-0.6735,1.0029,0.0404,0.1353,1.0029,0.0404,0.1353,0.3000,0.0600,0.0002,0,-0.3000,-100.0000,-0.0010,-0.3000,-100.0000,-0.0010,17.2446,56.5788,0.0200,0.0700
25.4658,41.2263,9.8492,0.0000,-0.0821,0.1200,0.4200,0.0000,0.0000,-0.2643,-0.4093,-0.0007,996,1502,1507,1500,2008,1000,1505,1000,1000,1010,1005,1000,1013,-0.0290,0.0648,0.0624,-0.0251,0.0142,1.0010,0.1444,0.6743,-0.1458,-0.6729,1.0029,0.0404,0.1353,1.0029,0.0404,0.1353,0.3000,0.0600,0.0002,0,-0.3000,-100.0000,-0.0010,-0.3000,-100.0000,-0.0010,17.2737,56.6105,0.0200,0.0700
25.4370,41.1974,9.8307,-0.0829,-0.0000,0.1200,0.4200,0.0000,0.0000,-0.2639,-0.4090,-0.0005,996,1502,1507,1500,2008,1000,1505,1000,1000,1010,1005,1000,1013,-0.0554,0.0512,-0.0209,-0.0219,0.0138,0.9997,0.1446,0.6734,-0.1456,-0.6725,1.0029,0.0404,0.1353,1.0029,0.0404,0.1353,0.3000,0.0600,0.0002,0,-0.3000,-100.0000,-0.0010,-0.3000,-100.0000,-0.0010,17.3028,56.6422,0.0200,0.0700
25.4084,41.1676,9.8128,0.0829,-0.0821,0.1200,0.4200,0.0000,0.0000,-0.2636,-0.4087,-0.0006,996,1502,1507,1500,2008,1000,1505,1000,1000,1010,1005,1000,1013,-0.0578,0.0537,0.0295,-0.0239,0.0165,1.0025,0.1445,0.6729,-0.1457,-0.6718,1.0029,0.0404,0.1353,1.0029,0.0404,0.1353,0.3000,0.0600,0.0002,0,-0.3000,-100.0000,-0.0010,-0.3000,-100.0000,-0.0010,17.3319,56.6738,0.0200,0.0700
25.3799,41.1384,9.7946,0.0000,-0.0000,0.1200,0.4200,0.0000,0.0000,-0.2633,-0.4084,-0.0006,998,1504,1507,1500,2008,1000,1505,1000,1000,1010,1005,1000,1013,-0.0603,0.0176,0.0103,-0.0247,0.0138,1.0014,0.1445,0.6723,-0.1456,-0.6712,1.0029,0.0404,0.1353,1.0029,0.0404,0.1353,0.3000,0.0600,0.0002,0,-0.3000,-100.0000,-0.0010,-0.3000,-100.0000,-0.0010,17.3610,56.7054,0.0200,0.0700
25.3515,41.1088,9.7762,0.0000,-0.0821,0.1200,0.4200,0.0000,0.0000,-0.2632,-0.4081,-0.0005,996,1502,1507,1500,2008,1000,1505,1000,1000,1010,1005,1000,1013,0.0084,0.0645,-0.0108,-0.0257,0.0157,0.9995,0.1445,0.6718,-0.1455,-0.6708,1.0029,0.0404,0.1353,1.0029,0.0404,0.1353,0.3000,0.0600,0.0002,0,-0.3000,-100.0000,-0.0010,-0.3000,-100.0000,-0.0010,17.3901,56.7370,0.0200,0.0700
25.3232,41.0796,9.7577,0.0000,-0.0000,0.1200,0.4200,0.0000,0.0000,-0.2629,-0.4078,-0.0005,996,1502,1507,1500,2008,1000,1505,1000,1000,1010,1005,1000,1013,0.0177,-0.0032,0.0025,-0.0253,0.0141,1.0038,0.1443,0.6712,-0.1454,-0.6701,1.0029,0.0404,0.1353,1.0029,0.0404,0.1353,0.3000,0.0600,0.0002,0,-0.3000,-100.0000,-0.0010,-0.3000,-100.0000,-0.0010,17.4191,56.7686,0.0200,0.0700
25.2955,41.0501,9.7394,0.0000,-0.0000,0.1200,0.4200,0.0000,0.0000,-0.2626,-0.4075,-0.0007,996,1502,1507,1500,2008,1000,1505,1000,1000,1010,1005,1000,1013,0.0163,0.0228,0.0477,-0.0294,0.0132,1.0043,0.1442,0.6708,-0.1456,-0.6694,1.0029,0.0404,0.1353,1.0029,0.0404,0.1353,0.3000,0.0600,0.0002,0,-0.3000,-100.0000,-0.0010,-0.3000,-100.0000,-0.0010,17.4481,56.8003,0.0200,0.0700
25.2678,41.0206,9.7217,0.0000,-0.0000,0.1200,0.4200,0.0000,0.0000,-0.2623,-0.4072,-0.0006,996,1502,1507,1500,2008,1000,1505,1000,1000,1010,1005,1000,1013,-0.0062,0.0316,0.0426,-0.0274,0.0153,1.0014,0.1443,0.6701,-0.1455,-0.6689,1.0029,0.0404,0.1353,1.0029,0.0404,0.1353,0.3000,0.0600,0.0002,0,-0.3000,-100.0000,-0.0010,-0.3000,-100.0000,-0.0010,17.4772,56.8319,0.0200,0.0700
25.2401,40.9910,9.7037,0.1657,-0.0821,0.1200,0.4200,0.0000,0.0000,-0.2620,-0.4069,-0.0006,996,1502,1507,1500,2008,1000,1505,1000,1000,1010,1005,1000,1013,0.0165,0.0045,0.0314,-0.0244,0.0155,0.9986,0.1443,0.6695,-0.1454,-0.6684,1.0029,0.0404,0.1353,1.0029,0.0404,0.1353,0.3000,0.0600,0.0002,0,-0.3000,-100.0000,-0.0010,-0.3000,-100.0000,-0.0010,17.5062,56.8635,0.0200,0.0700
25.2129,40.9613,9.6862,0.0000,-0.0000,0.1200,0.4200,0.0000,0.0000,-0.2618,-0.4066,-0.0008,998,1504,1507,1501,2008,1000,1505,1000,1000,1010,1005,1000,1013,0.0311,0.0109,0.0821,-0.0247,0.0161,1.0000,0.1440,0.6692,-0.1456,-0.6676,1.0029,0.0404,0.1353,1.0029,0.0404,0.1353,0.3000,0.0600,0.0002,0,-0.3000,-100.0000,-0.0010,-0.3000,-100.0000,-0.0010,17.5352,56.8952,0.0200,0.0700
25.1853,40.9313,9.6686,0.0000,-0.0821,0.1200,0.4200,0.0000,0.0000,-0.2614,-0.4063,-0.0006,996,1502,1507,1500,2008,1000,1505,1000,1000,1010,1005,1000,1013,-0.0562,0.0048,0.0307,-0.0277,0.0145,1.0026,0.1443,0.6682,-0.1454,-0.6671,1.0029,0.0404,0.1353,1.0029,0.0404,0.1353,0.3000,0.0600,0.0002,0,-0.3000,-100.0000,-0.0010,-0.3000,-100.0000,-0.0010,17.5642,56.9269,0.0200,0.0700
25.1566,40.9018,9.6505,0.0000,-0.0000,0.1200,0.4200,0.0000,0.0000,-0.2611,-0.4060,-0.0004,996,1502,1507,1500,2008,1000,1505,1000,1000,1010,1005,1000,1013,-0.0665,0.0209,-0.0292,-0.0252,0.0145,1.0000,0.1445,0.6675,-0.1453,-0.6667,1.0029,0.0404,0.1353,1.0029,0.0404,0.1353,0.3000,0.0600,0.0002,0,-0.3000,-100.0000,-0.0010,-0.3000,-100.0000,-0.0010,17.5933,56.9586,0.0200,0.0700
25.1286,40.8724,9.6328,0.0000,0.0821,0.1200,0.4200,0.0000,0.0000,-0.2609,-0.4058,-0.0007,996,1502,1507,1500,2008,1000,1505,1000,1000,1010,1005,1000,1013,-0.0279,0.0687,0.0542,-0.0243,0.0175,1.0035,0.1442,0.6673,-0.1456,-0.6660,1.0029,0.0404,0.1353,1.0029,0.0404,0.1353,0.3000,0.0600,0.0002,0,-0.3000,-100.0000,-0.0010,-0.3000,-100.0000,-0.0010,17.6223,56.9903,0.0200,0.0700
25.1007,40.8429,9.6154,0.0000,-0.0000,0.1200,0.4200,0.0000,0.0000,-0.2606,-0.4055,-0.0006,996,1502,1507,1500,2008,1000,1505,1000,1000,1010,1005,1000,1013,-0.0341,0.0588,0.0266,-0.0258,0.0145,1.0007,0.1443,0.6667,-0.1455,-0.6654,1.0029,0.0404,0.1353,1.0029,0.0404,0.1353,0.3000,0.0600,0.0002,0,-0.3000,-100.0000,-0.0010,-0.3000,-100.0000,-0.0010,17.6512,57.0219,0.0200,0.0700
25.0726,40.8131,9.5972,0.0000,-0.0821,0.1200,0.4200,0.0000,0.0000,-0.2603,-0.4050,-0.0007,996,1502,1507,1500,2008,1000,1505,1000,1000,1010,1005,1000,1013,-0.0465,-0.0421,0.0740,-0.0240,0.0136,1.0024,0.1440,0.6661,-0.1455,-0.6646,1.0029,0.0404,0.1353,1.0029,0.0404,0.1353,0.3000,0.0600,0.0002,0,-0.3000,-100.0000,-0.0010,-0.3000,-100.0000,-0.0010,17.6802,57.0536,0.0200,0.0700
25.0452,40.7828,9.5797,0.0000,-0.0821,0.1200,0.4200,0.0000,0.0000,-0.2601,-0.4048,-0.0006,998,1504,1507,1500,2008,1000,1505,1000,1000,1010,1005,1000,1013,0.0365,0.0041,0.0336,-0.0251,0.0155,0.9998,0.1441,0.6655,-0.1452,-0.6643,1.0029,0.0404,0.1353,1.0029,0.0404,0.1353,0.3000,0.0600,0.0002,0,-0.3000,-100.0000,-0.0010,-0.3000,-100.0000,-0.0010,17.7092,57.0853,0.0200,0.0700
25.0175,40.7534,9.5616,0.0829,-0.0821,0.1200,0.4200,0.0000,0.0000,-0.2598,-0.4045,-0.0006,996,1502,1507,1500,2008,1000,1505,1000,1000,1010,1005,1000,1013,0.0008,0.0124,0.0130,-0.0268,0.0153,1.0025,0.1441,0.6649,-0.1453,-0.6637,1.0029,0.0404,0.1353,1.0029,0.0404,0.1353,0.3000,0.0600,0.0002,0,-0.3000,-100.0000,-0.0010,-0.3000,-100.0000,-0.0010,17.7381,57.1169,0.0200,0.0700
24.9893,40.7239,9.5434,0.0000,-0.0821,0.1200,0.4200,0.0000,0.0000,-0.2595,-0.4042,-0.0005,996,1502,1507,1500,2008,1000,1505,1000,1000,1010,1005,1000,1013,-0.0432,0.0287,-0.0192,-0.0263,0.0133,0.9983,0.1443,0.6641,-0.1452,-0.6632,1.0029,0.0404,0.1353,1.0029,0.0404,0.1353,0.3000,0.0600,0.0002,0,-0.3000,-100.0000,-0.0010,-0.3000,-100.0000,-0.0010,17.7670,57.1486,0.0200,0.0700
24.9619,40.6946,9.5257,0.0000,-0.0821,0.1200,0.4200,0.0000,0.0000,-0.2593,-0.4039,-0.0004,996,1502,1507,1500,2008,1000,1505,1000,1000,1010,1005,1000,1013,0.0119,0.0143,-0.0154,-0.0232,0.0129,1.0011,0.1442,0.6636,-0.1451,-0.6627,1.0029,0.0404,0.1353,1.0029,0.0404,0.1353,0.3000,0.0600,0.0002,0,-0.3000,-100.0000,-0.0010,-0.3000,-100.0000,-0.0010,17.7959,57.1802,0.0200,0.0700
24.9340,40.6647,9.5074,0.0829,-0.0821,0.1200,0.4200,0.0000,0.0000,-0.2590,-0.4036,-0.0006,996,1502,1507,1500,2008,1000,1505,1000,1000,1010,1005,1000,1013,0.0214,-0.0006,0.0421,-0.0244,0.0145,1.0019,0.1440,0.6632,-0.1452,-0.6620,1.0029,0.0404,0.1353,1.0029,0.0404,0.1353,0.3000,0.0600,0.0002,0,-0.3000,-100.0000,-0.0010,-0.3000,-100.0000,-0.0010,17.8248,57.2119,0.0200,0.0700
24.9058,40.6353,9.4892,0.0000,-0.0000,0.1200,0.4200,0.0000,0.0000,-0.2586,-0.4034,-0.0004,996,1502,1507,1500,2008,1000,1505,1000,1000,1010,1005,1000,1013,-0.0797,0.0551,-0.0354,-0.0258,0.0157,1.0005,0.1444,0.6624,-0.1452,-0.6615,1.0029,0.0404,0.1353,1.0029,0.0404,0.1353,0.3000,0.0600,0.0002,0,-0.3000,-100.0000,-0.0010,-0.3000,-100.0000,-0.0010,17.8537,57.2436,0.0200,0.0700
24.8769,40.6056,9.4708,-0.0829,-0.0000,0.1200,0.4200,0.0000,0.0000,-0.2583,-0.4031,-0.0004,998,1504,1507,1501,2008,1000,1505,1000,1000,1010,1005,1000,1013,-0.0646,0.0327,-0.0201,-0.0240,0.0135,1.0015,0.1443,0.6618,-0.1452,-0.6609,1.0029,0.0404,0.1353,1.0029,0.0404,0.1353,0.3000,0.0600,0.0002,0,-0.3000,-100.0000,-0.0010,-0.3000,-100.0000,-0.0010,17.8826,57.2752,0.0200,0.0700
24.8484,40.5761,9.4521,0.0000,-0.0000,0.1200,0.4200,0.0000,0.0000,-0.2581,-0.4027,-0.0005,996,1502,1507,1500,2008,1000,1505,1000,1000,1010,1005,1000,1013,-0.0343,-0.0104,-0.0323,-0.0235,0.0162,0.9998,0.1442,0.6612,-0.1451,-0.6603,1.0029,0.0404,0.1353,1.0029,0.0404,0.1353,0.3000,0.0600,0.0002,0,-0.3000,-100.0000,-0.0010,-0.3000,-100.0000,-0.0010,17.9114,57.3069,0.0200,0.0700
24.8205,40.5464,9.4342,0.0000,-0.0821,0.1200,0.4200,0.0000,0.0000,-0.2578,-0.4025,-0.0007,996,1502,1507,1500,2008,1000,1505,1000,1000,1010,1005,1000,1013,0.0015,0.0291,0.0432,-0.0255,0.0158,1.0024,0.1440,0.6609,-0.1453,-0.6596,1.0029,0.0404,0.1353,1.0029,0.0404,0.1353,0.3000,0.0600,0.0002,0,-0.3000,-100.0000,-0.0010,-0.3000,-100.0000,-0.0010,17.9402,57.3385,0.0200,0.0700
24.7928,40.5162,9.4164,0.0000,-0.0000,0.1200,0.4200,0.0000,0.0000,-0.2575,-0.4021,-0.0005,996,1502,1507,1500,2008,1000,1505,1000,1000,1010,1005,1000,1013,-0.0243,-0.0221,-0.0040,-0.0257,0.0158,1.0037,0.1441,0.6601,-0.1450,-0.6591,1.0029,0.0404,0.1353,1.0029,0.0404,0.1353,0.3000,0.0600,0.0002,0,-0.3000,-100.0000,-0.0010,-0.3000,-100.0000,-0.0010,17.9690,57.3701,0.0200,0.0700
24.7648,40.4862,9.3983,-0.0829,-0.0821,0.1200,0.4200,0.0000,0.0000,-0.2573,-0.4018,-0.0006,996,1502,1507,1500,2008,1000,1505,1000,1000,1010,1005,1000,1013,0.0475,0.0056,0.0092,-0.0262,0.0146,1.0055,0.1439,0.6597,-0.1450,-0.6586,1.0029,0.0404,0.1353,1.0029,0.0404,0.1353,0.3000,0.0600,0.0002,0,-0.3000,-100.0000,-0.0010,-0.3000,-100.0000,-0.0010,17.9978,57.4017,0.0200,0.0700
24.7367,40.4562,9.3802,-0.0829,-0.0000,0.1200,0.4200,0.0000,0.0000,-0.2569,-0.4016,-0.0005,996,1502,1507,1500,2008,1000,1505,1000,1000,1010,1005,1000,1013,-0.0412,0.0369,-0.0079,-0.0247,0.0144,1.0001,0.1442,0.6590,-0.1451,-0.6580,1.0029,0.0404,0.1353,1.0029,0.0404,0.1353,0.3000,0.0600,0.0002,0,-0.3000,-100.0000,-0.0010,-0.3000,-100.0000,-0.0010,18.0266,57.4332,0.0200,0.0700
24.7088,40.4265,9.3622,0.0000,-0.0000,0.1200,0.4200,0.0000,0.0000,-0.2567,-0.4012,-0.0004,998,1504,1507,1500,2008,1000,1505,1000,1000,1010,1005,1000,1013,0.0185,0.0088,-0.0332,-0.0265,0.0169,0.9996,0.1441,0.6583,-0.1449,-0.6576,1.0029,0.0404,0.1353,1.0029,0.0404,0.1353,0.3000,0.0600,0.0002,0,-0.3000,-100.0000,-0.0010,-0.3000,-100.0000,-0.0010,18.0553,57.4648,0.0200,0.0700
24.6811,40.3966,9.3440,-0.1657,-0.0000,0.1200,0.4200,0.0000,0.0000,-0.2564,-0.4009,-0.0004,996,1502,1507,1500,2008,1000,1505,1000,1000,1010,1005,1000,1013,0.0155,0.0091,-0.0292,-0.0244,0.0129,1.0040,0.1441,0.6578,-0.1449,-0.6570,1.0029,0.0404,0.1353,1.0029,0.0404,0.1353,0.3000,0.0600,0.0002,0,-0.3000,-100.0000,-0.0010,-0.3000,-100.0000,-0.0010,18.0840,57.4964,0.0200,0.0700
24.6535,40.3663,9.3263,0.0000,-0.0000,0.1200,0.4200,0.0000,0.0000,-0.2561,-0.4006,-0.0008,996,1502,1507,1500,2008,1000,1505,1000,1000,1010,1005,1000,1013,-0.0305,-0.0342,0.0835,-0.0269,0.0162,1.0045,0.1437,0.6574,-0.1452,-0.6559,1.0029,0.0404,0.1353,1.0029,0.0404,0.1353,0.3000,0.0600,0.0002,0,-0.3000,-100.0000,-0.0010,-0.3000,-100.0000,-0.0010,18.1128,57.5280,0.0200,0.0700
24.6260,40.3358,9.3092,0.0829,-0.0821,0.1200,0.4200,0.0000,0.0000,-0.2558,-0.4003,-0.0006,996,1502,1507,1500,2008,1000,1505,1000,1000,1010,1005,1000,1013,-0.0486,0.0158,0.0386,-0.0285,0.0153,0.9999,0.1439,0.6567,-0.1451,-0.6555,1.0029,0.0404,0.1353,1.0029,0.0404,0.1353,0.3000,0.0600,0.0002,0,-0.3000,-100.0000,-0.0010,-0.3000,-100.0000,-0.0010,18.1415,57.5597,0.0200,0.0700
24.5985,40.3056,9.2920,0.0000,-0.0000,0.1200,0.4200,0.0000,0.0000,-0.2556,-0.4001,-0.0006,996,1502,1507,1500,2008,1000,1505,1000,1000,1010,1005,1000,1013,-0.0092,0.0386,0.0301,-0.0235,0.0160,0.9989,0.1439,0.6562,-0.1451,-0.6550,1.0029,0.0404,0.1353,1.0029,0.0404,0.1353,0.3000,0.0600,0.0002,0,-0.3000,-100.0000,-0.0010,-0.3000,-100.0000,-0.0010,18.1703,57.5913,0.0200,0.0700
24.5711,40.2752,9.2748,0.0000,-0.0821,0.1200,0.4200,0.0000,0.0000,-0.2553,-0.3997,-0.0007,996,1502,1507,1500,2008,1000,1505,1000,1000,1010,1005,1000,1013,-0.0098,-0.0116,0.0580,-0.0269,0.0138,0.9966,0.1437,0.6557,-0.1451,-0.6543,1.0029,0.0404,0.1353,1.0029,0.0404,0.1353,0.3000,0.0600,0.0002,0,-0.3000,-100.0000,-0.0010,-0.3000,-100.0000,-0.0010,18.1990,57.6230,0.0200,0.0700
24.5437,40.2450,9.2578,0.0000,-0.0821,0.1200,0.4200,0.0000,0.0000,-0.2550,-0.3994,-0.0008,998,1504,1507,1501,2008,1000,1505,1000,1000,1010,1005,1000,1013,-0.0561,-0.0229,0.0990,-0.0240,0.0130,0.9973,0.1436,0.6552,-0.1452,-0.6535,1.0029,0.0404,0.1353,1.0029,0.0404,0.1353,0.3000,0.0600,0.0002,0,-0.3000,-100.0000,-0.0010,-0.3000,-100.0000,-0.0010,18.2277,57.6547,0.0200,0.0700
24.5160,40.2145,9.2408,0.0000,-0.0000,0.1200,0.4200,0.0000,0.0000,-0.2547,-0.3991,-0.0009,996,1502,1507,1500,2008,1000,1505,1000,1000,1010,1005,1000,1013,-0.0466,0.0022,0.1390,-0.0247,0.0152,1.0027,0.1435,0.6547,-0.1453,-0.6529,1.0029,0.0404,0.1353,1.0029,0.0404,0.1353,0.3000,0.0600,0.0002,0,-0.3000,-100.0000,-0.0010,-0.3000,-100.0000,-0.0010,18.2564,57.6863,0.0200,0.0700
24.4884,40.1842,9.2235,0.0829,-0.0000,0.1200,0.4200,0.0000,0.0000,-0.2545,-0.3988,-0.0007,996,1502,1507,1500,2008,1000,1505,1000,1000,1010,1005,1000,1013,-0.0214,-0.0172,0.0537,-0.0248,0.0146,1.0005,0.1436,0.6539,-0.1450,-0.6525,1.0029,0.0404,0.1353,1.0029,0.0404,0.1353,0.3000,0.0600,0.0002,0,-0.3000,-100.0000,-0.0010,-0.3000,-100.0000,-0.0010,18.2850,57.7179,0.0200,0.0700
24.4607,40.1538,9.2056,0.0000,-0.0000,0.1200,0.4200,0.0000,0.0000,-0.2542,-0.3984,-0.0005,996,1502,1507,1500,2008,1000,1505,1000,1000,1010,1005,1000,1013,0.0065,-0.0310,0.0087,-0.0267,0.0139,1.0015,0.1437,0.6532,-0.1447,-0.6521,1.0029,0.0404,0.1353,1.0029,0.0404,0.1353,0.3000,0.0600,0.0002,0,-0.3000,-100.0000,-0.0010,-0.3000,-100.0000,-0.0010,18.3137,57.7494,0.0200,0.0700
24.4331,40.1238,9.1881,0.0000,-0.0821,0.1200,0.4200,0.0000,0.0000,-0.2539,-0.3982,-0.0005,996,1502,1507,1500,2008,1000,1505,1000,1000,1010,1005,1000,1013,-0.0164,0.0436,0.0021,-0.0261,0.0134,1.0049,0.1438,0.6526,-0.1448,-0.6516,1.0029,0.0404,0.1353,1.0029,0.0404,0.1353,0.3000,0.0600,0.0002,0,-0.3000,-100.0000,-0.0010,-0.3000,-100.0000,-0.0010,18.3423,57.7810,0.0200,0.0700
24.4060,40.0942,9.1710,0.0000,-0.0000,0.1200,0.4200,0.0000,0.0000,-0.2537,-0.3980,-0.0005,996,1502,1507,1500,2008,1000,1505,1000,1000,1010,1005,1000,1013,0.0011,0.1135,0.0071,-0.0225,0.0144,1.0014,0.1438,0.6522,-0.1449,-0.6512,1.0029,0.0404,0.1353,1.0029,0.0404,0.1353,0.3000,0.0600,0.0002,0,-0.3000,-100.0000,-0.0010,-0.3000,-100.0000,-0.0010,18.3709,57.8125,0.0200,0.0700
24.3792,40.0650,9.1543,0.0829,-0.0000,0.1200,0.4200,0.0000,0.0000,-0.2535,-0.3977,-0.0007,998,1504,1507,1501,2008,1000,1505,1000,1000,1010,1005,1000,1013,0.0498,0.1051,0.0718,-0.0253,0.0172,0.9998,0.1436,0.6519,-0.1450,-0.6505,1.0029,0.0404,0.1353,1.0029,0.0404,0.1353,0.3000,0.0600,0.0002,0,-0.3000,-100.0000,-0.0010,-0.3000,-100.0000,-0.0010,18.3995,57.8441,0.0200,0.0700
24.3521,40.0350,9.1370,0.0000,-0.0821,0.1200,0.4200,0.0000,0.0000,-0.2531,-0.3973,-0.0005,996,1502,1507,1500,2008,1000,1505,1000,1000,1010,1005,1000,1013,-0.0231,0.0118,-0.0284,-0.0286,0.0156,1.0003,0.1438,0.6508,-0.1447,-0.6499,1.0029,0.0404,0.1353,1.0029,0.0404,0.1353,0.3000,0.0600,0.0002,0,-0.3000,-100.0000,-0.0010,-0.3000,-100.0000,-0.0010,18.4281,57.8757,0.0200,0.0700
24.3239,40.0049,9.1193,0.0829,-0.0000,0.1200,0.4200,0.0000,0.0000,-0.2527,-0.3969,-0.0005,996,1502,1507,1500,2008,1000,1505,1000,1000,1010,1005,1000,1013,-0.0922,-0.0408,-0.0047,-0.0261,0.0151,1.0014,0.1437,0.6502,-0.1447,-0.6491,1.0029,0.0404,0.1353,1.0029,0.0404,0.1353,0.3000,0.0600,0.0002,0,-0.3000,-100.0000,-0.0010,-0.3000,-100.0000,-0.0010,18.4566,57.9073,0.0200,0.0700
24.2959,39.9745,9.1017,0.0000,-0.0000,0.1200,0.4200,0.0000,0.0000,-0.2526,-0.3967,-0.0006,996,1502,1507,1500,2008,1000,1505,1000,1000,1010,1005,1000,1013,0.0408,-0.0019,0.0357,-0.0251,0.0148,0.9989,0.1434,0.6499,-0.1447,-0.6487,1.0029,0.0404,0.1353,1.0029,0.0404,0.1353,0.3000,0.0600,0.0002,0,-0.3000,-100.0000,-0.0010,-0.3000,-100.0000,-0.0010,18.4852,57.9389,0.0200,0.0700
24.2684,39.9443,9.0843,0.0000,-0.0000,0.1200,0.4200,0.0000,0.0000,-0.2523,-0.3964,-0.0005,996,1502,1507,1500,2008,1000,1505,1000,1000,1010,1005,1000,1013,0.0055,0.0184,-0.0083,-0.0226,0.0132,1.0056,0.1436,0.6492,-0.1446,-0.6482,1.0029,0.0404,0.1353,1.0029,0.0404,0.1353,0.3000,0.0600,0.0002,0,-0.3000,-100.0000,-0.0010,-0.3000,-100.0000,-0.0010,18.5137,57.9704,0.0200,0.0700
24.2409,39.9137,9.0668,-0.0829,-0.0000,0.1200,0.4200,0.0000,0.0000,-0.2520,-0.3960,-0.0006,996,1502,1507,1500,2008,1000,1505,1000,1000,1010,1005,1000,1013,-0.0164,-0.0237,0.0151,-0.0261,0.0129,1.0027,0.1435,0.6486,-0.1446,-0.6475,1.0029,0.0404,0.1353,1.0029,0.0404,0.1353,0.3000,0.0600,0.0002,0,-0.3000,-100.0000,-0.0010,-0.3000,-100.0000,-0.0010,18.5422,58.0020,0.0200,0.0700
24.2134,39.8830,9.0498,0.0000,-0.0000,0.1200,0.4200,0.0000,0.0000,-0.2517,-0.3957,-0.0006,998,1504,1507,1501,2008,1000,1505,1000,1000,1010,1005,1000,1013,-0.0177,-0.0520,0.0253,-0.0283,0.0133,1.0014,0.1434,0.6480,-0.1445,-0.6468,1.0029,0.0404,0.1353,1.0029,0.0404,0.1353,0.3000,0.0600,0.0002,0,-0.3000,-100.0000,-0.0010,-0.3000,-100.0000,-0.0010,18.5707,58.0335,0.0200,0.0700
24.1856,39.8530,9.0319,0.0829,-0.0000,0.1200,0.4200,0.0000,0.0000,-0.2515,-0.3956,-0.0003,996,1502,1507,1500,2008,1000,1505,1000,1000,1010,1005,1000,1013,-0.0002,0.0737,-0.0644,-0.0273,0.0130,1.0005,0.1438,0.6473,-0.1444,-0.6467,1.0029,0.0404,0.1353,1.0029,0.0404,0.1353,0.3000,0.0600,0.0002,0,-0.3000,-100.0000,-0.0010,-0.3000,-100.0000,-0.0010,18.5992,58.0650,0.0200,0.0700
24.1578,39.8229,9.0138,0.0000,-0.0000,0.1200,0.4200,0.0000,0.0000,-0.2511,-0.3952,-0.0004,996,1502,1507,1500,2008,1000,1505,1000,1000,1010,1005,1000,1013,-0.0200,0.0208,-0.0265,-0.0248,0.0110,1.0042,0.1436,0.6468,-0.1445,-0.6459,1.0029,0.0404,0.1353,1.0029,0.0404,0.1353,0.3000,0.0600,0.0002,0,-0.3000,-100.0000,-0.0010,-0.3000,-100.0000,-0.0010,18.6277,58.0966,0.0200,0.0700
24.1299,39.7927,8.9963,0.0000,-0.0821,0.1200,0.4200,0.0000,0.0000,-0.2508,-0.3949,-0.0006,996,1502,1507,1500,2008,1000,1505,1000,1000,1010,1005,1000,1013,-0.0398,0.0210,0.0189,-0.0212,0.0149,1.0084,0.1435,0.6463,-0.1446,-0.6452,1.0029,0.0404,0.1353,1.0029,0.0404,0.1353,0.3000,0.0600,0.0002,0,-0.3000,-100.0000,-0.0010,-0.3000,-100.0000,-0.0010,18.6561,58.1281,0.0200,0.0700
24.1021,39.7621,8.9792,0.0000,-0.0000,0.1200,0.4200,0.0000,0.0000,-0.2505,-0.3946,-0.0006,996,1502,1507,1500,2008,1000,1505,1000,1000,1010,1005,1000,1013,-0.1127,0.0303,0.0486,-0.0243,0.0157,0.9980,0.1435,0.6457,-0.1447,-0.6444,1.0029,0.0404,0.1353,1.0029,0.0404,0.1353,0.3000,0.0600,0.0002,0,-0.3000,-100.0000,-0.0010,-0.3000,-100.0000,-0.0010,18.6845,58.1597,0.0200,0.0700
24.0742,39.7320,8.9620,0.0000,-0.0000,0.1200,0.4200,0.0000,0.0000,-0.2503,-0.3943,-0.0005,996,1502,1507,1500,2008,1000,1505,1000,1000,1010,1005,1000,1013,-0.0376,0.0119,0.0130,-0.0254,0.0166,1.0047,0.1435,0.6451,-0.1445,-0.6440,1.0029,0.0404,0.1353,1.0029,0.0404,0.1353,0.3000,0.0600,0.0002,0,-0.3000,-100.0000,-0.0010,-0.3000,-100.0000,-0.0010,18.7130,58.1913,0.0200,0.0700
24.0469,39.7013,8.9447,0.0000,0.0821,0.1200,0.4200,0.0000,0.0000,-0.2501,-0.3939,-0.0005,998,1504,1507,1500,2008,1000,1505,1000,1000,1010,1005,1000,1013,0.0032,-0.0457,-0.0180,-0.0275,0.0137,1.0042,0.1434,0.6444,-0.1443,-0.6435,1.0029,0.0404,0.1353,1.0029,0.0404,0.1353,0.3000,0.0600,0.0002,0,-0.3000,-100.0000,-0.0010,-0.3000,-100.0000,-0.0010,18.7415,58.2229,0.0200,0.0700
24.0197,39.6712,8.9274,0.0000,-0.0000,0.1200,0.4200,0.0000,0.0000,-0.2498,-0.3937,-0.0006,996,1502,1507,1500,2008,1000,1505,1000,1000,1010,1005,1000,1013,0.0037,0.0494,0.0196,-0.0271,0.0129,1.0013,0.1433,0.6441,-0.1445,-0.6429,1.0029,0.0404,0.1353,1.0029,0.0404,0.1353,0.3000,0.0600,0.0002,0,-0.3000,-100.0000,-0.0010,-0.3000,-100.0000,-0.0010,18.7699,58.2545,0.0200,0.0700
23.9930,39.6408,8.9110,0.0829,-0.0821,0.1200,0.4200,0.0000,0.0000,-0.2496,-0.3934,-0.0008,996,1502,1507,1500,2008,1000,1505,1000,1000,1010,1005,1000,1013,0.0228,0.0445,0.1130,-0.0258,0.0150,0.9982,0.1430,0.6438,-0.1447,-0.6421,1.0029,0.0404,0.1353,1.0029,0.0404,0.1353,0.3000,0.0600,0.0002,0,-0.3000,-100.0000,-0.0010,-0.3000,-100.0000,-0.0010,18.7983,58.2861,0.0200,0.0700
23.9664,39.6101,8.8949,0.0829,-0.0821,0.1200,0.4200,0.0000,0.0000,-0.2493,-0.3931,-0.0008,996,1502,1507,1500,2008,1000,1505,1000,1000,1010,1005,1000,1013,0.0097,0.0249,0.1109,-0.0252,0.0145,1.0051,0.1429,0.6432,-0.1446,-0.6415,1.0029,0.0404,0.1353,1.0029,0.0404,0.1353,0.3000,0.0600,0.0002,0,-0.3000,-100.0000,-0.0010,-0.3000,-100.0000,-0.0010,18.8267,58.3177,0.0200,0.0700
23.9393,39.5795,8.8782,0.0000,-0.0000,0.1200,0.4200,0.0000,0.0000,-0.2489,-0.3928,-0.0007,996,1502,1507,1500,2008,1000,1505,1000,1000,1010,1005,1000,1013,-0.0758,0.0886,0.0487,-0.0240,0.0151,0.9974,0.1433,0.6424,-0.1446,-0.6410,1.0029,0.0404,0.1353,1.0029,0.0404,0.1353,0.3000,0.0600,0.0002,0,-0.3000,-100.0000,-0.0010,-0.3000,-100.0000,-0.0010,18.8550,58.3492,0.0200,0.0700
23.9114,39.5490,8.8612,0.0000,-0.0821,0.1200,0.4200,0.0000,0.0000,-0.2486,-0.3924,-0.0007,996,1502,1507,1500,2008,1000,1505,1000,1000,1010,1005,1000,1013,-0.0822,-0.0338,0.0582,-0.0257,0.0135,1.0018,0.1430,0.6417,-0.1445,-0.6402,1.0029,0.0404,0.1353,1.0029,0.0404,0.1353,0.3000,0.0600,0.0002,0,-0.3000,-100.0000,-0.0010,-0.3000,-100.0000,-0.0010,18.8833,58.3807,0.0200,0.0700
23.8838,39.5182,8.8439,0.0000,-0.0000,0.1200,0.4200,0.0000,0.0000,-0.2484,-0.3921,-0.0006,998,1504,1507,1501,2008,1000,1505,1000,1000,1010,1005,1000,1013,-0.0267,0.0158,0.0114,-0.0248,0.0150,1.0013,0.1432,0.6411,-0.1443,-0.6399,1.0029,0.0404,0.1353,1.0029,0.0404,0.1353,0.3000,0.0600,0.0002,0,-0.3000,-100.0000,-0.0010,-0.3000,-100.0000,-0.0010,18.9116,58.4122,0.0200,0.0700
23.8562,39.4884,8.8267,0.0000,-0.0000,0.1200,0.4200,0.0000,0.0000,-0.2481,-0.3919,-0.0006,996,1502,1507,1500,2008,1000,1505,1000,1000,1010,1005,1000,1013,-0.0628,0.0839,0.0144,-0.0265,0.0148,1.0050,0.1433,0.6405,-0.1444,-0.6394,1.0029,0.0404,0.1353,1.0029,0.0404,0.1353,0.3000,0.0600,0.0002,0,-0.3000,-100.0000,-0.0010,-0.3000,-100.0000,-0.0010,18.9399,58.4438,0.0200,0.0700
23.8291,39.4581,8.8105,0.0829,-0.0000,0.1200,0.4200,0.0000,0.0000,-0.2479,-0.3915,-0.0007,996,1502,1507,1500,2008,1000,1505,1000,1000,1010,1005,1000,1013,-0.0152,0.0322,0.0750,-0.0273,0.0116,1.0011,0.1430,0.6401,-0.1444,-0.6387,1.0029,0.0404,0.1353,1.0029,0.0404,0.1353,0.3000,0.0600,0.0002,0,-0.3000,-100.0000,-0.0010,-0.3000,-100.0000,-0.0010,18.9682,58.4753,0.0200,0.0700
23.8019,39.4273,8.7935,0.0000,-0.0821,0.1200,0.4200,0.0000,0.0000,-0.2476,-0.3912,-0.0006,996,1502,1507,1500,2008,1000,1505,1000,1000,1010,1005,1000,1013,-0.0204,-0.0282,0.0284,-0.0247,0.0159,1.0024,0.1430,0.6393,-0.1442,-0.6381,1.0029,0.0404,0.1353,1.0029,0.0404,0.1353,0.3000,0.0600,0.0002,0,-0.3000,-100.0000,-0.0010,-0.3000,-100.0000,-0.0010,18.9965,58.5068,0.0200,0.0700
23.7744,39.3968,8.7765,0.0000,-0.0000,0.1200,0.4200,0.0000,0.0000,-0.2473,-0.3910,-0.0004,996,1502,1507,1500,2008,1000,1505,1000,1000,1010,1005,1000,1013,0.0010,0.0602,-0.0222,-0.0223,0.0139,1.0014,0.1432,0.6387,-0.1441,-0.6379,1.0029,0.0404,0.1353,1.0029,0.0404,0.1353,0.3000,0.0600,0.0002,0,-0.3000,-100.0000,-0.0010,-0.3000,-100.0000,-0.0010,19.0247,58.5384,0.0200,0.0700
23.7469,39.3667,8.7591,0.0829,-0.0000,0.1200,0.4200,0.0000,0.0000,-0.2470,-0.3906,-0.0006,996,1502,1507,1500,2008,1000,1505,1000,1000,1010,1005,1000,1013,-0.0154,0.0442,0.0210,-0.0267,0.0165,1.0013,0.1430,0.6383,-0.1442,-0.6371,1.0029,0.0404,0.1353,1.0029,0.0404,0.1353,0.3000,0.0600,0.0002,0,-0.3000,-100.0000,-0.0010,-0.3000,-100.0000,-0.0010,19.0529,58.5699,0.0200,0.0700
23.7198,39.3363,8.7423,0.0000,-0.0821,0.1200,0.4200,0.0000,0.0000,-0.2467,-0.3903,-0.0005,998,1504,1507,1501,2008,1000,1505,1000,1000,1010,1005,1000,1013,-0.0325,0.0428,0.0198,-0.0265,0.0135,0.9980,0.1431,0.6376,-0.1441,-0.6365,1.0029,0.0404,0.1353,1.0029,0.0404,0.1353,0.3000,0.0600,0.0002,0,-0.3000,-100.0000,-0.0010,-0.3000,-100.0000,-0.0010,19.0812,58.6014,0.0200,0.0700
23.6924,39.3061,8.7252,-0.0829,-0.0000,0.1200,0.4200,0.0000,0.0000,-0.2465,-0.3900,-0.0005,996,1502,1507,1500,2008,1000,1505,1000,1000,1010,1005,1000,1013,-0.0052,0.0459,-0.0069,-0.0229,0.0132,1.0010,0.1431,0.6370,-0.1440,-0.6361,1.0029,0.0404,0.1353,1.0029,0.0404,0.1353,0.3000,0.0600,0.0002,0,-0.3000,-100.0000,-0.0010,-0.3000,-100.0000,-0.0010,19.1094,58.6330,0.0200,0.0700
23.6650,39.2761,8.7079,0.0000,-0.0000,0.1200,0.4200,0.0000,0.0000,-0.2462,-0.3897,-0.0008,996,1502,1507,1500,2008,1000,1505,1000,1000,1010,1005,1000,1013,-0.0511,-0.0098,0.0576,-0.0246,0.0161,0.9970,0.1427,0.6366,-0.1443,-0.6351,1.0029,0.0404,0.1353,1.0029,0.0404,0.1353,0.3000,0.0600,0.0002,0,-0.3000,-100.0000,-0.0010,-0.3000,-100.0000,-0.0010,19.1375,58.6645,0.0200,0.0700
23.6382,39.2454,8.6916,0.0000,-0.0000,0.1200,0.4200,0.0000,0.0000,-0.2460,-0.3895,-0.0006,996,1502,1507,1500,2008,1000,1505,1000,1000,1010,1005,1000,1013,-0.0001,0.0653,0.0177,-0.0262,0.0152,1.0018,0.1429,0.6360,-0.1441,-0.6349,1.0029,0.0404,0.1353,1.0029,0.0404,0.1353,0.3000,0.0600,0.0002,0,-0.3000,-100.0000,-0.0010,-0.3000,-100.0000,-0.0010,19.1657,58.6960,0.0200,0.0700
23.6109,39.2149,8.6745,0.0000,-0.0000,0.1200,0.4200,0.0000,0.0000,-0.2457,-0.3890,-0.0008,996,1502,1507,1500,2008,1000,1505,1000,1000,1010,1005,1000,1013,0.0193,-0.0167,0.0652,-0.0274,0.0137,0.9998,0.1426,0.6355,-0.1441,-0.6340,1.0029,0.0404,0.1353,1.0029,0.0404,0.1353,0.3000,0.0600,0.0002,0,-0.3000,-100.0000,-0.0010,-0.3000,-100.0000,-0.0010,19.1938,58.7276,0.0200,0.0700
23.5838,39.1838,8.6575,0.0000,-0.0821,0.1200,0.4200,0.0000,0.0000,-0.2454,-0.3887,-0.0004,996,1502,1507,1500,2008,1000,1505,1000,1000,1010,1005,1000,1013,-0.0137,-0.0462,-0.0162,-0.0238,0.0107,1.0010,0.1428,0.6345,-0.1437,-0.6336,1.0029,0.0404,0.1353,1.0029,0.0404,0.1353,0.3000,0.0600,0.0002,0,-0.3000,-100.0000,-0.0010,-0.3000,-100.0000,-0.0010,19.2220,58.7591,0.0200,0.0700
23.5566,39.1528,8.6402,0.0000,-0.0000,0.1200,0.4200,0.0000,0.0000,-0.2452,-0.3884,-0.0008,998,1504,1507,1501,2008,1000,1505,1000,1000,1010,1005,1000,1013,0.0456,-0.0110,0.0877,-0.0247,0.0133,0.9989,0.1424,0.6344,-0.1440,-0.6328,1.0029,0.0404,0.1353,1.0029,0.0404,0.1353,0.3000,0.0600,0.0002,0,-0.3000,-100.0000,-0.0010,-0.3000,-100.0000,-0.0010,19.2501,58.7906,0.0200,0.0700
23.5302,39.1217,8.6244,0.0000,-0.0000,0.1200,0.4200,0.0000,0.0000,-0.2448,-0.3882,-0.0007,996,1502,1507,1500,2008,1000,1505,1000,1000,1010,1005,1000,1013,-0.0243,0.0765,0.0794,-0.0282,0.0121,1.0013,0.1426,0.6338,-0.1441,-0.6323,1.0029,0.0404,0.1353,1.0029,0.0404,0.1353,0.3000,0.0600,0.0002,0,-0.3000,-100.0000,-0.0010,-0.3000,-100.0000,-0.0010,19.2782,58.8221,0.0200,0.0700
23.5037,39.0911,8.6083,0.0829,-0.0000,0.1200,0.4200,0.0000,0.0000,-0.2446,-0.3878,-0.0006,996,1502,1507,1500,2008,1000,1505,1000,1000,1010,1005,1000,1013,0.0000,-0.0060,0.0380,-0.0226,0.0165,1.0005,0.1426,0.6330,-0.1438,-0.6318,1.0029,0.0404,0.1353,1.0029,0.0404,0.1353,0.3000,0.0600,0.0002,0,-0.3000,-100.0000,-0.0010,-0.3000,-100.0000,-0.0010,19.3063,58.8536,0.0200,0.0700
23.4768,39.0597,8.5922,0.0000,-0.0000,0.1200,0.4200,0.0000,0.0000,-0.2442,-0.3875,-0.0009,996,1502,1507,1500,2008,1000,1505,1000,1000,1010,1005,1000,1013,-0.0828,0.0267,0.1303,-0.0269,0.0149,1.0009,0.1424,0.6326,-0.1442,-0.6309,1.0029,0.0404,0.1353,1.0029,0.0404,0.1353,0.3000,0.0600,0.0002,0,-0.3000,-100.0000,-0.0010,-0.3000,-100.0000,-0.0010,19.3344,58.8852,0.0200,0.0700
23.4497,39.0287,8.5759,0.0000,-0.0000,0.1200,0.4200,0.0000,0.0000,-0.2440,-0.3872,-0.0006,996,1502,1507,1500,2008,1000,1505,1000,1000,1010,1005,1000,1013,-0.0390,-0.0077,0.0343,-0.0270,0.0159,1.0003,0.1425,0.6318,-0.1438,-0.6306,1.0029,0.0404,0.1353,1.0029,0.0404,0.1353,0.3000,0.0600,0.0002,0,-0.3000,-100.0000,-0.0010,-0.3000,-100.0000,-0.0010,19.3625,58.9167,0.0200,0.0700
23.4226,38.9981,8.5594,-0.0829,-0.0000,0.1200,0.4200,0.0000,0.0000,-0.2438,-0.3869,-0.0007,996,1502,1507,1500,2008,1000,1505,1000,1000,1010,1005,1000,1013,0.0079,0.0272,0.0519,-0.0240,0.0111,0.9995,0.1424,0.6314,-0.1438,-0.6301,1.0029,0.0404,0.1353,1.0029,0.0404,0.1353,0.3000,0.0600,0.0002,0,-0.3000,-100.0000,-0.0010,-0.3000,-100.0000,-0.0010,19.3905,58.9483,0.0200,0.0700
23.3957,38.9674,8.5434,0.0000,-0.0000,0.1200,0.4200,0.0000,0.0000,-0.2435,-0.3865,-0.0009,998,1504,1507,1500,2008,1000,1505,1000,1000,1010,1005,1000,1013,-0.0174,-0.0363,0.1029,-0.0269,0.0170,1.0004,0.1422,0.6309,-0.1439,-0.6292,1.0029,0.0404,0.1353,1.0029,0.0404,0.1353,0.3000,0.0600,0.0002,0,-0.3000,-100.0000,-0.0010,-0.3000,-100.0000,-0.0010,19.4186,58.9798,0.0200,0.0700
23.3685,38.9357,8.5267,-0.0829,-0.0000,0.1200,0.4200,0.0000,0.0000,-0.2433,-0.3862,-0.0005,996,1502,1507,1500,2008,1000,1505,1000,1000,1010,1005,1000,1013,0.0070,-0.0697,0.0152,-0.0252,0.0139,1.0010,0.1424,0.6300,-0.1434,-0.6289,1.0029,0.0404,0.1353,1.0029,0.0404,0.1353,0.3000,0.0600,0.0002,0,-0.3000,-100.0000,-0.0010,-0.3000,-100.0000,-0.0010,19.4465,59.0113,0.0200,0.0700
23.3413,38.9044,8.5097,0.0000,-0.0000,0.1200,0.4200,0.0000,0.0000,-0.2430,-0.3859,-0.0006,996,1502,1507,1500,2008,1000,1505,1000,1000,1010,1005,1000,1013,0.0212,-0.0587,0.0084,-0.0243,0.0153,1.0032,0.1423,0.6294,-0.1434,-0.6283,1.0029,0.0404,0.1353,1.0029,0.0404,0.1353,0.3000,0.0600,0.0002,0,-0.3000,-100.0000,-0.0010,-0.3000,-100.0000,-0.0010,19.4745,59.0427,0.0200,0.0700
23.3141,38.8738,8.4930,0.0000,-0.0000,0.1200,0.4200,0.0000,0.0000,-0.2427,-0.3857,-0.0006,996,1502,1507,1500,2008,1000,1505,1000,1000,1010,1005,1000,1013,-0.0180,0.0722,0.0351,-0.0247,0.0131,1.0021,0.1424,0.6291,-0.1437,-0.6278,1.0029,0.0404,0.1353,1.0029,0.0404,0.1353,0.3000,0.0600,0.0002,0,-0.3000,-100.0000,-0.0010,-0.3000,-100.0000,-0.0010,19.5025,59.0742,0.0200,0.0700
23.2872,38.8429,8.4765,0.0000,0.0821,0.1200,0.4200,0.0000,0.0000,-0.2424,-0.3853,-0.0005,996,1502,1507,1500,2008,1000,1505,1000,1000,1010,1005,1000,1013,-0.0191,0.0028,-0.0088,-0.0282,0.0133,1.0005,0.1425,0.6282,-0.1434,-0.6273,1.0029,0.0404,0.1353,1.0029,0.0404,0.1353,0.3000,0.0600,0.0002,0,-0.3000,-100.0000,-0.0010,-0.3000,-100.0000,-0.0010,19.5304,59.1056,0.0200,0.0700
23.2602,38.8120,8.4594,0.0000,-0.0000,0.1200,0.4200,0.0000,0.0000,-0.2421,-0.3850,-0.0004,996,1502,1507,1500,2008,1000,1505,1000,1000,1010,1005,1000,1013,-0.0323,-0.0227,-0.0239,-0.0251,0.0166,0.9973,0.1424,0.6275,-0.1433,-0.6267,1.0029,0.0404,0.1353,1.0029,0.0404,0.1353,0.3000,0.0600,0.0002,0,-0.3000,-100.0000,-0.0010,-0.3000,-100.0000,-0.0010,19.5583,59.1371,0.0200,0.0700
23.2327,38.7812,8.4425,0.0829,-0.0000,0.1200,0.4200,0.0000,0.0000,-0.2418,-0.3848,-0.0004,998,1504,1507,1501,2008,1000,1505,1000,1000,1010,1005,1000,1013,-0.0596,0.0410,-0.0295,-0.0259,0.0126,0.9995,0.1425,0.6270,-0.1434,-0.6262,1.0029,0.0404,0.1353,1.0029,0.0404,0.1353,0.3000,0.0600,0.0002,0,-0.3000,-100.0000,-0.0010,-0.3000,-100.0000,-0.0010,19.5862,59.1686,0.0200,0.0700
23.2056,38.7506,8.4262,0.0000,-0.0821,0.1200,0.4200,0.0000,0.0000,-0.2417,-0.3843,-0.0007,996,1502,1507,1500,2008,1000,1505,1000,1000,1010,1005,1000,1013,0.0242,-0.0475,0.0528,-0.0243,0.0126,0.9970,0.1420,0.6267,-0.1433,-0.6253,1.0029,0.0404,0.1353,1.0029,0.0404,0.1353,0.3000,0.0600,0.0002,0,-0.3000,-100.0000,-0.0010,-0.3000,-100.0000,-0.0010,19.6141,59.2001,0.0200,0.0700
23.1788,38.7190,8.4096,0.0829,-0.0000,0.1200,0.4200,0.0000,0.0000,-0.2413,-0.3840,-0.0006,996,1502,1507,1500,2008,1000,1505,1000,1000,1010,1005,1000,1013,-0.0177,-0.0319,0.0543,-0.0262,0.0141,0.9993,0.1421,0.6260,-0.1434,-0.6247,1.0029,0.0404,0.1353,1.0029,0.0404,0.1353,0.3000,0.0600,0.0002,0,-0.3000,-100.0000,-0.0010,-0.3000,-100.0000,-0.0010,19.6419,59.2315,0.0200,0.0700
23.1521,38.6880,8.3930,0.0829,-0.0821,0.1200,0.4200,0.0000,0.0000,-0.2411,-0.3838,-0.0007,996,1502,1507,1500,2008,1000,1505,1000,1000,1010,1005,1000,1013,0.0181,0.0021,0.0630,-0.0260,0.0144,0.9999,0.1419,0.6256,-0.1434,-0.6241,1.0029,0.0404,0.1353,1.0029,0.0404,0.1353,0.3000,0.0600,0.0002,0,-0.3000,-100.0000,-0.0010,-0.3000,-100.0000,-0.0010,19.6698,59.2630,0.0200,0.0700
23.1254,38.6567,8.3766,0.0000,-0.0000,0.1200,0.4200,0.0000,0.0000,-0.2408,-0.3835,-0.0007,996,1502,1507,1500,2008,1000,1505,1000,1000,1010,1005,1000,1013,0.0084,0.0062,0.0664,-0.0255,0.0143,1.0064,0.1419,0.6250,-0.1433,-0.6236,1.0029,0.0404,0.1353,1.0029,0.0404,0.1353,0.3000,0.0600,0.0002,0,-0.3000,-100.0000,-0.0010,-0.3000,-100.0000,-0.0010,19.6976,59.2945,0.0200,0.0700
23.0986,38.6250,8.3597,0.0000,-0.0000,0.1200,0.4200,0.0000,0.0000,-0.2406,-0.3831,-0.0006,996,1502,1507,1500,2008,1000,1505,1000,1000,1010,1005,1000,1013,0.0204,-0.0325,0.0324,-0.0268,0.0139,0.9994,0.1419,0.6243,-0.1431,-0.6231,1.0029,0.0404,0.1353,1.0029,0.0404,0.1353,0.3000,0.0600,0.0002,0,-0.3000,-100.0000,-0.0010,-0.3000,-100.0000,-0.0010,19.7254,59.3260,0.0200,0.0700
23.0716,38.5934,8.3430,0.0829,-0.0000,0.1200,0.4200,0.0000,0.0000,-0.2402,-0.3828,-0.0007,998,1504,1507,1501,2008,1000,1505,1000,1000,1010,1005,1000,1013,-0.0247,-0.0062,0.0655,-0.0270,0.0154,0.9960,0.1419,0.6238,-0.1433,-0.6224,1.0029,0.0404,0.1353,1.0029,0.0404,0.1353,0.3000,0.0600,0.0002,0,-0.3000,-100.0000,-0.0010,-0.3000,-100.0000,-0.0010,19.7531,59.3574,0.0200,0.0700
23.0449,38.5622,8.3267,0.0829,-0.0000,0.1200,0.4200,0.0000,0.0000,-0.2400,-0.3825,-0.0006,996,1502,1507,1500,2008,1000,1505,1000,1000,1010,1005,1000,1013,-0.0314,0.0132,0.0193,-0.0286,0.0147,0.9963,0.1419,0.6231,-0.1432,-0.6219,1.0029,0.0404,0.1353,1.0029,0.0404,0.1353,0.3000,0.0600,0.0002,0,-0.3000,-100.0000,-0.0010,-0.3000,-100.0000,-0.0010,19.7809,59.3888,0.0200,0.0700
23.0175,38.5310,8.3098,0.0000,-0.0821,0.1200,0.4200,0.0000,0.0000,-0.2397,-0.3822,-0.0006,996,1502,1507,1500,2008,1000,1505,1000,1000,1010,1005,1000,1013,-0.0421,-0.0127,0.0112,-0.0242,0.0106,0.9987,0.1419,0.6225,-0.1431,-0.6213,1.0029,0.0404,0.1353,1.0029,0.0404,0.1353,0.3000,0.0600,0.0002,0,-0.3000,-100.0000,-0.0010,-0.3000,-100.0000,-0.0010,19.8086,59.4203,0.0200,0.0700
22.9899,38.5000,8.2927,0.0000,-0.0000,0.1200,0.4200,0.0000,0.0000,-0.2395,-0.3819,-0.0005,996,1502,1507,1500,2008,1000,1505,1000,1000,1010,1005,1000,1013,0.0027,-0.0010,-0.0334,-0.0240,0.0159,1.0015,0.1420,0.6218,-0.1429,-0.6209,1.0029,0.0404,0.1353,1.0029,0.0404,0.1353,0.3000,0.0600,0.0002,0,-0.3000,-100.0000,-0.0010,-0.3000,-100.0000,-0.0010,19.8364,59.4518,0.0200,0.0700
22.9629,38.4684,8.2756,0.0000,-0.1642,0.1200,0.4200,0.0000,0.0000,-0.2392,-0.3815,-0.0004,996,1502,1507,1500,2008,1000,1505,1000,1000,1010,1005,1000,1013,0.0350,-0.0420,-0.0074,-0.0243,0.0143,1.0037,0.1418,0.6212,-0.1427,-0.6203,1.0029,0.0404,0.1353,1.0029,0.0404,0.1353,0.3000,0.0600,0.0002,0,-0.3000,-100.0000,-0.0010,-0.3000,-100.0000,-0.0010,19.8642,59.4833,0.0200,0.0700
22.9365,38.4371,8.2592,0.0000,-0.0821,0.1200,0.4200,0.0000,0.0000,-0.2389,-0.3813,-0.0005,996,1502,1507,1500,2008,1000,1505,1000,1000,1010,1005,1000,1013,-0.0201,0.0034,-0.0148,-0.0227,0.0145,0.9999,0.1419,0.6207,-0.1429,-0.6197,1.0029,0.0404,0.1353,1.0029,0.0404,0.1353,0.3000,0.0600,0.0002,0,-0.3000,-100.0000,-0.0010,-0.3000,-100.0000,-0.0010,19.8919,59.5148,0.0200,0.0700
22.9096,38.4064,8.2424,-0.0829,-0.0000,0.1200,0.4200,0.0000,0.0000,-0.2387,-0.3809,-0.0003,998,1504,1507,1501,2008,1000,1505,1000,1000,1010,1005,1000,1013,0.0202,-0.0292,-0.0705,-0.0266,0.0132,1.0011,0.1420,0.6199,-0.1425,-0.6193,1.0029,0.0404,0.1353,1.0029,0.0404,0.1353,0.3000,0.0600,0.0002,0,-0.3000,-100.0000,-0.0010,-0.3000,-100.0000,-0.0010,19.9196,59.5463,0.0200,0.0700
22.8826,38.3753,8.2254,0.0000,-0.0000,0.1200,0.4200,0.0000,0.0000,-0.2384,-0.3806,-0.0005,996,1502,1507,1500,2008,1000,1505,1000,1000,1010,1005,1000,1013,0.0021,-0.0099,-0.0025,-0.0257,0.0152,1.0014,0.1417,0.6195,-0.1427,-0.6185,1.0029,0.0404,0.1353,1.0029,0.0404,0.1353,0.3000,0.0600,0.0002,0,-0.3000,-100.0000,-0.0010,-0.3000,-100.0000,-0.0010,19.9473,59.5778,0.0200,0.0700
22.8563,38.3440,8.2091,0.0000,-0.0000,0.1200,0.4200,0.0000,0.0000,-0.2382,-0.3804,-0.0007,996,1502,1507,1500,2008,1000,1505,1000,1000,1010,1005,1000,1013,0.0586,0.0410,0.0736,-0.0255,0.0165,1.0010,0.1414,0.6193,-0.1429,-0.6178,1.0029,0.0404,0.1353,1.0029,0.0404,0.1353,0.3000,0.0600,0.0002,0,-0.3000,-100.0000,-0.0010,-0.3000,-100.0000,-0.0010,19.9750,59.6094,0.0200,0.0700
22.8299,38.3123,8.1935,0.0000,-0.0000,0.1200,0.4200,0.0000,0.0000,-0.2378,-0.3800,-0.0006,996,1502,1507,1500,2008,1000,1505,1000,1000,1010,1005,1000,1013,-0.0561,-0.0056,0.0601,-0.0256,0.0148,1.0039,0.1416,0.6184,-0.1429,-0.6171,1.0029,0.0404,0.1353,1.0029,0.0404,0.1353,0.3000,0.0600,0.0002,0,-0.3000,-100.0000,-0.0010,-0.3000,-100.0000,-0.0010,20.0026,59.6409,0.0200,0.0700
22.8031,38.2816,8.1778,0.0000,-0.0000,0.1200,0.4200,0.0000,0.0000,-0.2375,-0.3798,-0.0006,996,1502,1507,1500,2008,1000,1505,1000,1000,1010,1005,1000,1013,-0.0486,0.0565,0.0407,-0.0253,0.0158,0.9989,0.1416,0.6179,-0.1429,-0.6167,1.0029,0.0404,0.1353,1.0029,0.0404,0.1353,0.3000,0.0600,0.0002,0,-0.3000,-100.0000,-0.0010,-0.3000,-100.0000,-0.0010,20.0303,59.6724,0.0200,0.0700
22.7764,38.2505,8.1618,0.0000,-0.0000,0.1200,0.4200,0.0000,0.0000,-0.2373,-0.3794,-0.0007,996,1502,1507,1500,2008,1000,1505,1000,1000,1010,1005,1000,1013,-0.0392,0.0401,0.0710,-0.0276,0.0158,1.0025,0.1414,0.6175,-0.1429,-0.6160,1.0029,0.0404,0.1353,1.0029,0.0404,0.1353,0.3000,0.0600,0.0002,0,-0.3000,-100.0000,-0.0010,-0.3000,-100.0000,-0.0010,20.0579,59.7039,0.0200,0.0700
22.7494,38.2192,8.1464,-0.0829,-0.0000,0.1200,0.4200,0.0000,0.0000,-0.2370,-0.3791,-0.0006,998,1504,1507,1500,2008,1000,1505,1000,1000,1010,1005,1000,1013,-0.0581,0.0495,0.0512,-0.0274,0.0150,0.9989,0.1415,0.6167,-0.1428,-0.6155,1.0029,0.0404,0.1353,1.0029,0.0404,0.1353,0.3000,0.0600,0.0002,0,-0.3000,-100.0000,-0.0010,-0.3000,-100.0000,-0.0010,20.0854,59.7353,0.0200,0.0700
22.7226,38.1885,8.1305,0.0000,-0.0000,0.1200,0.4200,0.0000,0.0000,-0.2367,-0.3789,-0.0006,996,1502,1507,1500,2008,1000,1505,1000,1000,1010,1005,1000,1013,-0.0327,0.0847,0.0164,-0.0262,0.0158,1.0050,0.1416,0.6162,-0.1427,-0.6151,1.0029,0.0404,0.1353,1.0029,0.0404,0.1353,0.3000,0.0600,0.0002,0,-0.3000,-100.0000,-0.0010,-0.3000,-100.0000,-0.0010,20.1130,59.7667,0.0200,0.0700
22.6956,38.1577,8.1141,0.0000,-0.0000,0.1200,0.4200,0.0000,0.0000,-0.2365,-0.3784,-0.0006,996,1502,1507,1500,2008,1000,1505,1000,1000,1010,1005,1000,1013,-0.0196,-0.0338,-0.0060,-0.0262,0.0159,1.0020,0.1414,0.6155,-0.1425,-0.6143,1.0029,0.0404,0.1353,1.0029,0.0404,0.1353,0.3000,0.0600,0.0002,0,-0.3000,-100.0000,-0.0010,-0.3000,-100.0000,-0.0010,20.1405,59.7982,0.0200,0.0700
22.6684,38.1261,8.0974,0.0000,-0.0000,0.1200,0.4200,0.0000,0.0000,-0.2362,-0.3781,-0.0005,996,1502,1507,1500,2008,1000,1505,1000,1000,1010,1005,1000,1013,-0.0103,-0.0138,-0.0125,-0.0290,0.0113,0.9998,0.1414,0.6148,-0.1424,-0.6139,1.0029,0.0404,0.1353,1.0029,0.0404,0.1353,0.3000,0.0600,0.0002,0,-0.3000,-100.0000,-0.0010,-0.3000,-100.0000,-0.0010,20.1680,59.8296,0.0200,0.0700
22.6418,38.0950,8.0814,0.0000,-0.0821,0.1200,0.4200,0.0000,0.0000,-0.2360,-0.3779,-0.0005,996,1502,1507,1500,2008,1000,1505,1000,1000,1010,1005,1000,1013,0.0060,0.0813,0.0175,-0.0239,0.0150,1.0032,0.1414,0.6144,-0.1425,-0.6134,1.0029,0.0404,0.1353,1.0029,0.0404,0.1353,0.3000,0.0600,0.0002,0,-0.3000,-100.0000,-0.0010,-0.3000,-100.0000,-0.0010,20.1956,59.8611,0.0200,0.0700
22.6152,38.0640,8.0656,0.0000,-0.0000,0.1200,0.4200,0.0000,0.0000,-0.2357,-0.3775,-0.0005,996,1502,1507,1500,2008,1000,1505,1000,1000,1010,1005,1000,1013,-0.0267,0.0159,0.0188,-0.0232,0.0152,0.9985,0.1413,0.6137,-0.1424,-0.6127,1.0029,0.0404,0.1353,1.0029,0.0404,0.1353,0.3000,0.0600,0.0002,0,-0.3000,-100.0000,-0.0010,-0.3000,-100.0000,-0.0010,20.2231,59.8927,0.0200,0.0700
22.5887,38.0328,8.0495,-0.1657,-0.0821,0.1200,0.4200,0.0000,0.0000,-0.2355,-0.3772,-0.0005,998,1504,1507,1501,2008,1000,1505,1000,1000,1010,1005,1000,1013,0.0317,0.0082,-0.0157,-0.0251,0.0139,1.0017,0.1413,0.6132,-0.1422,-0.6122,1.0029,0.0404,0.1353,1.0029,0.0404,0.1353,0.3000,0.0600,0.0002,0,-0.3000,-100.0000,-0.0010,-0.3000,-100.0000,-0.0010,20.2505,59.9242,0.0200,0.0700
22.5621,38.0016,8.0333,0.0000,-0.0000,0.1200,0.4200,0.0000,0.0000,-0.2351,-0.3770,-0.0008,996,1502,1507,1500,2008,1000,1505,1000,1000,1010,1005,1000,1013,-0.0609,0.0777,0.0581,-0.0251,0.0160,1.0040,0.1412,0.6128,-0.1427,-0.6113,1.0029,0.0404,0.1353,1.0029,0.0404,0.1353,0.3000,0.0600,0.0002,0,-0.3000,-100.0000,-0.0010,-0.3000,-100.0000,-0.0010,20.2780,59.9557,0.0200,0.0700
22.5348,37.9708,8.0171,-0.0829,-0.0000,0.1200,0.4200,0.0000,0.0000,-0.2348,-0.3766,-0.0004,996,1502,1507,1500,2008,1000,1505,1000,1000,1010,1005,1000,1013,-0.0746,0.0415,-0.0360,-0.0240,0.0145,1.0070,0.1414,0.6119,-0.1423,-0.6110,1.0029,0.0404,0.1353,1.0029,0.0404,0.1353,0.3000,0.0600,0.0002,0,-0.3000,-100.0000,-0.0010,-0.3000,-100.0000,-0.0010,20.3054,59.9871,0.0200,0.0700
22.5083,37.9394,8.0014,0.0000,-0.0000,0.1200,0.4200,0.0000,0.0000,-0.2346,-0.3763,-0.0010,996,1502,1507,1500,2008,1000,1505,1000,1000,1010,1005,1000,1013,-0.0054,0.0130,0.1545,-0.0246,0.0149,1.0028,0.1407,0.6119,-0.1426,-0.6099,1.0029,0.0404,0.1353,1.0029,0.0404,0.1353,0.3000,0.0600,0.0002,0,-0.3000,-100.0000,-0.0010,-0.3000,-100.0000,-0.0010,20.3328,60.0186,0.0200,0.0700
22.4822,37.9077,7.9855,0.0000,-0.0821,0.1200,0.4200,0.0000,0.0000,-0.2344,-0.3759,-0.0006,996,1502,1507,1500,2008,1000,1505,1000,1000,1010,1005,1000,1013,0.0104,-0.0015,0.0105,-0.0245,0.0144,1.0029,0.1410,0.6109,-0.1421,-0.6098,1.0029,0.0404,0.1353,1.0029,0.0404,0.1353,0.3000,0.0600,0.0002,0,-0.3000,-100.0000,-0.0010,-0.3000,-100.0000,-0.0010,20.3602,60.0502,0.0200,0.0700
22.4555,37.8764,7.9693,0.0000,-0.0000,0.1200,0.4200,0.0000,0.0000,-0.2341,-0.3757,-0.0006,996,1502,1507,1500,2008,1000,1505,1000,1000,1010,1005,1000,1013,-0.0351,0.0359,0.0089,-0.0267,0.0140,1.0009,0.1410,0.6103,-0.1422,-0.6092,1.0029,0.0404,0.1353,1.0029,0.0404,0.1353,0.3000,0.0600,0.0002,0,-0.3000,-100.0000,-0.0010,-0.3000,-100.0000,-0.0010,20.3876,60.0817,0.0200,0.0700
22.4288,37.8448,7.9531,0.0000,-0.0000,0.1200,0.4200,0.0000,0.0000,-0.2338,-0.3753,-0.0006,998,1504,1507,1501,2008,1000,1505,1000,1000,1010,1005,1000,1013,0.0016,-0.0468,0.0398,-0.0251,0.0126,1.0009,0.1408,0.6097,-0.1421,-0.6085,1.0029,0.0404,0.1353,1.0029,0.0404,0.1353,0.3000,0.0600,0.0002,0,-0.3000,-100.0000,-0.0010,-0.3000,-100.0000,-0.0010,20.4150,60.1133,0.0200,0.0700
22.4025,37.8137,7.9373,0.0000,-0.0821,0.1200,0.4200,0.0000,0.0000,-0.2336,-0.3751,-0.0005,996,1502,1507,1500,2008,1000,1505,1000,1000,1010,1005,1000,1013,0.0059,0.0655,0.0169,-0.0239,0.0148,0.9978,0.1410,0.6092,-0.1420,-0.6081,1.0029,0.0404,0.1353,1.0029,0.0404,0.1353,0.3000,0.0600,0.0002,0,-0.3000,-100.0000,-0.0010,-0.3000,-100.0000,-0.0010,20.4423,60.1448,0.0200,0.0700
22.3760,37.7827,7.9213,0.0000,-0.0000,0.1200,0.4200,0.0000,0.0000,-0.2332,-0.3747,-0.0006,996,1502,1507,1500,2008,1000,1505,1000,1000,1010,1005,1000,1013,-0.0433,0.0052,0.0317,-0.0273,0.0162,1.0001,0.1409,0.6085,-0.1421,-0.6074,1.0029,0.0404,0.1353,1.0029,0.0404,0.1353,0.3000,0.0600,0.0002,0,-0.3000,-100.0000,-0.0010,-0.3000,-100.0000,-0.0010,20.4696,60.1761,0.0200,0.0700
22.3492,37.7506,7.9054,0.0000,-0.0821,0.1200,0.4200,0.0000,0.0000,-0.2331,-0.3742,-0.0008,996,1502,1507,1500,2008,1000,1505,1000,1000,1010,1005,1000,1013,0.0359,-0.1090,0.0826,-0.0256,0.0114,1.0010,0.1404,0.6081,-0.1419,-0.6066,1.0029,0.0404,0.1353,1.0029,0.0404,0.1353,0.3000,0.0600,0.0002,0,-0.3000,-100.0000,-0.0010,-0.3000,-100.0000,-0.0010,20.4968,60.2075,0.0200,0.0700
22.3227,37.7185,7.8900,0.0000,-0.0000,0.1200,0.4200,0.0000,0.0000,-0.2327,-0.3741,-0.0008,996,1502,1507,1500,2008,1000,1505,1000,1000,1010,1005,1000,1013,-0.0406,0.0060,0.1109,-0.0253,0.0151,1.0049,0.1405,0.6076,-0.1422,-0.6060,1.0029,0.0404,0.1353,1.0029,0.0404,0.1353,0.3000,0.0600,0.0002,0,-0.3000,-100.0000,-0.0010,-0.3000,-100.0000,-0.0010,20.5240,60.2388,0.0200,0.0700
22.2961,37.6868,7.8746,0.0829,-0.0000,0.1200,0.4200,0.0000,0.0000,-0.2325,-0.3738,-0.0008,996,1502,1507,1500,2008,1000,1505,1000,1000,1010,1005,1000,1013,-0.0334,0.0204,0.0873,-0.0236,0.0149,1.0022,0.1405,0.6070,-0.1421,-0.6054,1.0029,0.0404,0.1353,1.0029,0.0404,0.1353,0.3000,0.0600,0.0002,0,-0.3000,-100.0000,-0.0010,-0.3000,-100.0000,-0.0010,20.5512,60.2701,0.0200,0.0700
22.2696,37.6548,7.8593,0.0000,-0.0821,0.1200,0.4200,0.0000,0.0000,-0.2322,-0.3734,-0.0007,998,1504,1507,1501,2008,1000,1505,1000,1000,1010,1005,1000,1013,-0.0334,0.0010,0.0780,-0.0254,0.0137,0.9963,0.1405,0.6063,-0.1420,-0.6049,1.0029,0.0404,0.1353,1.0029,0.0404,0.1353,0.3000,0.0600,0.0002,0,-0.3000,-100.0000,-0.0010,-0.3000,-100.0000,-0.0010,20.5784,60.3015,0.0200,0.0700
22.2431,37.6233,7.8437,0.0000,-0.0821,0.1200,0.4200,0.0000,0.0000,-0.2319,-0.3732,-0.0005,996,1502,1507,1500,2008,1000,1505,1000,1000,1010,1005,1000,1013,-0.0235,0.0482,-0.0102,-0.0261,0.0107,1.0001,0.1407,0.6056,-0.1417,-0.6046,1.0029,0.0404,0.1353,1.0029,0.0404,0.1353,0.3000,0.0600,0.0002,0,-0.3000,-100.0000,-0.0010,-0.3000,-100.0000,-0.0010,20.6056,60.3328,0.0200,0.0700
22.2164,37.5919,7.8277,0.0000,-0.0000,0.1200,0.4200,0.0000,0.0000,-0.2317,-0.3728,-0.0005,996,1502,1507,1500,2008,1000,1505,1000,1000,1010,1005,1000,1013,-0.0352,0.0346,0.0133,-0.0268,0.0128,0.9983,0.1407,0.6050,-0.1417,-0.6040,1.0029,0.0404,0.1353,1.0029,0.0404,0.1353,0.3000,0.0600,0.0002,0,-0.3000,-100.0000,-0.0010,-0.3000,-100.0000,-0.0010,20.6327,60.3642,0.0200,0.0700
22.1899,37.5605,7.8126,0.0000,-0.0000,0.1200,0.4200,0.0000,0.0000,-0.2314,-0.3725,-0.0008,996,1502,1507,1500,2008,1000,1505,1000,1000,1010,1005,1000,1013,-0.0616,-0.0055,0.0991,-0.0274,0.0151,1.0011,0.1403,0.6046,-0.1419,-0.6030,1.0029,0.0404,0.1353,1.0029,0.0404,0.1353,0.3000,0.0600,0.0002,0,-0.3000,-100.0000,-0.0010,-0.3000,-100.0000,-0.0010,20.6598,60.3955,0.0200,0.0700
22.1631,37.5288,7.7968,0.0000,-0.0821,0.1200,0.4200,0.0000,0.0000,-0.2312,-0.3722,-0.0008,996,1502,1507,1500,2008,1000,1505,1000,1000,1010,1005,1000,1013,0.0064,0.0271,0.0748,-0.0281,0.0137,1.0004,0.1402,0.6041,-0.1418,-0.6026,1.0029,0.0404,0.1353,1.0029,0.0404,0.1353,0.3000,0.0600,0.0002,0,-0.3000,-100.0000,-0.0010,-0.3000,-100.0000,-0.0010,20.6869,60.4269,0.0200,0.0700
22.1367,37.4966,7.7809,0.0000,-0.0821,0.1200,0.4200,0.0000,0.0000,-0.2309,-0.3718,-0.0005,996,1502,1507,1500,2008,1000,1505,1000,1000,1010,1005,1000,1013,0.0323,-0.0011,-0.0136,-0.0256,0.0131,0.9988,0.1404,0.6033,-0.1414,-0.6023,1.0029,0.0404,0.1353,1.0029,0.0404,0.1353,0.3000,0.0600,0.0002,0,-0.3000,-100.0000,-0.0010,-0.3000,-100.0000,-0.0010,20.7140,60.4583,0.0200,0.0700
22.1100,37.4647,7.7649,0.0000,-0.0821,0.1200,0.4200,0.0000,0.0000,-0.2306,-0.3715,-0.0006,998,1504,1507,1501,2008,1000,1505,1000,1000,1010,1005,1000,1013,-0.0126,-0.0054,0.0292,-0.0237,0.0153,1.0019,0.1403,0.6027,-0.1415,-0.6015,1.0029,0.0404,0.1353,1.0029,0.0404,0.1353,0.3000,0.0600,0.0002,0,-0.3000,-100.0000,-0.0010,-0.3000,-100.0000,-0.0010,20.7411,60.4896,0.0200,0.0700
22.0834,37.4329,7.7486,0.0000,-0.0821,0.1200,0.4200,0.0000,0.0000,-0.2304,-0.3711,-0.0004,996,1502,1507,1500,2008,1000,1505,1000,1000,1010,1005,1000,1013,-0.0041,-0.0372,-0.0269,-0.0266,0.0144,0.9966,0.1404,0.6019,-0.1412,-0.6011,1.0029,0.0404,0.1353,1.0029,0.0404,0.1353,0.3000,0.0600,0.0002,0,-0.3000,-100.0000,-0.0010,-0.3000,-100.0000,-0.0010,20.7681,60.5210,0.0200,0.0700
22.0563,37.4008,7.7319,0.0000,-0.0000,0.1200,0.4200,0.0000,0.0000,-0.2300,-0.3708,-0.0004,996,1502,1507,1500,2008,1000,1505,1000,1000,1010,1005,1000,1013,-0.0356,-0.0715,-0.0148,-0.0254,0.0128,0.9969,0.1403,0.6013,-0.1412,-0.6004,1.0029,0.0404,0.1353,1.0029,0.0404,0.1353,0.3000,0.0600,0.0002,0,-0.3000,-100.0000,-0.0010,-0.3000,-100.0000,-0.0010,20.7951,60.5524,0.0200,0.0700
22.0294,37.3691,7.7160,-0.0829,-0.0000,0.1200,0.4200,0.0000,0.0000,-0.2298,-0.3705,-0.0005,996,1502,1507,1500,2008,1000,1505,1000,1000,1010,1005,1000,1013,-0.0257,-0.0070,0.0132,-0.0268,0.0160,1.0002,0.1402,0.6009,-0.1413,-0.5998,1.0029,0.0404,0.1353,1.0029,0.0404,0.1353,0.3000,0.0600,0.0002,0,-0.3000,-100.0000,-0.0010,-0.3000,-100.0000,-0.0010,20.8221,60.5838,0.0200,0.0700
22.0030,37.3379,7.7007,0.0000,-0.0000,0.1200,0.4200,0.0000,0.0000,-0.2295,-0.3703,-0.0006,996,1502,1507,1500,2008,1000,1505,1000,1000,1010,1005,1000,1013,-0.0567,0.0536,0.0312,-0.0260,0.0134,1.0027,0.1402,0.6004,-0.1414,-0.5992,1.0029,0.0404,0.1353,1.0029,0.0404,0.1353,0.3000,0.0600,0.0002,0,-0.3000,-100.0000,-0.0010,-0.3000,-100.0000,-0.0010,20.8492,60.6153,0.0200,0.0700
21.9769,37.3067,7.6855,0.0829,-0.0000,0.1200,0.4200,0.0000,0.0000,-0.2292,-0.3700,-0.0005,996,1502,1507,1500,2008,1000,1505,1000,1000,1010,1005,1000,1013,-0.0554,0.0215,0.0114,-0.0259,0.0157,1.0052,0.1402,0.5997,-0.1413,-0.5987,1.0029,0.0404,0.1353,1.0029,0.0404,0.1353,0.3000,0.0600,0.0002,0,-0.3000,-100.0000,-0.0010,-0.3000,-100.0000,-0.0010,20.8762,60.6467,0.0200,0.0700
21.9505,37.2748,7.6698,0.0000,-0.0000,0.1200,0.4200,0.0000,0.0000,-0.2291,-0.3695,-0.0005,998,1504,1507,1501,2008,1000,1505,1000,1000,1010,1005,1000,1013,0.0209,-0.0468,0.0008,-0.0229,0.0154,1.0019,0.1400,0.5991,-0.1410,-0.5981,1.0029,0.0404,0.1353,1.0029,0.0404,0.1353,0.3000,0.0600,0.0002,0,-0.3000,-100.0000,-0.0010,-0.3000,-100.0000,-0.0010,20.9032,60.6782,0.0200,0.0700
21.9239,37.2426,7.6535,-0.0829,-0.0821,0.1200,0.4200,0.0000,0.0000,-0.2287,-0.3693,-0.0004,996,1502,1507,1500,2008,1000,1505,1000,1000,1010,1005,1000,1013,-0.0239,-0.0129,-0.0215,-0.0265,0.0157,0.9992,0.1401,0.5984,-0.1409,-0.5976,1.0029,0.0404,0.1353,1.0029,0.0404,0.1353,0.3000,0.0600,0.0002,0,-0.3000,-100.0000,-0.0010,-0.3000,-100.0000,-0.0010,20.9301,60.7096,0.0200,0.0700
21.8976,37.2113,7.6377,0.0000,-0.0821,0.1200,0.4200,0.0000,0.0000,-0.2285,-0.3690,-0.0005,996,1502,1507,1500,2008,1000,1505,1000,1000,1010,1005,1000,1013,0.0106,0.0367,-0.0061,-0.0230,0.0133,1.0037,0.1400,0.5981,-0.1410,-0.5970,1.0029,0.0404,0.1353,1.0029,0.0404,0.1353,0.3000,0.0600,0.0002,0,-0.3000,-100.0000,-0.0010,-0.3000,-100.0000,-0.0010,20.9571,60.7411,0.0200,0.0700
21.8712,37.1795,7.6222,0.0000,-0.0000,0.1200,0.4200,0.0000,0.0000,-0.2282,-0.3686,-0.0008,996,1502,1507,1500,2008,1000,1505,1000,1000,1010,1005,1000,1013,-0.0261,-0.0115,0.0831,-0.0256,0.0144,0.9978,0.1397,0.5976,-0.1412,-0.5961,1.0029,0.0404,0.1353,1.0029,0.0404,0.1353,0.3000,0.0600,0.0002,0,-0.3000,-100.0000,-0.0010,-0.3000,-100.0000,-0.0010,20.9840,60.7726,0.0200,0.0700
21.8451,37.1478,7.6073,0.0000,-0.0821,0.1200,0.4200,0.0000,0.0000,-0.2279,-0.3683,-0.0006,996,1502,1507,1500,2008,1000,1505,1000,1000,1010,1005,1000,1013,-0.0402,0.0034,0.0454,-0.0247,0.0135,1.0002,0.1398,0.5969,-0.1410,-0.5956,1.0029,0.0404,0.1353,1.0029,0.0404,0.1353,0.3000,0.0600,0.0002,0,-0.3000,-100.0000,-0.0010,-0.3000,-100.0000,-0.0010,21.0109,60.8040,0.0200,0.0700
21.8190,37.1160,7.5922,0.0000,-0.0821,0.1200,0.4200,0.0000,0.0000,-0.2276,-0.3680,-0.0006,996,1502,1507,1500,2008,1000,1505,1000,1000,1010,1005,1000,1013,-0.0514,0.0230,0.0203,-0.0271,0.0138,0.9982,0.1398,0.5963,-0.1410,-0.5951,1.0029,0.0404,0.1353,1.0029,0.0404,0.1353,0.3000,0.0600,0.0002,0,-0.3000,-100.0000,-0.0010,-0.3000,-100.0000,-0.0010,21.0377,60.8354,0.0200,0.0700
21.7928,37.0843,7.5772,0.0000,-0.0821,0.1200,0.4200,0.0000,0.0000,-0.2274,-0.3677,-0.0009,998,1504,1507,1500,2008,1000,1505,1000,1000,1010,1005,1000,1013,-0.0578,0.0105,0.1247,-0.0254,0.0119,1.0019,0.1394,0.5960,-0.1413,-0.5941,1.0029,0.0404,0.1353,1.0029,0.0404,0.1353,0.3000,0.0600,0.0002,0,-0.3000,-100.0000,-0.0010,-0.3000,-100.0000,-0.0010,21.0645,60.8668,0.0200,0.0700
21.7665,37.0522,7.5622,0.0000,-0.0821,0.1200,0.4200,0.0000,0.0000,-0.2272,-0.3673,-0.0008,996,1502,1507,1500,2008,1000,1505,1000,1000,1010,1005,1000,1013,-0.0087,-0.0244,0.0714,-0.0259,0.0154,1.0026,0.1394,0.5953,-0.1409,-0.5938,1.0029,0.0404,0.1353,1.0029,0.0404,0.1353,0.3000,0.0600,0.0002,0,-0.3000,-100.0000,-0.0010,-0.3000,-100.0000,-0.0010,21.0913,60.8981,0.0200,0.0700
21.7410,37.0202,7.5476,0.0000,-0.0000,0.1200,0.4200,0.0000,0.0000,-0.2269,-0.3671,-0.0007,996,1502,1507,1500,2008,1000,1505,1000,1000,1010,1005,1000,1013,0.0104,0.0468,0.0830,-0.0266,0.0162,1.0013,0.1394,0.5948,-0.1409,-0.5933,1.0029,0.0404,0.1353,1.0029,0.0404,0.1353,0.3000,0.0600,0.0002,0,-0.3000,-100.0000,-0.0010,-0.3000,-100.0000,-0.0010,21.1180,60.9294,0.0200,0.0700
21.7153,36.9886,7.5324,0.0829,-0.0000,0.1200,0.4200,0.0000,0.0000,-0.2267,-0.3668,-0.0006,996,1502,1507,1500,2008,1000,1505,1000,1000,1010,1005,1000,1013,-0.0096,0.0249,0.0080,-0.0255,0.0169,0.9975,0.1395,0.5940,-0.1407,-0.5929,1.0029,0.0404,0.1353,1.0029,0.0404,0.1353,0.3000,0.0600,0.0002,0,-0.3000,-100.0000,-0.0010,-0.3000,-100.0000,-0.0010,21.1447,60.9608,0.0200,0.0700
21.6896,36.9568,7.5172,0.0000,0.0821,0.1200,0.4200,0.0000,0.0000,-0.2264,-0.3665,-0.0006,996,1502,1507,1500,2008,1000,1505,1000,1000,1010,1005,1000,1013,-0.0224,0.0314,0.0276,-0.0262,0.0163,1.0001,0.1395,0.5935,-0.1407,-0.5922,1.0029,0.0404,0.1353,1.0029,0.0404,0.1353,0.3000,0.0600,0.0002,0,-0.3000,-100.0000,-0.0010,-0.3000,-100.0000,-0.0010,21.1715,60.9921,0.0200,0.0700
21.6628,36.9245,7.5015,0.0000,-0.0821,0.1200,0.4200,0.0000,0.0000,-0.2261,-0.3660,-0.0006,996,1502,1507,1500,2008,1000,1505,1000,1000,1010,1005,1000,1013,-0.0251,-0.0498,0.0096,-0.0213,0.0156,1.0000,0.1394,0.5927,-0.1405,-0.5916,1.0029,0.0404,0.1353,1.0029,0.0404,0.1353,0.3000,0.0600,0.0002,0,-0.3000,-100.0000,-0.0010,-0.3000,-100.0000,-0.0010,21.1981,61.0235,0.0200,0.0700
21.6366,36.8925,7.4860,0.0000,-0.0000,0.1200,0.4200,0.0000,0.0000,-0.2259,-0.3658,-0.0005,998,1504,1507,1501,2008,1000,1505,1000,1000,1010,1005,1000,1013,-0.0110,0.0028,0.0135,-0.0247,0.0169,1.0023,0.1394,0.5922,-0.1404,-0.5911,1.0029,0.0404,0.1353,1.0029,0.0404,0.1353,0.3000,0.0600,0.0002,0,-0.3000,-100.0000,-0.0010,-0.3000,-100.0000,-0.0010,21.2248,61.0549,0.0200,0.0700
21.6105,36.8607,7.4706,0.0829,-0.0000,0.1200,0.4200,0.0000,0.0000,-0.2257,-0.3655,-0.0005,996,1502,1507,1500,2008,1000,1505,1000,1000,1010,1005,1000,1013,0.0280,0.0121,0.0101,-0.0251,0.0139,1.0015,0.1393,0.5916,-0.1403,-0.5906,1.0029,0.0404,0.1353,1.0029,0.0404,0.1353,0.3000,0.0600,0.0002,0,-0.3000,-100.0000,-0.0010,-0.3000,-100.0000,-0.0010,21.2514,61.0862,0.0200,0.0700
21.5842,36.8286,7.4553,0.1657,-0.0821,0.1200,0.4200,0.0000,0.0000,-0.2253,-0.3652,-0.0007,996,1502,1507,1500,2008,1000,1505,1000,1000,1010,1005,1000,1013,-0.0283,0.0234,0.0481,-0.0255,0.0142,0.9979,0.1392,0.5912,-0.1405,-0.5898,1.0029,0.0404,0.1353,1.0029,0.0404,0.1353,0.3000,0.0600,0.0002,0,-0.3000,-100.0000,-0.0010,-0.3000,-100.0000,-0.0010,21.2780,61.1176,0.0200,0.0700
21.5579,36.7965,7.4398,0.0000,0.0821,0.1200,0.4200,0.0000,0.0000,-0.2251,-0.3648,-0.0005,996,1502,1507,1500,2008,1000,1505,1000,1000,1010,1005,1000,1013,0.0072,0.0208,-0.0036,-0.0226,0.0146,0.9980,0.1392,0.5905,-0.1402,-0.5894,1.0029,0.0404,0.1353,1.0029,0.0404,0.1353,0.3000,0.0600,0.0002,0,-0.3000,-100.0000,-0.0010,-0.3000,-100.0000,-0.0010,21.3046,61.1490,0.0200,0.0700
21.5317,36.7641,7.4246,0.0000,-0.0000,0.1200,0.4200,0.0000,0.0000,-0.2248,-0.3645,-0.0006,996,1502,1507,1500,2008,1000,1505,1000,1000,1010,1005,1000,1013,-0.0554,0.0159,0.0223,-0.0253,0.0141,1.0007,0.1392,0.5898,-0.1403,-0.5887,1.0029,0.0404,0.1353,1.0029,0.0404,0.1353,0.3000,0.0600,0.0002,0,-0.3000,-100.0000,-0.0010,-0.3000,-100.0000,-0.0010,21.3312,61.1804,0.0200,0.0700
21.5053,36.7318,7.4092,0.0000,-0.0000,0.1200,0.4200,0.0000,0.0000,-0.2246,-0.3641,-0.0005,996,1502,1507,1500,2008,1000,1505,1000,1000,1010,1005,1000,1013,-0.0143,-0.0303,-0.0007,-0.0240,0.0157,0.9993,0.1391,0.5892,-0.1401,-0.5882,1.0029,0.0404,0.1353,1.0029,0.0404,0.1353,0.3000,0.0600,0.0002,0,-0.3000,-100.0000,-0.0010,-0.3000,-100.0000,-0.0010,21.3578,61.2119,0.0200,0.0700
21.4790,36.7000,7.3936,0.0000,-0.0821,0.1200,0.4200,0.0000,0.0000,-0.2243,-0.3639,-0.0007,998,1504,1507,1501,2008,1000,1505,1000,1000,1010,1005,1000,1013,-0.0005,0.0230,0.0472,-0.0256,0.0145,0.9973,0.1389,0.5888,-0.1402,-0.5875,1.0029,0.0404,0.1353,1.0029,0.0404,0.1353,0.3000,0.0600,0.0002,0,-0.3000,-100.0000,-0.0010,-0.3000,-100.0000,-0.0010,21.3844,61.2433,0.0200,0.0700
21.4529,36.6680,7.3783,0.0000,-0.0000,0.1200,0.4200,0.0000,0.0000,-0.2240,-0.3635,-0.0006,996,1502,1507,1500,2008,1000,1505,1000,1000,1010,1005,1000,1013,-0.0248,0.0183,0.0192,-0.0242,0.0133,0.9967,0.1390,0.5881,-0.1401,-0.5870,1.0029,0.0404,0.1353,1.0029,0.0404,0.1353,0.3000,0.0600,0.0002,0,-0.3000,-100.0000,-0.0010,-0.3000,-100.0000,-0.0010,21.4110,61.2748,0.0200,0.0700
21.4267,36.6361,7.3632,0.0000,-0.0000,0.1200,0.4200,0.0000,0.0000,-0.2238,-0.3633,-0.0007,996,1502,1507,1500,2008,1000,1505,1000,1000,1010,1005,1000,1013,-0.0201,0.0756,0.0749,-0.0275,0.0124,1.0019,0.1388,0.5878,-0.1403,-0.5863,1.0029,0.0404,0.1353,1.0029,0.0404,0.1353,0.3000,0.0600,0.0002,0,-0.3000,-100.0000,-0.0010,-0.3000,-100.0000,-0.0010,21.4375,61.3063,0.0200,0.0700
21.4007,36.6040,7.3479,0.0000,-0.0000,0.1200,0.4200,0.0000,0.0000,-0.2235,-0.3628,-0.0004,996,1502,1507,1500,2008,1000,1505,1000,1000,1010,1005,1000,1013,-0.0179,-0.0475,-0.0173,-0.0258,0.0155,1.0001,0.1389,0.5868,-0.1398,-0.5859,1.0029,0.0404,0.1353,1.0029,0.0404,0.1353,0.3000,0.0600,0.0002,0,-0.3000,-100.0000,-0.0010,-0.3000,-100.0000,-0.0010,21.4640,61.3377,0.0200,0.0700
21.3745,36.5716,7.3323,0.0000,-0.0821,0.1200,0.4200,0.0000,0.0000,-0.2233,-0.3627,-0.0004,996,1502,1507,1500,2008,1000,1505,1000,1000,1010,1005,1000,1013,0.0154,0.0756,0.0008,-0.0240,0.0144,0.9994,0.1389,0.5864,-0.1398,-0.5855,1.0029,0.0404,0.1353,1.0029,0.0404,0.1353,0.3000,0.0600,0.0002,0,-0.3000,-100.0000,-0.0010,-0.3000,-100.0000,-0.0010,21.4905,61.3692,0.0200,0.0700
21.3486,36.5403,7.3172,-0.0829,-0.0000,0.1200,0.4200,0.0000,0.0000,-0.2229,-0.3623,-0.0006,996,1502,1507,1500,2008,1000,1505,1000,1000,1010,1005,1000,1013,-0.0698,0.0729,0.0317,-0.0237,0.0157,1.0017,0.1388,0.5858,-0.1400,-0.5846,1.0029,0.0404,0.1353,1.0029,0.0404,0.1353,0.3000,0.0600,0.0002,0,-0.3000,-100.0000,-0.0010,-0.3000,-100.0000,-0.0010,21.5170,61.4007,0.0200,0.0700
21.3229,36.5077,7.3022,0.0000,-0.0821,0.1200,0.4200,0.0000,0.0000,-0.2228,-0.3619,-0.0007,998,1504,1507,1501,2008,1000,1505,1000,1000,1010,1005,1000,1013,0.0087,-0.0365,0.0630,-0.0243,0.0164,1.0041,0.1384,0.5853,-0.1398,-0.5839,1.0029,0.0404,0.1353,1.0029,0.0404,0.1353,0.3000,0.0600,0.0002,0,-0.3000,-100.0000,-0.0010,-0.3000,-100.0000,-0.0010,21.5435,61.4322,0.0200,0.0700
21.2976,36.4756,7.2876,0.0000,-0.0000,0.1200,0.4200,0.0000,0.0000,-0.2225,-0.3616,-0.0007,996,1502,1507,1500,2008,1000,1505,1000,1000,1010,1005,1000,1013,0.0330,-0.0033,0.0716,-0.0256,0.0179,1.0032,0.1383,0.5849,-0.1398,-0.5834,1.0029,0.0404,0.1353,1.0029,0.0404,0.1353,0.3000,0.0600,0.0002,0,-0.3000,-100.0000,-0.0010,-0.3000,-100.0000,-0.0010,21.5699,61.4637,0.0200,0.0700
21.2725,36.4431,7.2731,0.0000,-0.0000,0.1200,0.4200,0.0000,0.0000,-0.2223,-0.3613,-0.0008,996,1502,1507,1500,2008,1000,1505,1000,1000,1010,1005,1000,1013,0.0282,0.0549,0.1074,-0.0229,0.0132,1.0049,0.1382,0.5845,-0.1399,-0.5828,1.0029,0.0404,0.1353,1.0029,0.0404,0.1353,0.3000,0.0600,0.0002,0,-0.3000,-100.0000,-0.0010,-0.3000,-100.0000,-0.0010,21.5963,61.4952,0.0200,0.0700
21.2471,36.4104,7.2583,0.0829,-0.0821,0.1200,0.4200,0.0000,0.0000,-0.2220,-0.3610,-0.0005,996,1502,1507,1500,2008,1000,1505,1000,1000,1010,1005,1000,1013,-0.0100,0.0311,-0.0042,-0.0249,0.0149,1.0001,0.1385,0.5835,-0.1395,-0.5824,1.0029,0.0404,0.1353,1.0029,0.0404,0.1353,0.3000,0.0600,0.0002,0,-0.3000,-100.0000,-0.0010,-0.3000,-100.0000,-0.0010,21.6226,61.5266,0.0200,0.0700
21.2207,36.3783,7.2429,-0.0829,-0.0821,0.1200,0.4200,0.0000,0.0000,-0.2217,-0.3606,-0.0006,996,1502,1507,1500,2008,1000,1505,1000,1000,1010,1005,1000,1013,-0.0271,0.0102,0.0339,-0.0257,0.0135,1.0011,0.1383,0.5829,-0.1396,-0.5817,1.0029,0.0404,0.1353,1.0029,0.0404,0.1353,0.3000,0.0600,0.0002,0,-0.3000,-100.0000,-0.0010,-0.3000,-100.0000,-0.0010,21.6489,61.5580,0.0200,0.0700
