roll_imu,pitch_imu,yaw_imu,alpha,beta,roll_des,pitch_des,yaw_des,throttle_des,roll_pid,pitch_pid,yaw_pid,radio_ch1,radio_ch2,radio_ch3,radio_ch4,radio_ch5,radio_ch6,radio_ch7,radio_ch8,radio_ch9,radio_ch10,radio_ch11,radio_ch12,radio_ch13,GyroX,GyroY,GyroZ,AccX,AccY,AccZ,s1_command,s2_command,s3_command,s4_command,kp_roll,ki_roll,kd_roll,kp_pitch,ki_pitch,kd_pitch,kp_yaw,ki_yaw,kd_yaw,failsafeTriggered,kp_alphaRoll,ki_alphaRoll,kd_alphaRoll,kp_betaPitch,ki_betaPitch,kd_betaPitch,ripIMU_roll,ripIMU_pitch,ripRoll_des,ripPitch_des,error_alphaRoll,integral_alphaRoll,derivative_alphaRoll,error_betaPitch,integral_betaPitch,derivative_betaPitch
0.0000,0.0000,0.0000,1.4088,4.6375,0.0000,0.0000,0.0000,0.0000,0.0000,0.0000,0.0000,1000,1500,1500,1500,2000,1000,1000,1000,1500,1500,1500,1500,1500,0.0000,0.0000,0.0000,0.0000,0.0000,0.0000,0.0000,0.0000,0.0000,0.0000,0.9016,0.0202,0.1349,0.9016,0.0202,0.1349,0.3000,0.0600,0.0002,0,-0.5000,-100.0000,-0.0500,-0.5000,-100.0000,-0.0500,0.0000,0.0000,0.0000,0.0000,0.0000,0.0000,0.0000,0.0000,0.0000,0.0000
-38.7005,46.2869,-16.9558,-0.0000,-0.0000,-8.1000,-6.5400,-41.9200,0.0000,0.4619,-0.7442,-0.1260,910,1365,1391,1369,2008,1000,1505,1000,1000,1281,1503,1007,1014,-0.3810,0.1931,0.0327,-0.0349,-0.0238,0.8723,1.0801,0.4083,-1.3322,-0.1563,1.4083,0.1218,0.1368,1.4083,0.1218,0.1368,0.3000,0.0600,0.0002,0,-0.5000,-100.0000,-0.0500,-0.5000,-100.0000,-0.0500,14.4892,55.4045,-1.3500,-1.0900,0.0000,0.0000,0.0000,0.0000,0.0000,0.0000
-38.6715,46.2671,-16.9322,0.0829,-0.0000,-8.1000,-6.5400,-41.9200,0.0000,0.4617,-0.7440,-0.1264,910,1365,1391,1369,2008,1000,1505,1000,1000,1281,1503,1007,1014,-0.4846,0.2003,0.0658,-0.0372,-0.0279,0.9875,1.0792,0.4087,-1.3320,-0.1559,1.4083,0.1218,0.1368,1.4083,0.1218,0.1368,0.3000,0.0600,0.0002,0,-0.5000,-100.0000,-0.0500,-0.5000,-100.0000,-0.0500,14.5188,55.4366,-1.3500,-1.0900,0.0000,0.0000,0.0000,0.0000,0.0000,0.0000
-38.3406,46.0110,-16.6347,0.0829,-0.0000,-0.7800,0.9000,-2.5600,0.0000,0.5612,-0.6354,-0.0089,991,1487,1515,1492,2008,1000,1505,1000,1000,1281,1503,1007,1014,-1.2817,0.1022,-0.0323,-0.0398,-0.0326,0.9904,1.1877,0.0832,-1.2055,-0.0653,1.4083,0.1218,0.1368,1.4083,0.1218,0.1368,0.3000,0.0600,0.0002,0,-0.5000,-100.0000,-0.0500,-0.5000,-100.0000,-0.0500,14.9048,55.8298,-0.1300,0.1500,0.0000,0.0000,0.0000,0.0000,0.0000,0.0000
-38.3210,45.9893,-16.6110,-0.0000,-0.0000,-0.3000,1.3200,0.0000,0.0000,0.5679,-0.6292,-0.0013,996,1495,1522,1500,2008,1000,1505,1000,1000,1281,1503,1007,1014,-1.4275,0.0934,-0.0133,-0.0376,-0.0307,0.9945,1.1957,0.0627,-1.1984,-0.0600,1.4083,0.1218,0.1368,1.4083,0.1218,0.1368,0.3000,0.0600,0.0002,0,-0.5000,-100.0000,-0.0500,-0.5000,-100.0000,-0.0500,14.9360,55.8614,-0.0500,0.2200,0.0000,0.0000,0.0000,0.0000,0.0000,0.0000
-38.3018,45.9676,-16.5872,0.0829,-0.0000,-0.1800,1.5000,0.6400,0.0000,0.5692,-0.6264,0.0008,996,1497,1525,1502,2008,1000,1505,1000,1000,1281,1503,1007,1014,-1.3639,0.0853,-0.0828,-0.0414,-0.0333,0.9956,1.1964,0.0563,-1.1947,-0.0580,1.4083,0.1218,0.1368,1.4083,0.1218,0.1368,0.3000,0.0600,0.0002,0,-0.5000,-100.0000,-0.0500,-0.5000,-100.0000,-0.0500,14.9672,55.8929,-0.0300,0.2500,0.0000,0.0000,0.0000,0.0000,0.0000,0.0000
-38.2813,45.9449,-16.5630,0.0829,-0.0000,-0.1800,1.6200,0.6400,0.0000,0.5687,-0.6242,0.0006,996,1497,1527,1502,2008,1000,1505,1000,1000,1281,1503,1007,1014,-1.2487,-0.0215,-0.0238,-0.0402,-0.0356,0.9920,1.1935,0.0549,-1.1923,-0.0561,1.4083,0.1218,0.1368,1.4083,0.1218,0.1368,0.3000,0.0600,0.0002,0,-0.5000,-100.0000,-0.0500,-0.5000,-100.0000,-0.0500,14.9983,55.9244,-0.0300,0.2700,0.0000,0.0000,0.0000,0.0000,0.0000,0.0000
-38.2581,45.9212,-16.5378,0.0829,-0.0000,-0.1200,1.6200,0.9600,0.0000,0.5689,-0.6237,0.0008,996,1497,1527,1502,2008,1000,1505,1000,1000,1281,1503,1007,1014,-0.9812,-0.1751,-0.0887,-0.0438,-0.0363,0.9903,1.1934,0.0540,-1.1917,-0.0556,1.4083,0.1218,0.1368,1.4083,0.1218,0.1368,0.3000,0.0600,0.0002,0,-0.5000,-100.0000,-0.0500,-0.5000,-100.0000,-0.0500,15.0295,55.9558,-0.0200,0.2700,0.0000,0.0000,0.0000,0.0000,0.0000,0.0000
-38.2323,45.8961,-16.5128,-0.0000,-0.0000,-0.1800,1.6200,0.6400,0.0000,0.5672,-0.6233,0.0010,996,1497,1527,1502,2008,1000,1505,1000,1000,1281,1503,1007,1014,-0.6483,-0.1959,-0.1493,-0.0397,-0.0373,0.9863,1.1915,0.0550,-1.1895,-0.0571,1.4083,0.1218,0.1368,1.4083,0.1218,0.1368,0.3000,0.0600,0.0002,0,-0.5000,-100.0000,-0.0500,-0.5000,-100.0000,-0.0500,15.0607,55.9873,-0.0300,0.2700,0.0000,0.0000,0.0000,0.0000,0.0000,0.0000
-38.1996,45.8702,-16.4864,0.0829,-0.0000,-0.1800,1.6200,0.6400,0.0000,0.5659,-0.6226,0.0009,996,1497,1527,1502,2008,1000,1505,1000,1000,1281,1503,1007,1014,0.0169,-0.4448,-0.1210,-0.0436,-0.0392,0.9877,1.1894,0.0558,-1.1875,-0.0577,1.4083,0.1218,0.1368,1.4083,0.1218,0.1368,0.3000,0.0600,0.0002,0,-0.5000,-100.0000,-0.0500,-0.5000,-100.0000,-0.0500,15.0918,56.0188,-0.0300,0.2700,0.0000,0.0000,0.0000,0.0000,0.0000,0.0000
-38.1594,45.8426,-16.4591,-0.1657,-0.0821,-0.1800,1.6200,0.6400,0.0000,0.5644,-0.6221,0.0012,996,1497,1527,1502,2008,1000,1505,1000,1000,1281,1503,1007,1014,0.7043,-0.5036,-0.2031,-0.0406,-0.0438,0.9883,1.1877,0.0565,-1.1852,-0.0590,1.4083,0.1218,0.1368,1.4083,0.1218,0.1368,0.3000,0.0600,0.0002,0,-0.5000,-100.0000,-0.0500,-0.5000,-100.0000,-0.0500,15.1229,56.0503,-0.0300,0.2700,0.0000,0.0000,0.0000,0.0000,0.0000,0.0000
-38.1113,45.8147,-16.4316,-0.0000,-0.0000,-0.1800,1.6200,0.6400,0.0000,0.5626,-0.6217,0.0012,996,1497,1527,1502,2008,1000,1505,1000,1000,1281,1503,1007,1014,1.4547,-0.5245,-0.1913,-0.0404,-0.0413,0.9894,1.1855,0.0578,-1.1831,-0.0602,1.4083,0.1218,0.1368,1.4083,0.1218,0.1368,0.3000,0.0600,0.0002,0,-0.5000,-100.0000,-0.0500,-0.5000,-100.0000,-0.0500,15.1541,56.0817,-0.0300,0.2700,0.0000,0.0000,0.0000,0.0000,0.0000,0.0000
-38.0564,45.7860,-16.4046,-0.0829,-0.0000,-0.1800,1.6200,0.6400,0.0000,0.5610,-0.6213,0.0015,996,1497,1527,1502,2008,1000,1505,1000,1000,1281,1503,1007,1014,2.0916,-0.4871,-0.2655,-0.0376,-0.0387,0.9919,1.1838,0.0589,-1.1809,-0.0618,1.4083,0.1218,0.1368,1.4083,0.1218,0.1368,0.3000,0.0600,0.0002,0,-0.5000,-100.0000,-0.0500,-0.5000,-100.0000,-0.0500,15.1852,56.1132,-0.0300,0.2700,0.0000,0.0000,0.0000,0.0000,0.0000,0.0000
-37.9955,45.7561,-16.3781,-0.0000,-0.0000,-0.1200,1.6200,0.9600,0.0000,0.5602,-0.6206,0.0016,996,1497,1527,1502,2008,1000,1505,1000,1000,1281,1503,1007,1014,2.6511,-0.7343,-0.3329,-0.0387,-0.0375,0.9903,1.1824,0.0587,-1.1791,-0.0620,1.4083,0.1218,0.1368,1.4083,0.1218,0.1368,0.3000,0.0600,0.0002,0,-0.5000,-100.0000,-0.0500,-0.5000,-100.0000,-0.0500,15.2163,56.1447,-0.0200,0.2700,0.0000,0.0000,0.0000,0.0000,0.0000,0.0000
-37.9292,45.7248,-16.3513,-0.0000,-0.0000,-0.1800,1.6200,0.6400,0.0000,0.5579,-0.6201,0.0019,996,1497,1527,1502,2008,1000,1505,1000,1000,1281,1503,1007,1014,3.0748,-0.7570,-0.4327,-0.0397,-0.0344,0.9888,1.1799,0.0603,-1.1761,-0.0641,1.4083,0.1218,0.1368,1.4083,0.1218,0.1368,0.3000,0.0600,0.0002,0,-0.5000,-100.0000,-0.0500,-0.5000,-100.0000,-0.0500,15.2474,56.1762,-0.0300,0.2700,0.0000,0.0000,0.0000,0.0000,0.0000,0.0000
-37.8606,45.6923,-16.3254,-0.0000,-0.0821,-0.1800,1.6200,0.6400,0.0000,0.5566,-0.6195,0.0025,996,1497,1527,1502,2008,1000,1505,1000,1000,1281,1503,1007,1014,3.2792,-0.8409,-0.6116,-0.0397,-0.0329,0.9890,1.1787,0.0603,-1.1736,-0.0654,1.4083,0.1218,0.1368,1.4083,0.1218,0.1368,0.3000,0.0600,0.0002,0,-0.5000,-100.0000,-0.0500,-0.5000,-100.0000,-0.0500,15.2785,56.2077,-0.0300,0.2700,0.0000,0.0000,0.0000,0.0000,0.0000,0.0000
-37.7902,45.6583,-16.2998,0.0829,-0.0821,-0.1800,1.6200,0.6400,0.0000,0.5554,-0.6190,0.0023,996,1497,1527,1502,2008,1000,1505,1000,1000,1281,1503,1007,1014,3.4737,-0.8835,-0.5714,-0.0359,-0.0316,0.9880,1.1767,0.0613,-1.1720,-0.0659,1.4083,0.1218,0.1368,1.4083,0.1218,0.1368,0.3000,0.0600,0.0002,0,-0.5000,-100.0000,-0.0500,-0.5000,-100.0000,-0.0500,15.3096,56.2392,-0.0300,0.2700,0.0000,0.0000,0.0000,0.0000,0.0000,0.0000
-37.7185,45.6251,-16.2742,0.0829,-0.0821,-0.1800,1.6200,0.6400,0.0000,0.5543,-0.6186,0.0026,996,1497,1527,1502,2008,1000,1505,1000,1000,1281,1503,1007,1014,3.5417,-0.8078,-0.6489,-0.0362,-0.0278,0.9923,1.1755,0.0618,-1.1703,-0.0670,1.4083,0.1218,0.1368,1.4083,0.1218,0.1368,0.3000,0.0600,0.0002,0,-0.5000,-100.0000,-0.0500,-0.5000,-100.0000,-0.0500,15.3406,56.2706,-0.0300,0.2700,0.0000,0.0000,0.0000,0.0000,0.0000,0.0000
-37.6470,45.5919,-16.2501,-0.0000,-0.0821,-0.1800,1.6200,0.6400,0.0000,0.5531,-0.6182,0.0025,996,1497,1527,1502,2008,1000,1505,1000,1000,1281,1503,1007,1014,3.6328,-0.7553,-0.6127,-0.0385,-0.0305,0.9949,1.1739,0.0626,-1.1689,-0.0676,1.4083,0.1218,0.1368,1.4083,0.1218,0.1368,0.3000,0.0600,0.0002,0,-0.5000,-100.0000,-0.0500,-0.5000,-100.0000,-0.0500,15.3717,56.3020,-0.0300,0.2700,0.0000,0.0000,0.0000,0.0000,0.0000,0.0000
-37.5747,45.5599,-16.2260,-0.0000,-0.0821,-0.1200,1.6200,0.9600,0.0000,0.5530,-0.6179,0.0022,996,1497,1527,1502,2008,1000,1505,1000,1000,1281,1503,1007,1014,3.6202,-0.6436,-0.5054,-0.0360,-0.0273,0.9921,1.1730,0.0628,-1.1687,-0.0671,1.4083,0.1218,0.1368,1.4083,0.1218,0.1368,0.3000,0.0600,0.0002,0,-0.5000,-100.0000,-0.0500,-0.5000,-100.0000,-0.0500,15.4027,56.3335,-0.0200,0.2700,0.0000,0.0000,0.0000,0.0000,0.0000,0.0000
-37.5024,45.5285,-16.2011,-0.0000,-0.0000,-0.1800,1.6200,0.6400,0.0000,0.5511,-0.6176,0.0020,996,1497,1527,1502,2008,1000,1505,1000,1000,1281,1503,1007,1014,3.5961,-0.5761,-0.4512,-0.0360,-0.0286,0.9961,1.1707,0.0644,-1.1667,-0.0685,1.4083,0.1218,0.1368,1.4083,0.1218,0.1368,0.3000,0.0600,0.0002,0,-0.5000,-100.0000,-0.0500,-0.5000,-100.0000,-0.0500,15.4338,56.3649,-0.0300,0.2700,0.0000,0.0000,0.0000,0.0000,0.0000,0.0000
-37.4301,45.4974,-16.1762,-0.0000,-0.0000,-0.1800,1.6200,0.6400,0.0000,0.5501,-0.6170,0.0019,996,1497,1527,1502,2008,1000,1505,1000,1000,1281,1503,1007,1014,3.5912,-0.7000,-0.4192,-0.0364,-0.0280,0.9913,1.1690,0.0649,-1.1652,-0.0688,1.4083,0.1218,0.1368,1.4083,0.1218,0.1368,0.3000,0.0600,0.0002,0,-0.5000,-100.0000,-0.0500,-0.5000,-100.0000,-0.0500,15.4648,56.3964,-0.0300,0.2700,0.0000,0.0000,0.0000,0.0000,0.0000,0.0000
-37.3583,45.4658,-16.1514,-0.0000,-0.0821,-0.1800,1.6200,0.6400,0.0000,0.5491,-0.6165,0.0022,996,1497,1527,1502,2008,1000,1505,1000,1000,1281,1503,1007,1014,3.5794,-0.6850,-0.5140,-0.0385,-0.0270,0.9928,1.1679,0.0652,-1.1635,-0.0696,1.4083,0.1218,0.1368,1.4083,0.1218,0.1368,0.3000,0.0600,0.0002,0,-0.5000,-100.0000,-0.0500,-0.5000,-100.0000,-0.0500,15.4958,56.4278,-0.0300,0.2700,0.0000,0.0000,0.0000,0.0000,0.0000,0.0000
-37.2861,45.4337,-16.1272,-0.0829,-0.1642,-0.1800,1.6200,0.6400,0.0000,0.5481,-0.6160,0.0026,996,1497,1527,1502,2008,1000,1505,1000,1000,1281,1503,1007,1014,3.6071,-0.7500,-0.6114,-0.0380,-0.0258,0.9921,1.1666,0.0654,-1.1615,-0.0705,1.4083,0.1218,0.1368,1.4083,0.1218,0.1368,0.3000,0.0600,0.0002,0,-0.5000,-100.0000,-0.0500,-0.5000,-100.0000,-0.0500,15.5268,56.4592,-0.0300,0.2700,0.0000,0.0000,0.0000,0.0000,0.0000,0.0000
-37.2138,45.4006,-16.1025,-0.0829,-0.1642,-0.1800,1.6200,0.6400,0.0000,0.5471,-0.6154,0.0025,996,1497,1527,1502,2008,1000,1505,1000,1000,1281,1503,1007,1014,3.5748,-0.8241,-0.5961,-0.0334,-0.0248,0.9870,1.1650,0.0658,-1.1601,-0.0708,1.4083,0.1218,0.1368,1.4083,0.1218,0.1368,0.3000,0.0600,0.0002,0,-0.5000,-100.0000,-0.0500,-0.5000,-100.0000,-0.0500,15.5578,56.4907,-0.0300,0.2700,0.0000,0.0000,0.0000,0.0000,0.0000,0.0000
-37.1417,45.3676,-16.0778,-0.0000,-0.1642,-0.1200,1.6200,0.9600,0.0000,0.5469,-0.6150,0.0023,996,1497,1527,1502,2008,1000,1505,1000,1000,1281,1503,1007,1014,3.5767,-0.7709,-0.5276,-0.0371,-0.0221,0.9937,1.1643,0.0658,-1.1597,-0.0704,1.4083,0.1218,0.1368,1.4083,0.1218,0.1368,0.3000,0.0600,0.0002,0,-0.5000,-100.0000,-0.0500,-0.5000,-100.0000,-0.0500,15.5888,56.5222,-0.0200,0.2700,0.0000,0.0000,0.0000,0.0000,0.0000,0.0000
-37.0704,45.3356,-16.0539,-0.0000,-0.1642,-0.1800,1.6200,0.6400,0.0000,0.5452,-0.6148,0.0023,996,1497,1527,1502,2008,1000,1505,1000,1000,1281,1503,1007,1014,3.5188,-0.6312,-0.5409,-0.0385,-0.0222,0.9928,1.1623,0.0673,-1.1576,-0.0719,1.4083,0.1218,0.1368,1.4083,0.1218,0.1368,0.3000,0.0600,0.0002,0,-0.5000,-100.0000,-0.0500,-0.5000,-100.0000,-0.0500,15.6197,56.5536,-0.0300,0.2700,0.0000,0.0000,0.0000,0.0000,0.0000,0.0000
-36.9992,45.3051,-16.0299,-0.0000,-0.0821,-0.1800,1.6200,0.6400,0.0000,0.5441,-0.6146,0.0018,996,1497,1527,1502,2008,1000,1505,1000,1000,1281,1503,1007,1014,3.5496,-0.4368,-0.3463,-0.0356,-0.0213,0.9945,1.1605,0.0687,-1.1570,-0.0723,1.4083,0.1218,0.1368,1.4083,0.1218,0.1368,0.3000,0.0600,0.0002,0,-0.5000,-100.0000,-0.0500,-0.5000,-100.0000,-0.0500,15.6507,56.5850,-0.0300,0.2700,0.0000,0.0000,0.0000,0.0000,0.0000,0.0000
-36.9290,45.2769,-16.0062,-0.0000,-0.1642,-0.1800,1.6200,0.6400,0.0000,0.5433,-0.6145,0.0019,996,1497,1527,1502,2008,1000,1505,1000,1000,1281,1503,1007,1014,3.4376,-0.2597,-0.3845,-0.0352,-0.0197,0.9892,1.1596,0.0693,-1.1559,-0.0730,1.4083,0.1218,0.1368,1.4083,0.1218,0.1368,0.3000,0.0600,0.0002,0,-0.5000,-100.0000,-0.0500,-0.5000,-100.0000,-0.0500,15.6817,56.6165,-0.0300,0.2700,0.0000,0.0000,0.0000,0.0000,0.0000,0.0000
-36.8611,45.2504,-15.9852,-0.0829,-0.1642,-0.1800,1.6200,0.6400,0.0000,0.5424,-0.6144,0.0021,996,1497,1527,1502,2008,1000,1505,1000,1000,1281,1503,1007,1014,3.3946,-0.0260,-0.4529,-0.0321,-0.0191,0.9872,1.1589,0.0699,-1.1547,-0.0741,1.4083,0.1218,0.1368,1.4083,0.1218,0.1368,0.3000,0.0600,0.0002,0,-0.5000,-100.0000,-0.0500,-0.5000,-100.0000,-0.0500,15.7126,56.6479,-0.0300,0.2700,0.0000,0.0000,0.0000,0.0000,0.0000,0.0000
-36.7962,45.2247,-15.9671,-0.0000,-0.1642,-0.1800,1.6200,0.6400,0.0000,0.5416,-0.6143,0.0021,996,1497,1527,1502,2008,1000,1505,1000,1000,1281,1503,1007,1014,3.2666,0.1436,-0.4766,-0.0332,-0.0237,0.9889,1.1580,0.0705,-1.1538,-0.0747,1.4083,0.1218,0.1368,1.4083,0.1218,0.1368,0.3000,0.0600,0.0002,0,-0.5000,-100.0000,-0.0500,-0.5000,-100.0000,-0.0500,15.7436,56.6793,-0.0300,0.2700,0.0000,0.0000,0.0000,0.0000,0.0000,0.0000
-36.7329,45.2009,-15.9504,-0.2486,-0.2462,-0.1200,1.6200,0.9600,0.0000,0.5416,-0.6143,0.0022,996,1497,1527,1502,2008,1000,1505,1000,1000,1281,1503,1007,1014,3.2337,0.3775,-0.4730,-0.0329,-0.0186,0.9917,1.1581,0.0704,-1.1537,-0.0748,1.4083,0.1218,0.1368,1.4083,0.1218,0.1368,0.3000,0.0600,0.0002,0,-0.5000,-100.0000,-0.0500,-0.5000,-100.0000,-0.0500,15.7745,56.7108,-0.0200,0.2700,0.0000,0.0000,0.0000,0.0000,0.0000,0.0000
-36.6711,45.1791,-15.9346,0.0829,-0.0821,-0.1800,1.6200,0.6400,0.0000,0.5400,-0.6141,0.0019,996,1497,1527,1502,2008,1000,1505,1000,1000,1281,1503,1007,1014,3.2013,0.4444,-0.3668,-0.0347,-0.0210,0.9934,1.1559,0.0722,-1.1521,-0.0760,1.4083,0.1218,0.1368,1.4083,0.1218,0.1368,0.3000,0.0600,0.0002,0,-0.5000,-100.0000,-0.0500,-0.5000,-100.0000,-0.0500,15.8054,56.7422,-0.0300,0.2700,0.0000,0.0000,0.0000,0.0000,0.0000,0.0000
-36.6106,45.1583,-15.9198,-0.0000,-0.0821,-0.1800,1.6200,0.6400,0.0000,0.5393,-0.6141,0.0018,996,1497,1527,1502,2008,1000,1505,1000,1000,1281,1503,1007,1014,3.0809,0.6772,-0.3603,-0.0341,-0.0184,0.9901,1.1552,0.0730,-1.1515,-0.0766,1.4083,0.1218,0.1368,1.4083,0.1218,0.1368,0.3000,0.0600,0.0002,0,-0.5000,-100.0000,-0.0500,-0.5000,-100.0000,-0.0500,15.8363,56.7736,-0.0300,0.2700,0.0000,0.0000,0.0000,0.0000,0.0000,0.0000
-36.5518,45.1387,-15.9067,-0.0000,-0.0821,-0.1800,1.6200,0.6400,0.0000,0.5384,-0.6140,0.0018,996,1497,1527,1502,2008,1000,1505,1000,1000,1281,1503,1007,1014,3.0920,0.7913,-0.3598,-0.0373,-0.0171,0.9933,1.1543,0.0737,-1.1506,-0.0774,1.4083,0.1218,0.1368,1.4083,0.1218,0.1368,0.3000,0.0600,0.0002,0,-0.5000,-100.0000,-0.0500,-0.5000,-100.0000,-0.0500,15.8672,56.8051,-0.0300,0.2700,0.0000,0.0000,0.0000,0.0000,0.0000,0.0000
-36.4935,45.1209,-15.8937,0.0829,-0.1642,-0.1800,1.6200,0.6400,0.0000,0.5378,-0.6138,0.0017,996,1497,1527,1502,2008,1000,1505,1000,1000,1281,1503,1007,1014,2.9647,0.8932,-0.3084,-0.0356,-0.0163,0.9921,1.1533,0.0744,-1.1500,-0.0777,1.4083,0.1218,0.1368,1.4083,0.1218,0.1368,0.3000,0.0600,0.0002,0,-0.5000,-100.0000,-0.0500,-0.5000,-100.0000,-0.0500,15.8981,56.8365,-0.0300,0.2700,0.0000,0.0000,0.0000,0.0000,0.0000,0.0000
-36.4375,45.1043,-15.8816,-0.0000,-0.0821,-0.1800,1.6200,0.6400,0.0000,0.5372,-0.6138,0.0017,996,1497,1527,1502,2008,1000,1505,1000,1000,1281,1503,1007,1014,2.8033,1.0491,-0.3140,-0.0352,-0.0159,0.9888,1.1528,0.0749,-1.1494,-0.0783,1.4083,0.1218,0.1368,1.4083,0.1218,0.1368,0.3000,0.0600,0.0002,0,-0.5000,-100.0000,-0.0500,-0.5000,-100.0000,-0.0500,15.9290,56.8679,-0.0300,0.2700,0.0000,0.0000,0.0000,0.0000,0.0000,0.0000
-36.3839,45.0897,-15.8700,-0.0000,-0.0000,-0.1200,1.6200,0.9600,0.0000,0.5376,-0.6139,0.0011,996,1497,1527,1502,2008,1000,1505,1000,1000,1281,1503,1007,1014,2.5886,1.2298,-0.1009,-0.0373,-0.0128,0.9885,1.1526,0.0752,-1.1504,-0.0773,1.4083,0.1218,0.1368,1.4083,0.1218,0.1368,0.3000,0.0600,0.0002,0,-0.5000,-100.0000,-0.0500,-0.5000,-100.0000,-0.0500,15.9598,56.8994,-0.0200,0.2700,0.0000,0.0000,0.0000,0.0000,0.0000,0.0000
-36.3341,45.0771,-15.8591,-0.0000,-0.0821,-0.1800,1.6200,0.6400,0.0000,0.5366,-0.6139,0.0012,996,1497,1527,1502,2008,1000,1505,1000,1000,1281,1503,1007,1014,2.2173,1.3847,-0.1478,-0.0361,-0.0147,0.9940,1.1517,0.0761,-1.1493,-0.0785,1.4083,0.1218,0.1368,1.4083,0.1218,0.1368,0.3000,0.0600,0.0002,0,-0.5000,-100.0000,-0.0500,-0.5000,-100.0000,-0.0500,15.9907,56.9307,-0.0300,0.2700,0.0000,0.0000,0.0000,0.0000,0.0000,0.0000
-36.2884,45.0660,-15.8492,-0.0000,-0.0821,-0.1800,1.6200,0.6400,0.0000,0.5363,-0.6140,0.0009,996,1497,1527,1502,2008,1000,1505,1000,1000,1281,1503,1007,1014,1.9169,1.5371,-0.0384,-0.0373,-0.0137,0.9947,1.1512,0.0767,-1.1494,-0.0785,1.4083,0.1218,0.1368,1.4083,0.1218,0.1368,0.3000,0.0600,0.0002,0,-0.5000,-100.0000,-0.0500,-0.5000,-100.0000,-0.0500,16.0215,56.9621,-0.0300,0.2700,0.0000,0.0000,0.0000,0.0000,0.0000,0.0000
-36.2456,45.0554,-15.8392,-0.0000,-0.0821,-0.1800,1.6200,0.6400,0.0000,0.5362,-0.6136,0.0009,996,1497,1527,1502,2008,1000,1505,1000,1000,1281,1503,1007,1014,1.6166,1.3748,-0.0528,-0.0391,-0.0124,0.9905,1.1507,0.0765,-1.1488,-0.0784,1.4083,0.1218,0.1368,1.4083,0.1218,0.1368,0.3000,0.0600,0.0002,0,-0.5000,-100.0000,-0.0500,-0.5000,-100.0000,-0.0500,16.0523,56.9935,-0.0300,0.2700,0.0000,0.0000,0.0000,0.0000,0.0000,0.0000
-36.2039,45.0436,-15.8265,-0.0000,-0.1642,-0.1800,1.6200,0.6400,0.0000,0.5360,-0.6133,0.0007,996,1497,1527,1502,2008,1000,1505,1000,1000,1281,1503,1007,1014,1.3296,1.3220,0.0368,-0.0397,-0.0136,0.9929,1.1500,0.0767,-1.1486,-0.0781,1.4083,0.1218,0.1368,1.4083,0.1218,0.1368,0.3000,0.0600,0.0002,0,-0.5000,-100.0000,-0.0500,-0.5000,-100.0000,-0.0500,16.0831,57.0249,-0.0300,0.2700,0.0000,0.0000,0.0000,0.0000,0.0000,0.0000
-36.1644,45.0309,-15.8128,0.0829,-0.0821,-0.1800,1.6200,0.6400,0.0000,0.5357,-0.6128,0.0010,996,1497,1527,1502,2008,1000,1505,1000,1000,1281,1503,1007,1014,1.1086,1.0852,-0.0321,-0.0390,-0.0131,0.9898,1.1495,0.0762,-1.1476,-0.0781,1.4083,0.1218,0.1368,1.4083,0.1218,0.1368,0.3000,0.0600,0.0002,0,-0.5000,-100.0000,-0.0500,-0.5000,-100.0000,-0.0500,16.1139,57.0562,-0.0300,0.2700,0.0000,0.0000,0.0000,0.0000,0.0000,0.0000
-36.1253,45.0162,-15.7968,-0.0000,-0.0000,-0.1200,1.6200,0.9600,0.0000,0.5363,-0.6124,0.0007,996,1497,1527,1502,2008,1000,1505,1000,1000,1281,1503,1007,1014,0.9076,0.9059,0.0191,-0.0433,-0.0147,0.9925,1.1494,0.0754,-1.1479,-0.0768,1.4083,0.1218,0.1368,1.4083,0.1218,0.1368,0.3000,0.0600,0.0002,0,-0.5000,-100.0000,-0.0500,-0.5000,-100.0000,-0.0500,16.1447,57.0876,-0.0200,0.2700,0.0000,0.0000,0.0000,0.0000,0.0000,0.0000
-36.0865,44.9997,-15.7788,-0.0000,-0.0000,-0.1800,1.6200,0.6400,0.0000,0.5349,-0.6118,0.0007,996,1497,1527,1502,2008,1000,1505,1000,1000,1281,1503,1007,1014,0.8636,0.6824,0.0271,-0.0436,-0.0127,0.9926,1.1475,0.0762,-1.1461,-0.0776,1.4083,0.1218,0.1368,1.4083,0.1218,0.1368,0.3000,0.0600,0.0002,0,-0.5000,-100.0000,-0.0500,-0.5000,-100.0000,-0.0500,16.1754,57.1189,-0.0300,0.2700,0.0000,0.0000,0.0000,0.0000,0.0000,0.0000
-36.0458,44.9820,-15.7589,0.0829,-0.0000,-0.1800,1.6200,0.6400,0.0000,0.5343,-0.6114,0.0007,996,1497,1527,1502,2008,1000,1505,1000,1000,1281,1503,1007,1014,0.9351,0.5360,0.0642,-0.0398,-0.0153,0.9893,1.1464,0.0764,-1.1450,-0.0778,1.4083,0.1218,0.1368,1.4083,0.1218,0.1368,0.3000,0.0600,0.0002,0,-0.5000,-100.0000,-0.0500,-0.5000,-100.0000,-0.0500,16.2062,57.1503,-0.0300,0.2700,0.0000,0.0000,0.0000,0.0000,0.0000,0.0000
-36.0026,44.9623,-15.7374,0.0829,0.0821,-0.1800,1.6200,0.6400,0.0000,0.5334,-0.6106,0.0008,996,1497,1527,1502,2008,1000,1505,1000,1000,1281,1503,1007,1014,1.1515,0.1745,0.0074,-0.0401,-0.0195,0.9909,1.1448,0.0764,-1.1432,-0.0781,1.4083,0.1218,0.1368,1.4083,0.1218,0.1368,0.3000,0.0600,0.0002,0,-0.5000,-100.0000,-0.0500,-0.5000,-100.0000,-0.0500,16.2369,57.1816,-0.0300,0.2700,0.0000,0.0000,0.0000,0.0000,0.0000,0.0000
-35.9549,44.9394,-15.7138,-0.0000,-0.0000,-0.1800,1.6200,0.6400,0.0000,0.5322,-0.6100,0.0011,996,1497,1527,1502,2008,1000,1505,1000,1000,1281,1503,1007,1014,1.5349,-0.0448,-0.0575,-0.0439,-0.0214,0.9882,1.1433,0.0768,-1.1411,-0.0789,1.4083,0.1218,0.1368,1.4083,0.1218,0.1368,0.3000,0.0600,0.0002,0,-0.5000,-100.0000,-0.0500,-0.5000,-100.0000,-0.0500,16.2677,57.2130,-0.0300,0.2700,0.0000,0.0000,0.0000,0.0000,0.0000,0.0000
-35.9014,44.9141,-15.6892,0.0829,0.0821,-0.1800,1.6200,0.6400,0.0000,0.5306,-0.6094,0.0010,996,1497,1527,1502,2008,1000,1505,1000,1000,1281,1503,1007,1014,2.1030,-0.2370,-0.0543,-0.0450,-0.0233,0.9963,1.1410,0.0778,-1.1391,-0.0797,1.4083,0.1218,0.1368,1.4083,0.1218,0.1368,0.3000,0.0600,0.0002,0,-0.5000,-100.0000,-0.0500,-0.5000,-100.0000,-0.0500,16.2984,57.2442,-0.0300,0.2700,0.0000,0.0000,0.0000,0.0000,0.0000,0.0000
-35.8408,44.8860,-15.6625,0.0829,-0.0000,-0.1200,1.6200,0.9600,0.0000,0.5299,-0.6085,0.0012,996,1497,1527,1502,2008,1000,1505,1000,1000,1281,1503,1007,1014,2.6139,-0.6220,-0.1353,-0.0433,-0.0203,0.9893,1.1396,0.0773,-1.1372,-0.0798,1.4083,0.1218,0.1368,1.4083,0.1218,0.1368,0.3000,0.0600,0.0002,0,-0.5000,-100.0000,-0.0500,-0.5000,-100.0000,-0.0500,16.3291,57.2755,-0.0200,0.2700,0.0000,0.0000,0.0000,0.0000,0.0000,0.0000
-35.7726,44.8547,-15.6336,0.0829,-0.1642,-0.1800,1.6200,0.6400,0.0000,0.5273,-0.6075,0.0015,996,1497,1527,1502,2008,1000,1505,1000,1000,1281,1503,1007,1014,3.2075,-0.9990,-0.2216,-0.0451,-0.0249,0.9956,1.1363,0.0787,-1.1333,-0.0817,1.4083,0.1218,0.1368,1.4083,0.1218,0.1368,0.3000,0.0600,0.0002,0,-0.5000,-100.0000,-0.0500,-0.5000,-100.0000,-0.0500,16.3598,57.3069,-0.0300,0.2700,0.0000,0.0000,0.0000,0.0000,0.0000,0.0000
-35.6971,44.8199,-15.6024,0.0829,-0.0000,-0.1800,1.6200,0.6400,0.0000,0.5256,-0.6067,0.0017,996,1497,1527,1502,2008,1000,1505,1000,1000,1281,1503,1007,1014,3.6904,-1.2541,-0.2600,-0.0399,-0.0209,0.9890,1.1339,0.0794,-1.1306,-0.0828,1.4083,0.1218,0.1368,1.4083,0.1218,0.1368,0.3000,0.0600,0.0002,0,-0.5000,-100.0000,-0.0500,-0.5000,-100.0000,-0.0500,16.3905,57.3382,-0.0300,0.2700,0.0000,0.0000,0.0000,0.0000,0.0000,0.0000
-35.6166,44.7827,-15.5704,-0.0829,-0.1642,-0.1800,1.6200,0.6400,0.0000,0.5240,-0.6058,0.0018,996,1497,1527,1502,2008,1000,1505,1000,1000,1281,1503,1007,1014,3.9889,-1.4757,-0.3077,-0.0404,-0.0187,0.9925,1.1317,0.0800,-1.1281,-0.0836,1.4083,0.1218,0.1368,1.4083,0.1218,0.1368,0.3000,0.0600,0.0002,0,-0.5000,-100.0000,-0.0500,-0.5000,-100.0000,-0.0500,16.4212,57.3696,-0.0300,0.2700,0.0000,0.0000,0.0000,0.0000,0.0000,0.0000
-35.5317,44.7448,-15.5360,0.0829,-0.0821,-0.1800,1.6200,0.6400,0.0000,0.5226,-0.6053,0.0013,996,1497,1527,1502,2008,1000,1505,1000,1000,1281,1503,1007,1014,4.1727,-1.4950,-0.1629,-0.0369,-0.0145,0.9882,1.1292,0.0814,-1.1266,-0.0840,1.4083,0.1218,0.1368,1.4083,0.1218,0.1368,0.3000,0.0600,0.0002,0,-0.5000,-100.0000,-0.0500,-0.5000,-100.0000,-0.0500,16.4519,57.4009,-0.0300,0.2700,0.0000,0.0000,0.0000,0.0000,0.0000,0.0000
-35.4485,44.7086,-15.5021,0.0829,-0.0000,-0.1800,1.6200,0.6400,0.0000,0.5218,-0.6050,0.0013,996,1497,1527,1502,2008,1000,1505,1000,1000,1281,1503,1007,1014,3.8681,-1.3557,-0.1435,-0.0367,-0.0083,0.9924,1.1281,0.0819,-1.1256,-0.0844,1.4083,0.1218,0.1368,1.4083,0.1218,0.1368,0.3000,0.0600,0.0002,0,-0.5000,-100.0000,-0.0500,-0.5000,-100.0000,-0.0500,16.4826,57.4323,-0.0300,0.2700,0.0000,0.0000,0.0000,0.0000,0.0000,0.0000
-35.3688,44.6747,-15.4699,-0.0000,-0.0821,-0.1200,1.6200,0.9600,0.0000,0.5221,-0.6053,0.0012,996,1497,1527,1502,2008,1000,1505,1000,1000,1281,1503,1007,1014,3.4661,-0.7275,-0.0928,-0.0257,0.0032,0.9846,1.1287,0.0820,-1.1263,-0.0844,1.4083,0.1218,0.1368,1.4083,0.1218,0.1368,0.3000,0.0600,0.0002,0,-0.5000,-100.0000,-0.0500,-0.5000,-100.0000,-0.0500,16.5132,57.4637,-0.0200,0.2700,0.0000,0.0000,0.0000,0.0000,0.0000,0.0000
-35.3033,44.6473,-15.4430,-0.0000,-0.0000,-0.1800,1.6200,0.6400,0.0000,0.5219,-0.6055,0.0012,996,1497,1527,1502,2008,1000,1505,1000,1000,1281,1503,1007,1014,2.3422,-0.3165,-0.0848,-0.0355,-0.0030,0.9989,1.1286,0.0825,-1.1263,-0.0848,1.4083,0.1218,0.1368,1.4083,0.1218,0.1368,0.3000,0.0600,0.0002,0,-0.5000,-100.0000,-0.0500,-0.5000,-100.0000,-0.0500,16.5439,57.4950,-0.0300,0.2700,0.0000,0.0000,0.0000,0.0000,0.0000,0.0000
-35.2494,44.6243,-15.4197,-0.0000,-0.0821,-0.1800,1.6200,0.6400,0.0000,0.5224,-0.6060,0.0011,996,1497,1527,1502,2008,1000,1505,1000,1000,1281,1503,1007,1014,1.3851,0.2495,-0.0549,-0.0347,0.0079,0.9891,1.1295,0.0824,-1.1273,-0.0846,1.4083,0.1218,0.1368,1.4083,0.1218,0.1368,0.3000,0.0600,0.0002,0,-0.5000,-100.0000,-0.0500,-0.5000,-100.0000,-0.0500,16.5745,57.5264,-0.0300,0.2700,0.0000,0.0000,0.0000,0.0000,0.0000,0.0000
-35.2104,44.6035,-15.3980,-0.0829,-0.0821,-0.1800,1.6200,0.6400,0.0000,0.5238,-0.6057,0.0006,996,1497,1527,1502,2008,1000,1505,1000,1000,1281,1503,1007,1014,-0.0454,0.2542,0.0851,-0.0379,0.0052,0.9978,1.1301,0.0812,-1.1289,-0.0824,1.4083,0.1218,0.1368,1.4083,0.1218,0.1368,0.3000,0.0600,0.0002,0,-0.5000,-100.0000,-0.0500,-0.5000,-100.0000,-0.0500,16.6051,57.5577,-0.0300,0.2700,0.0000,0.0000,0.0000,0.0000,0.0000,0.0000
-35.1807,44.5820,-15.3747,-0.0000,-0.0821,-0.1800,1.6200,0.6400,0.0000,0.5244,-0.6051,0.0008,996,1497,1527,1502,2008,1000,1505,1000,1000,1281,1503,1007,1014,-0.7343,0.0412,0.0170,-0.0425,0.0058,0.9901,1.1303,0.0799,-1.1286,-0.0815,1.4083,0.1218,0.1368,1.4083,0.1218,0.1368,0.3000,0.0600,0.0002,0,-0.5000,-100.0000,-0.0500,-0.5000,-100.0000,-0.0500,16.6357,57.5890,-0.0300,0.2700,0.0000,0.0000,0.0000,0.0000,0.0000,0.0000
-35.1577,44.5569,-15.3490,-0.0000,-0.1642,-0.1800,1.6200,0.6400,0.0000,0.5249,-0.6040,0.0008,996,1497,1527,1502,2008,1000,1505,1000,1000,1281,1503,1007,1014,-1.3681,-0.5007,0.0443,-0.0439,-0.0099,0.9959,1.1297,0.0783,-1.1281,-0.0798,1.4083,0.1218,0.1368,1.4083,0.1218,0.1368,0.3000,0.0600,0.0002,0,-0.5000,-100.0000,-0.0500,-0.5000,-100.0000,-0.0500,16.6663,57.6202,-0.0300,0.2700,0.0000,0.0000,0.0000,0.0000,0.0000,0.0000
-35.1316,44.5282,-15.3178,-0.0000,-0.0821,-0.1200,1.6200,0.9600,0.0000,0.5251,-0.6030,0.0003,996,1497,1527,1502,2008,1000,1505,1000,1000,1281,1503,1007,1014,-1.1494,-0.9051,0.2146,-0.0412,-0.0147,0.9852,1.1284,0.0777,-1.1279,-0.0782,1.4083,0.1218,0.1368,1.4083,0.1218,0.1368,0.3000,0.0600,0.0002,0,-0.5000,-100.0000,-0.0500,-0.5000,-100.0000,-0.0500,16.6968,57.6515,-0.0200,0.2700,0.0000,0.0000,0.0000,0.0000,0.0000,0.0000
-35.0977,44.4952,-15.2812,0.0829,-0.0821,-0.1800,1.6200,0.6400,0.0000,0.5229,-0.6019,0.0002,996,1497,1527,1502,2008,1000,1505,1000,1000,1281,1503,1007,1014,-0.5380,-1.4068,0.2413,-0.0408,-0.0228,0.9959,1.1250,0.0788,-1.1246,-0.0791,1.4083,0.1218,0.1368,1.4083,0.1218,0.1368,0.3000,0.0600,0.0002,0,-0.5000,-100.0000,-0.0500,-0.5000,-100.0000,-0.0500,16.7274,57.6828,-0.0300,0.2700,0.0000,0.0000,0.0000,0.0000,0.0000,0.0000
-35.0537,44.4605,-15.2417,-0.0000,-0.0821,-0.1800,1.6200,0.6400,0.0000,0.5211,-0.6013,-0.0001,996,1497,1527,1502,2008,1000,1505,1000,1000,1281,1503,1007,1014,0.3860,-1.4857,0.3287,-0.0367,-0.0285,0.9881,1.1223,0.0803,-1.1224,-0.0802,1.4083,0.1218,0.1368,1.4083,0.1218,0.1368,0.3000,0.0600,0.0002,0,-0.5000,-100.0000,-0.0500,-0.5000,-100.0000,-0.0500,16.7579,57.7140,-0.0300,0.2700,0.0000,0.0000,0.0000,0.0000,0.0000,0.0000
-35.0001,44.4259,-15.2030,-0.0000,-0.1642,-0.1800,1.6200,0.6400,0.0000,0.5190,-0.6009,0.0003,996,1497,1527,1502,2008,1000,1505,1000,1000,1281,1503,1007,1014,1.3462,-1.4237,0.2091,-0.0334,-0.0251,0.9942,1.1202,0.0816,-1.1195,-0.0822,1.4083,0.1218,0.1368,1.4083,0.1218,0.1368,0.3000,0.0600,0.0002,0,-0.5000,-100.0000,-0.0500,-0.5000,-100.0000,-0.0500,16.7884,57.7453,-0.0300,0.2700,0.0000,0.0000,0.0000,0.0000,0.0000,0.0000
-34.9411,44.3920,-15.1686,-0.0000,-0.0821,-0.1800,1.6200,0.6400,0.0000,0.5173,-0.6010,0.0010,996,1497,1527,1502,2008,1000,1505,1000,1000,1281,1503,1007,1014,1.9986,-1.0241,-0.0027,-0.0320,-0.0185,0.9886,1.1192,0.0827,-1.1173,-0.0847,1.4083,0.1218,0.1368,1.4083,0.1218,0.1368,0.3000,0.0600,0.0002,0,-0.5000,-100.0000,-0.0500,-0.5000,-100.0000,-0.0500,16.8189,57.7766,-0.0300,0.2700,0.0000,0.0000,0.0000,0.0000,0.0000,0.0000
-34.8821,44.3607,-15.1401,0.0829,-0.0821,-0.1800,1.6200,0.6400,0.0000,0.5161,-0.6013,0.0018,996,1497,1527,1502,2008,1000,1505,1000,1000,1281,1503,1007,1014,2.2053,-0.4599,-0.3019,-0.0303,-0.0135,0.9941,1.1193,0.0833,-1.1156,-0.0870,1.4083,0.1218,0.1368,1.4083,0.1218,0.1368,0.3000,0.0600,0.0002,0,-0.5000,-100.0000,-0.0500,-0.5000,-100.0000,-0.0500,16.8494,57.8079,-0.0300,0.2700,0.0000,0.0000,0.0000,0.0000,0.0000,0.0000
-34.8283,44.3333,-15.1201,-0.0000,-0.0821,-0.1200,1.6200,0.9600,0.0000,0.5165,-0.6018,0.0024,996,1497,1527,1502,2008,1000,1505,1000,1000,1281,1503,1007,1014,2.0107,0.1716,-0.4866,-0.0331,-0.0039,0.9925,1.1207,0.0828,-1.1158,-0.0877,1.4083,0.1218,0.1368,1.4083,0.1218,0.1368,0.3000,0.0600,0.0002,0,-0.5000,-100.0000,-0.0500,-0.5000,-100.0000,-0.0500,16.8799,57.8392,-0.0200,0.2700,0.0000,0.0000,0.0000,0.0000,0.0000,0.0000
-34.7835,44.3103,-15.1076,-0.0000,-0.0821,-0.1800,1.6200,0.6400,0.0000,0.5157,-0.6023,0.0027,996,1497,1527,1502,2008,1000,1505,1000,1000,1281,1503,1007,1014,1.5399,0.7871,-0.6031,-0.0304,-0.0001,0.9969,1.1207,0.0839,-1.1152,-0.0894,1.4083,0.1218,0.1368,1.4083,0.1218,0.1368,0.3000,0.0600,0.0002,0,-0.5000,-100.0000,-0.0500,-0.5000,-100.0000,-0.0500,16.9104,57.8704,-0.0300,0.2700,0.0000,0.0000,0.0000,0.0000,0.0000,0.0000
-34.7499,44.2937,-15.1009,-0.1657,-0.1642,-0.1800,1.6200,0.6400,0.0000,0.5164,-0.6030,0.0027,996,1497,1527,1502,2008,1000,1505,1000,1000,1281,1503,1007,1014,0.6897,1.4842,-0.5676,-0.0318,0.0022,0.9904,1.1220,0.0840,-1.1167,-0.0893,1.4083,0.1218,0.1368,1.4083,0.1218,0.1368,0.3000,0.0600,0.0002,0,-0.5000,-100.0000,-0.0500,-0.5000,-100.0000,-0.0500,16.9408,57.9017,-0.0300,0.2700,0.0000,0.0000,0.0000,0.0000,0.0000,0.0000
-34.7267,44.2816,-15.0970,-0.0000,-0.1642,-0.1800,1.6200,0.6400,0.0000,0.5171,-0.6033,0.0021,996,1497,1527,1502,2008,1000,1505,1000,1000,1281,1503,1007,1014,-0.1200,1.8050,-0.3860,-0.0358,0.0058,0.9930,1.1225,0.0841,-1.1183,-0.0882,1.4083,0.1218,0.1368,1.4083,0.1218,0.1368,0.3000,0.0600,0.0002,0,-0.5000,-100.0000,-0.0500,-0.5000,-100.0000,-0.0500,16.9712,57.9329,-0.0300,0.2700,0.0000,0.0000,0.0000,0.0000,0.0000,0.0000
-34.7092,44.2721,-15.0902,-0.1657,-0.2462,-0.1800,1.6200,0.6400,0.0000,0.5178,-0.6030,0.0010,996,1497,1527,1502,2008,1000,1505,1000,1000,1281,1503,1007,1014,-0.7549,1.7371,-0.0340,-0.0388,-0.0029,0.9914,1.1218,0.0842,-1.1198,-0.0863,1.4083,0.1218,0.1368,1.4083,0.1218,0.1368,0.3000,0.0600,0.0002,0,-0.5000,-100.0000,-0.0500,-0.5000,-100.0000,-0.0500,17.0017,57.9642,-0.0300,0.2700,0.0000,0.0000,0.0000,0.0000,0.0000,0.0000
-34.6943,44.2630,-15.0790,-0.0000,-0.1642,-0.1800,1.6200,0.6400,0.0000,0.5180,-0.6026,0.0003,996,1497,1527,1502,2008,1000,1505,1000,1000,1281,1503,1007,1014,-1.1062,1.4929,0.1790,-0.0435,-0.0031,0.9915,1.1209,0.0843,-1.1203,-0.0849,1.4083,0.1218,0.1368,1.4083,0.1218,0.1368,0.3000,0.0600,0.0002,0,-0.5000,-100.0000,-0.0500,-0.5000,-100.0000,-0.0500,17.0321,57.9955,-0.0300,0.2700,0.0000,0.0000,0.0000,0.0000,0.0000,0.0000
-34.6768,44.2517,-15.0606,-0.1657,-0.2462,-0.1200,1.6200,0.9600,0.0000,0.5188,-0.6016,-0.0005,996,1497,1527,1502,2008,1000,1505,1000,1000,1281,1503,1007,1014,-1.1963,0.9223,0.4866,-0.0395,-0.0097,0.9890,1.1199,0.0834,-1.1209,-0.0824,1.4083,0.1218,0.1368,1.4083,0.1218,0.1368,0.3000,0.0600,0.0002,0,-0.5000,-100.0000,-0.0500,-0.5000,-100.0000,-0.0500,17.0626,58.0268,-0.0200,0.2700,0.0000,0.0000,0.0000,0.0000,0.0000,0.0000
-34.6544,44.2372,-15.0357,-0.0829,-0.0821,-0.1800,1.6200,0.6400,0.0000,0.5175,-0.6008,-0.0008,996,1497,1527,1502,2008,1000,1505,1000,1000,1281,1503,1007,1014,-1.1224,0.4572,0.5873,-0.0451,-0.0151,0.9895,1.1175,0.0841,-1.1191,-0.0825,1.4083,0.1218,0.1368,1.4083,0.1218,0.1368,0.3000,0.0600,0.0002,0,-0.5000,-100.0000,-0.0500,-0.5000,-100.0000,-0.0500,17.0930,58.0581,-0.0300,0.2700,0.0000,0.0000,0.0000,0.0000,0.0000,0.0000
-34.6275,44.2193,-15.0075,0.0829,-0.0821,-0.1800,1.6200,0.6400,0.0000,0.5167,-0.6001,-0.0005,996,1497,1527,1502,2008,1000,1505,1000,1000,1281,1503,1007,1014,-0.7954,0.0960,0.4968,-0.0402,-0.0148,0.9902,1.1162,0.0839,-1.1173,-0.0828,1.4083,0.1218,0.1368,1.4083,0.1218,0.1368,0.3000,0.0600,0.0002,0,-0.5000,-100.0000,-0.0500,-0.5000,-100.0000,-0.0500,17.1234,58.0894,-0.0300,0.2700,0.0000,0.0000,0.0000,0.0000,0.0000,0.0000
-34.5975,44.1997,-14.9801,-0.0000,-0.1642,-0.1800,1.6200,0.6400,0.0000,0.5158,-0.5999,-0.0003,996,1497,1527,1502,2008,1000,1505,1000,1000,1281,1503,1007,1014,-0.5094,0.1561,0.4385,-0.0396,-0.0171,0.9938,1.1154,0.0844,-1.1161,-0.0837,1.4083,0.1218,0.1368,1.4083,0.1218,0.1368,0.3000,0.0600,0.0002,0,-0.5000,-100.0000,-0.0500,-0.5000,-100.0000,-0.0500,17.1538,58.1207,-0.0300,0.2700,0.0000,0.0000,0.0000,0.0000,0.0000,0.0000
-34.5670,44.1787,-14.9555,-0.0000,-0.0821,-0.1800,1.6200,0.6400,0.0000,0.5152,-0.5998,0.0009,996,1497,1527,1502,2008,1000,1505,1000,1000,1281,1503,1007,1014,-0.3232,0.3266,0.0520,-0.0322,-0.0161,0.9939,1.1158,0.0838,-1.1141,-0.0855,1.4083,0.1218,0.1368,1.4083,0.1218,0.1368,0.3000,0.0600,0.0002,0,-0.5000,-100.0000,-0.0500,-0.5000,-100.0000,-0.0500,17.1842,58.1521,-0.0300,0.2700,0.0000,0.0000,0.0000,0.0000,0.0000,0.0000
-34.5385,44.1585,-14.9361,0.0829,-0.0000,-0.1800,1.6200,0.6400,0.0000,0.5146,-0.5998,0.0011,996,1497,1527,1502,2008,1000,1505,1000,1000,1281,1503,1007,1014,-0.2239,0.5353,-0.0370,-0.0330,-0.0134,0.9906,1.1155,0.0841,-1.1134,-0.0862,1.4083,0.1218,0.1368,1.4083,0.1218,0.1368,0.3000,0.0600,0.0002,0,-0.5000,-100.0000,-0.0500,-0.5000,-100.0000,-0.0500,17.2146,58.1834,-0.0300,0.2700,0.0000,0.0000,0.0000,0.0000,0.0000,0.0000
-34.5125,44.1391,-14.9204,0.0829,-0.0000,-0.1200,1.6200,0.9600,0.0000,0.5151,-0.5999,0.0016,996,1497,1527,1502,2008,1000,1505,1000,1000,1281,1503,1007,1014,-0.2255,0.8318,-0.2284,-0.0348,-0.0068,0.9887,1.1167,0.0832,-1.1134,-0.0864,1.4083,0.1218,0.1368,1.4083,0.1218,0.1368,0.3000,0.0600,0.0002,0,-0.5000,-100.0000,-0.0500,-0.5000,-100.0000,-0.0500,17.2449,58.2147,-0.0200,0.2700,0.0000,0.0000,0.0000,0.0000,0.0000,0.0000
-34.4896,44.1221,-14.9079,0.0829,-0.0821,-0.1800,1.6200,0.6400,0.0000,0.5142,-0.6000,0.0016,996,1497,1527,1502,2008,1000,1505,1000,1000,1281,1503,1007,1014,-0.4027,1.0752,-0.2171,-0.0348,-0.0048,0.9916,1.1158,0.0842,-1.1126,-0.0874,1.4083,0.1218,0.1368,1.4083,0.1218,0.1368,0.3000,0.0600,0.0002,0,-0.5000,-100.0000,-0.0500,-0.5000,-100.0000,-0.0500,17.2753,58.2459,-0.0300,0.2700,0.0000,0.0000,0.0000,0.0000,0.0000,0.0000
-34.4697,44.1057,-14.8959,-0.0000,-0.0000,-0.1800,1.6200,0.6400,0.0000,0.5142,-0.5998,0.0017,996,1497,1527,1502,2008,1000,1505,1000,1000,1281,1503,1007,1014,-0.6558,1.0546,-0.2296,-0.0387,-0.0085,0.9861,1.1157,0.0839,-1.1124,-0.0872,1.4083,0.1218,0.1368,1.4083,0.1218,0.1368,0.3000,0.0600,0.0002,0,-0.5000,-100.0000,-0.0500,-0.5000,-100.0000,-0.0500,17.3056,58.2772,-0.0300,0.2700,0.0000,0.0000,0.0000,0.0000,0.0000,0.0000
-34.4509,44.0900,-14.8823,-0.0000,-0.0821,-0.1800,1.6200,0.6400,0.0000,0.5143,-0.5993,0.0011,996,1497,1527,1502,2008,1000,1505,1000,1000,1281,1503,1007,1014,-0.8509,0.8754,-0.0342,-0.0410,-0.0070,0.9934,1.1146,0.0840,-1.1125,-0.0861,1.4083,0.1218,0.1368,1.4083,0.1218,0.1368,0.3000,0.0600,0.0002,0,-0.5000,-100.0000,-0.0500,-0.5000,-100.0000,-0.0500,17.3359,58.3084,-0.0300,0.2700,0.0000,0.0000,0.0000,0.0000,0.0000,0.0000
-34.4316,44.0732,-14.8638,-0.0000,-0.0821,-0.1800,1.6200,0.6400,0.0000,0.5145,-0.5987,0.0004,996,1497,1527,1502,2008,1000,1505,1000,1000,1281,1503,1007,1014,-1.2267,0.5989,0.2060,-0.0393,-0.0085,0.9905,1.1135,0.0838,-1.1128,-0.0846,1.4083,0.1218,0.1368,1.4083,0.1218,0.1368,0.3000,0.0600,0.0002,0,-0.5000,-100.0000,-0.0500,-0.5000,-100.0000,-0.0500,17.3662,58.3397,-0.0300,0.2700,0.0000,0.0000,0.0000,0.0000,0.0000,0.0000
-34.4114,44.0548,-14.8410,-0.0000,0.0821,-0.1800,1.6200,0.6400,0.0000,0.5142,-0.5980,0.0001,996,1497,1527,1502,2008,1000,1505,1000,1000,1281,1503,1007,1014,-1.2437,0.2783,0.2767,-0.0386,-0.0097,0.9959,1.1124,0.0836,-1.1121,-0.0839,1.4083,0.1218,0.1368,1.4083,0.1218,0.1368,0.3000,0.0600,0.0002,0,-0.5000,-100.0000,-0.0500,-0.5000,-100.0000,-0.0500,17.3964,58.3709,-0.0300,0.2700,0.0000,0.0000,0.0000,0.0000,0.0000,0.0000
-34.3881,44.0335,-14.8136,0.0829,-0.0821,-0.1200,1.6200,0.9600,0.0000,0.5147,-0.5972,0.0000,996,1497,1527,1502,2008,1000,1505,1000,1000,1281,1503,1007,1014,-1.2082,-0.0515,0.3492,-0.0393,-0.0122,0.9921,1.1120,0.0825,-1.1119,-0.0826,1.4083,0.1218,0.1368,1.4083,0.1218,0.1368,0.3000,0.0600,0.0002,0,-0.5000,-100.0000,-0.0500,-0.5000,-100.0000,-0.0500,17.4267,58.4022,-0.0200,0.2700,0.0000,0.0000,0.0000,0.0000,0.0000,0.0000
-34.3624,44.0096,-14.7846,-0.0000,-0.0821,-0.1800,1.6200,0.6400,0.0000,0.5132,-0.5964,0.0000,996,1497,1527,1502,2008,1000,1505,1000,1000,1281,1503,1007,1014,-1.0125,-0.4027,0.3221,-0.0412,-0.0169,0.9940,1.1097,0.0832,-1.1096,-0.0832,1.4083,0.1218,0.1368,1.4083,0.1218,0.1368,0.3000,0.0600,0.0002,0,-0.5000,-100.0000,-0.0500,-0.5000,-100.0000,-0.0500,17.4569,58.4334,-0.0300,0.2700,0.0000,0.0000,0.0000,0.0000,0.0000,0.0000
-34.3324,43.9833,-14.7535,0.0829,-0.0821,-0.1800,1.6200,0.6400,0.0000,0.5124,-0.5959,0.0004,996,1497,1527,1502,2008,1000,1505,1000,1000,1281,1503,1007,1014,-0.7333,-0.4775,0.2402,-0.0442,-0.0169,0.9906,1.1087,0.0832,-1.1080,-0.0839,1.4083,0.1218,0.1368,1.4083,0.1218,0.1368,0.3000,0.0600,0.0002,0,-0.5000,-100.0000,-0.0500,-0.5000,-100.0000,-0.0500,17.4871,58.4646,-0.0300,0.2700,0.0000,0.0000,0.0000,0.0000,0.0000,0.0000
-34.3009,43.9556,-14.7245,-0.0000,-0.0000,-0.1800,1.6200,0.6400,0.0000,0.5116,-0.5954,0.0010,996,1497,1527,1502,2008,1000,1505,1000,1000,1281,1503,1007,1014,-0.4606,-0.5750,0.0201,-0.0397,-0.0166,0.9920,1.1080,0.0828,-1.1060,-0.0848,1.4083,0.1218,0.1368,1.4083,0.1218,0.1368,0.3000,0.0600,0.0002,0,-0.5000,-100.0000,-0.0500,-0.5000,-100.0000,-0.0500,17.5173,58.4959,-0.0300,0.2700,0.0000,0.0000,0.0000,0.0000,0.0000,0.0000
-34.2668,43.9251,-14.6960,-0.0000,-0.0000,-0.1800,1.6200,0.6400,0.0000,0.5107,-0.5949,0.0013,996,1497,1527,1502,2008,1000,1505,1000,1000,1281,1503,1007,1014,-0.1492,-0.6673,-0.0930,-0.0359,-0.0156,0.9923,1.1069,0.0828,-1.1042,-0.0855,1.4083,0.1218,0.1368,1.4083,0.1218,0.1368,0.3000,0.0600,0.0002,0,-0.5000,-100.0000,-0.0500,-0.5000,-100.0000,-0.0500,17.5475,58.5271,-0.0300,0.2700,0.0000,0.0000,0.0000,0.0000,0.0000,0.0000
-34.2306,43.8943,-14.6689,-0.0829,-0.0821,-0.1800,1.6200,0.6400,0.0000,0.5098,-0.5943,0.0017,996,1497,1527,1502,2008,1000,1505,1000,1000,1281,1503,1007,1014,0.1150,-0.7441,-0.1968,-0.0383,-0.0150,0.9936,1.1058,0.0828,-1.1025,-0.0862,1.4083,0.1218,0.1368,1.4083,0.1218,0.1368,0.3000,0.0600,0.0002,0,-0.5000,-100.0000,-0.0500,-0.5000,-100.0000,-0.0500,17.5777,58.5582,-0.0300,0.2700,0.0000,0.0000,0.0000,0.0000,0.0000,0.0000
-34.1922,43.8628,-14.6425,-0.0000,-0.0000,-0.1200,1.6200,0.9600,0.0000,0.5098,-0.5940,0.0018,996,1497,1527,1502,2008,1000,1505,1000,1000,1281,1503,1007,1014,0.3705,-0.6664,-0.2391,-0.0357,-0.0117,0.9938,1.1056,0.0824,-1.1020,-0.0860,1.4083,0.1218,0.1368,1.4083,0.1218,0.1368,0.3000,0.0600,0.0002,0,-0.5000,-100.0000,-0.0500,-0.5000,-100.0000,-0.0500,17.6078,58.5894,-0.0200,0.2700,0.0000,0.0000,0.0000,0.0000,0.0000,0.0000
-34.1525,43.8323,-14.6167,-0.1657,-0.1642,-0.1800,1.6200,0.6400,0.0000,0.5082,-0.5937,0.0015,996,1497,1527,1502,2008,1000,1505,1000,1000,1281,1503,1007,1014,0.5027,-0.5464,-0.1453,-0.0379,-0.0112,0.9970,1.1034,0.0841,-1.1005,-0.0870,1.4083,0.1218,0.1368,1.4083,0.1218,0.1368,0.3000,0.0600,0.0002,0,-0.5000,-100.0000,-0.0500,-0.5000,-100.0000,-0.0500,17.6379,58.6205,-0.0300,0.2700,0.0000,0.0000,0.0000,0.0000,0.0000,0.0000
-34.1123,43.8017,-14.5920,-0.0000,-0.0821,-0.1800,1.6200,0.6400,0.0000,0.5076,-0.5933,0.0020,996,1497,1527,1502,2008,1000,1505,1000,1000,1281,1503,1007,1014,0.5170,-0.5783,-0.3207,-0.0371,-0.0124,0.9857,1.1029,0.0836,-1.0989,-0.0876,1.4083,0.1218,0.1368,1.4083,0.1218,0.1368,0.3000,0.0600,0.0002,0,-0.5000,-100.0000,-0.0500,-0.5000,-100.0000,-0.0500,17.6681,58.6517,-0.0300,0.2700,0.0000,0.0000,0.0000,0.0000,0.0000,0.0000
-34.0714,43.7714,-14.5677,0.0829,-0.0821,-0.1800,1.6200,0.6400,0.0000,0.5068,-0.5930,0.0015,996,1497,1527,1502,2008,1000,1505,1000,1000,1281,1503,1007,1014,0.6772,-0.4765,-0.1743,-0.0390,-0.0128,0.9955,1.1013,0.0847,-1.0983,-0.0876,1.4083,0.1218,0.1368,1.4083,0.1218,0.1368,0.3000,0.0600,0.0002,0,-0.5000,-100.0000,-0.0500,-0.5000,-100.0000,-0.0500,17.6982,58.6829,-0.0300,0.2700,0.0000,0.0000,0.0000,0.0000,0.0000,0.0000
-34.0301,43.7423,-14.5428,-0.0000,-0.0821,-0.1800,1.6200,0.6400,0.0000,0.5063,-0.5926,0.0015,996,1497,1527,1502,2008,1000,1505,1000,1000,1281,1503,1007,1014,0.6436,-0.4642,-0.1528,-0.0373,-0.0118,0.9882,1.1003,0.0848,-1.0974,-0.0878,1.4083,0.1218,0.1368,1.4083,0.1218,0.1368,0.3000,0.0600,0.0002,0,-0.5000,-100.0000,-0.0500,-0.5000,-100.0000,-0.0500,17.7283,58.7141,-0.0300,0.2700,0.0000,0.0000,0.0000,0.0000,0.0000,0.0000
-33.9879,43.7133,-14.5169,-0.0000,-0.0821,-0.1800,1.6200,0.6400,0.0000,0.5057,-0.5920,0.0012,996,1497,1527,1502,2008,1000,1505,1000,1000,1281,1503,1007,1014,0.6321,-0.5659,-0.0600,-0.0384,-0.0118,0.9911,1.0990,0.0851,-1.0965,-0.0876,1.4083,0.1218,0.1368,1.4083,0.1218,0.1368,0.3000,0.0600,0.0002,0,-0.5000,-100.0000,-0.0500,-0.5000,-100.0000,-0.0500,17.7584,58.7453,-0.0300,0.2700,0.0000,0.0000,0.0000,0.0000,0.0000,0.0000
-33.9454,43.6849,-14.4902,-0.0000,-0.0821,-0.1200,1.6200,0.9600,0.0000,0.5060,-0.5919,0.0010,996,1497,1527,1502,2008,1000,1505,1000,1000,1281,1503,1007,1014,0.6308,-0.3989,0.0207,-0.0363,-0.0116,0.9910,1.0988,0.0849,-1.0968,-0.0869,1.4083,0.1218,0.1368,1.4083,0.1218,0.1368,0.3000,0.0600,0.0002,0,-0.5000,-100.0000,-0.0500,-0.5000,-100.0000,-0.0500,17.7885,58.7766,-0.0200,0.2700,0.0000,0.0000,0.0000,0.0000,0.0000,0.0000
-33.9029,43.6567,-14.4640,-0.0829,-0.0000,-0.1800,1.6200,0.6400,0.0000,0.5044,-0.5914,0.0012,996,1497,1527,1502,2008,1000,1505,1000,1000,1281,1503,1007,1014,0.6838,-0.4286,-0.0331,-0.0364,-0.0121,0.9909,1.0970,0.0858,-1.0947,-0.0881,1.4083,0.1218,0.1368,1.4083,0.1218,0.1368,0.3000,0.0600,0.0002,0,-0.5000,-100.0000,-0.0500,-0.5000,-100.0000,-0.0500,17.8186,58.8078,-0.0300,0.2700,0.0000,0.0000,0.0000,0.0000,0.0000,0.0000
-33.8603,43.6290,-14.4385,-0.0000,-0.1642,-0.1800,1.6200,0.6400,0.0000,0.5038,-0.5911,0.0012,996,1497,1527,1502,2008,1000,1505,1000,1000,1281,1503,1007,1014,0.7139,-0.3441,-0.0192,-0.0371,-0.0148,0.9908,1.0961,0.0862,-1.0938,-0.0885,1.4083,0.1218,0.1368,1.4083,0.1218,0.1368,0.3000,0.0600,0.0002,0,-0.5000,-100.0000,-0.0500,-0.5000,-100.0000,-0.0500,17.8487,58.8390,-0.0300,0.2700,0.0000,0.0000,0.0000,0.0000,0.0000,0.0000
-33.8183,43.6016,-14.4142,0.0829,-0.1642,-0.1800,1.6200,0.6400,0.0000,0.5031,-0.5909,0.0014,996,1497,1527,1502,2008,1000,1505,1000,1000,1281,1503,1007,1014,0.7825,-0.2292,-0.1150,-0.0351,-0.0128,0.9935,1.0955,0.0864,-1.0926,-0.0892,1.4083,0.1218,0.1368,1.4083,0.1218,0.1368,0.3000,0.0600,0.0002,0,-0.5000,-100.0000,-0.0500,-0.5000,-100.0000,-0.0500,17.8787,58.8702,-0.0300,0.2700,0.0000,0.0000,0.0000,0.0000,0.0000,0.0000
-33.7778,43.5751,-14.3922,-0.0000,-0.0821,-0.1800,1.6200,0.6400,0.0000,0.5026,-0.5908,0.0017,996,1497,1527,1502,2008,1000,1505,1000,1000,1281,1503,1007,1014,0.7204,-0.0513,-0.1903,-0.0317,-0.0112,0.9933,1.0951,0.0865,-1.0917,-0.0898,1.4083,0.1218,0.1368,1.4083,0.1218,0.1368,0.3000,0.0600,0.0002,0,-0.5000,-100.0000,-0.0500,-0.5000,-100.0000,-0.0500,17.9088,58.9014,-0.0300,0.2700,0.0000,0.0000,0.0000,0.0000,0.0000,0.0000
-33.7395,43.5495,-14.3720,-0.0000,-0.0000,-0.1800,1.6200,0.6400,0.0000,0.5022,-0.5906,0.0019,996,1497,1527,1502,2008,1000,1505,1000,1000,1281,1503,1007,1014,0.6650,0.0895,-0.2510,-0.0325,-0.0113,0.9949,1.0947,0.0866,-1.0909,-0.0904,1.4083,0.1218,0.1368,1.4083,0.1218,0.1368,0.3000,0.0600,0.0002,0,-0.5000,-100.0000,-0.0500,-0.5000,-100.0000,-0.0500,17.9388,58.9325,-0.0300,0.2700,0.0000,0.0000,0.0000,0.0000,0.0000,0.0000
-33.7034,43.5253,-14.3537,-0.0000,-0.0821,-0.1200,1.6200,0.9600,0.0000,0.5027,-0.5905,0.0016,996,1497,1527,1502,2008,1000,1505,1000,1000,1281,1503,1007,1014,0.4899,0.2431,-0.1762,-0.0364,-0.0102,0.9886,1.0948,0.0862,-1.0917,-0.0893,1.4083,0.1218,0.1368,1.4083,0.1218,0.1368,0.3000,0.0600,0.0002,0,-0.5000,-100.0000,-0.0500,-0.5000,-100.0000,-0.0500,17.9688,58.9637,-0.0200,0.2700,0.0000,0.0000,0.0000,0.0000,0.0000,0.0000
-33.6691,43.5028,-14.3354,-0.0000,-0.0000,-0.1800,1.6200,0.6400,0.0000,0.5016,-0.5904,0.0018,996,1497,1527,1502,2008,1000,1505,1000,1000,1281,1503,1007,1014,0.3239,0.3948,-0.2254,-0.0354,-0.0106,0.9884,1.0938,0.0870,-1.0903,-0.0905,1.4083,0.1218,0.1368,1.4083,0.1218,0.1368,0.3000,0.0600,0.0002,0,-0.5000,-100.0000,-0.0500,-0.5000,-100.0000,-0.0500,17.9988,58.9949,-0.0300,0.2700,0.0000,0.0000,0.0000,0.0000,0.0000,0.0000
-33.6373,43.4812,-14.3185,-0.0000,-0.0000,-0.1800,1.6200,0.6400,0.0000,0.5014,-0.5901,0.0015,996,1497,1527,1502,2008,1000,1505,1000,1000,1281,1503,1007,1014,0.1936,0.4384,-0.1209,-0.0356,-0.0086,0.9921,1.0930,0.0873,-1.0900,-0.0902,1.4083,0.1218,0.1368,1.4083,0.1218,0.1368,0.3000,0.0600,0.0002,0,-0.5000,-100.0000,-0.0500,-0.5000,-100.0000,-0.0500,18.0287,59.0261,-0.0300,0.2700,0.0000,0.0000,0.0000,0.0000,0.0000,0.0000
-33.6061,43.4613,-14.3004,-0.0000,-0.0821,-0.1800,1.6200,0.6400,0.0000,0.5011,-0.5902,0.0011,996,1497,1527,1502,2008,1000,1505,1000,1000,1281,1503,1007,1014,0.0358,0.6576,0.0069,-0.0346,-0.0075,0.9940,1.0924,0.0879,-1.0901,-0.0902,1.4083,0.1218,0.1368,1.4083,0.1218,0.1368,0.3000,0.0600,0.0002,0,-0.5000,-100.0000,-0.0500,-0.5000,-100.0000,-0.0500,18.0587,59.0572,-0.0300,0.2700,0.0000,0.0000,0.0000,0.0000,0.0000,0.0000
-33.5768,43.4434,-14.2827,0.0829,-0.0000,-0.1800,1.6200,0.6400,0.0000,0.5009,-0.5900,0.0008,996,1497,1527,1502,2008,1000,1505,1000,1000,1281,1503,1007,1014,-0.1087,0.7425,0.0947,-0.0366,-0.0105,0.9905,1.0917,0.0883,-1.0902,-0.0899,1.4083,0.1218,0.1368,1.4083,0.1218,0.1368,0.3000,0.0600,0.0002,0,-0.5000,-100.0000,-0.0500,-0.5000,-100.0000,-0.0500,18.0886,59.0884,-0.0300,0.2700,0.0000,0.0000,0.0000,0.0000,0.0000,0.0000
-33.5487,43.4273,-14.2648,-0.0829,-0.0821,-0.1800,1.6200,0.6400,0.0000,0.5007,-0.5900,0.0005,996,1497,1527,1502,2008,1000,1505,1000,1000,1281,1503,1007,1014,-0.2419,0.9120,0.1902,-0.0371,-0.0102,0.9915,1.0912,0.0888,-1.0902,-0.0898,1.4083,0.1218,0.1368,1.4083,0.1218,0.1368,0.3000,0.0600,0.0002,0,-0.5000,-100.0000,-0.0500,-0.5000,-100.0000,-0.0500,18.1185,59.1196,-0.0300,0.2700,0.0000,0.0000,0.0000,0.0000,0.0000,0.0000
-33.5224,43.4131,-14.2477,-0.0000,-0.1642,-0.1200,1.6200,0.9600,0.0000,0.5013,-0.5900,0.0004,996,1497,1527,1502,2008,1000,1505,1000,1000,1281,1503,1007,1014,-0.3193,1.0680,0.2139,-0.0356,-0.0094,0.9916,1.0918,0.0883,-1.0909,-0.0892,1.4083,0.1218,0.1368,1.4083,0.1218,0.1368,0.3000,0.0600,0.0002,0,-0.5000,-100.0000,-0.0500,-0.5000,-100.0000,-0.0500,18.1484,59.1508,-0.0200,0.2700,0.0000,0.0000,0.0000,0.0000,0.0000,0.0000
-33.4979,43.3989,-14.2313,-0.0000,-0.0821,-0.1800,1.6200,0.6400,0.0000,0.5003,-0.5898,0.0005,996,1497,1527,1502,2008,1000,1505,1000,1000,1281,1503,1007,1014,-0.4818,1.0325,0.2057,-0.0395,-0.0126,0.9927,1.0906,0.0890,-1.0896,-0.0900,1.4083,0.1218,0.1368,1.4083,0.1218,0.1368,0.3000,0.0600,0.0002,0,-0.5000,-100.0000,-0.0500,-0.5000,-100.0000,-0.0500,18.1783,59.1819,-0.0300,0.2700,0.0000,0.0000,0.0000,0.0000,0.0000,0.0000
-33.4738,43.3849,-14.2148,-0.0000,-0.1642,-0.1800,1.6200,0.6400,0.0000,0.4999,-0.5896,0.0009,996,1497,1527,1502,2008,1000,1505,1000,1000,1281,1503,1007,1014,-0.3856,1.0731,0.0890,-0.0386,-0.0115,0.9885,1.0904,0.0889,-1.0886,-0.0907,1.4083,0.1218,0.1368,1.4083,0.1218,0.1368,0.3000,0.0600,0.0002,0,-0.5000,-100.0000,-0.0500,-0.5000,-100.0000,-0.0500,18.2081,59.2130,-0.0300,0.2700,0.0000,0.0000,0.0000,0.0000,0.0000,0.0000
-33.4494,43.3703,-14.1998,-0.0000,-0.0000,-0.1800,1.6200,0.6400,0.0000,0.4993,-0.5893,0.0009,996,1497,1527,1502,2008,1000,1505,1000,1000,1281,1503,1007,1014,-0.2563,0.9760,0.0627,-0.0399,-0.0140,0.9917,1.0896,0.0890,-1.0877,-0.0909,1.4083,0.1218,0.1368,1.4083,0.1218,0.1368,0.3000,0.0600,0.0002,0,-0.5000,-100.0000,-0.0500,-0.5000,-100.0000,-0.0500,18.2380,59.2441,-0.0300,0.2700,0.0000,0.0000,0.0000,0.0000,0.0000,0.0000
-33.4231,43.3544,-14.1837,-0.0829,-0.0000,-0.1800,1.6200,0.6400,0.0000,0.4988,-0.5890,0.0010,996,1497,1527,1502,2008,1000,1505,1000,1000,1281,1503,1007,1014,-0.1413,0.9222,0.0217,-0.0401,-0.0135,0.9893,1.0889,0.0892,-1.0868,-0.0912,1.4083,0.1218,0.1368,1.4083,0.1218,0.1368,0.3000,0.0600,0.0002,0,-0.5000,-100.0000,-0.0500,-0.5000,-100.0000,-0.0500,18.2678,59.2753,-0.0300,0.2700,0.0000,0.0000,0.0000,0.0000,0.0000,0.0000
-33.3945,43.3372,-14.1672,-0.0000,-0.0821,-0.1800,1.6200,0.6400,0.0000,0.4981,-0.5885,0.0011,996,1497,1527,1502,2008,1000,1505,1000,1000,1281,1503,1007,1014,0.0900,0.7455,-0.0091,-0.0411,-0.0095,0.9921,1.0877,0.0893,-1.0855,-0.0916,1.4083,0.1218,0.1368,1.4083,0.1218,0.1368,0.3000,0.0600,0.0002,0,-0.5000,-100.0000,-0.0500,-0.5000,-100.0000,-0.0500,18.2977,59.3065,-0.0300,0.2700,0.0000,0.0000,0.0000,0.0000,0.0000,0.0000
-33.3614,43.3173,-14.1487,-0.0000,-0.0821,-0.1200,1.6200,0.9600,0.0000,0.4980,-0.5878,0.0012,996,1497,1527,1502,2008,1000,1505,1000,1000,1281,1503,1007,1014,0.4446,0.4096,-0.0284,-0.0367,-0.0147,0.9929,1.0870,0.0886,-1.0845,-0.0910,1.4083,0.1218,0.1368,1.4083,0.1218,0.1368,0.3000,0.0600,0.0002,0,-0.5000,-100.0000,-0.0500,-0.5000,-100.0000,-0.0500,18.3275,59.3376,-0.0200,0.2700,0.0000,0.0000,0.0000,0.0000,0.0000,0.0000
-33.3248,43.2951,-14.1290,0.0829,-0.0000,-0.1800,1.6200,0.6400,0.0000,0.4964,-0.5872,0.0011,996,1497,1527,1502,2008,1000,1505,1000,1000,1281,1503,1007,1014,0.6057,0.2454,0.0016,-0.0430,-0.0140,0.9899,1.0848,0.0897,-1.0825,-0.0920,1.4083,0.1218,0.1368,1.4083,0.1218,0.1368,0.3000,0.0600,0.0002,0,-0.5000,-100.0000,-0.0500,-0.5000,-100.0000,-0.0500,18.3573,59.3688,-0.0300,0.2700,0.0000,0.0000,0.0000,0.0000,0.0000,0.0000
-33.2855,43.2724,-14.1080,0.0829,-0.0000,-0.1800,1.6200,0.6400,0.0000,0.4957,-0.5868,0.0011,996,1497,1527,1502,2008,1000,1505,1000,1000,1281,1503,1007,1014,0.7465,0.1782,0.0321,-0.0379,-0.0150,0.9877,1.0836,0.0901,-1.0814,-0.0923,1.4083,0.1218,0.1368,1.4083,0.1218,0.1368,0.3000,0.0600,0.0002,0,-0.5000,-100.0000,-0.0500,-0.5000,-100.0000,-0.0500,18.3871,59.4000,-0.0300,0.2700,0.0000,0.0000,0.0000,0.0000,0.0000,0.0000
-33.2446,43.2483,-14.0860,0.0829,-0.0000,-0.1800,1.6200,0.6400,0.0000,0.4951,-0.5863,0.0013,996,1497,1527,1502,2008,1000,1505,1000,1000,1281,1503,1007,1014,0.7446,0.0495,-0.0756,-0.0420,-0.0119,0.9900,1.0827,0.0899,-1.0801,-0.0926,1.4083,0.1218,0.1368,1.4083,0.1218,0.1368,0.3000,0.0600,0.0002,0,-0.5000,-100.0000,-0.0500,-0.5000,-100.0000,-0.0500,18.4169,59.4312,-0.0300,0.2700,0.0000,0.0000,0.0000,0.0000,0.0000,0.0000
-33.2039,43.2230,-14.0642,0.1657,-0.0000,-0.1800,1.6200,0.6400,0.0000,0.4945,-0.5858,0.0017,996,1497,1527,1502,2008,1000,1505,1000,1000,1281,1503,1007,1014,0.7329,-0.0920,-0.1755,-0.0418,-0.0097,0.9929,1.0820,0.0896,-1.0786,-0.0929,1.4083,0.1218,0.1368,1.4083,0.1218,0.1368,0.3000,0.0600,0.0002,0,-0.5000,-100.0000,-0.0500,-0.5000,-100.0000,-0.0500,18.4466,59.4624,-0.0300,0.2700,0.0000,0.0000,0.0000,0.0000,0.0000,0.0000
-33.1651,43.1958,-14.0426,0.1657,-0.0000,-0.1800,1.6200,0.6400,0.0000,0.4943,-0.5851,0.0020,996,1497,1527,1502,2008,1000,1505,1000,1000,1281,1503,1007,1014,0.5026,-0.2987,-0.2530,-0.0421,-0.0088,0.9907,1.0813,0.0889,-1.0774,-0.0928,1.4083,0.1218,0.1368,1.4083,0.1218,0.1368,0.3000,0.0600,0.0002,0,-0.5000,-100.0000,-0.0500,-0.5000,-100.0000,-0.0500,18.4764,59.4936,-0.0300,0.2700,0.0000,0.0000,0.0000,0.0000,0.0000,0.0000
-33.1281,43.1673,-14.0199,-0.0000,-0.0000,-0.1200,1.6200,0.9600,0.0000,0.4949,-0.5846,0.0019,996,1497,1527,1502,2008,1000,1505,1000,1000,1281,1503,1007,1014,0.3105,-0.3756,-0.2154,-0.0413,-0.0086,0.9965,1.0813,0.0879,-1.0776,-0.0916,1.4083,0.1218,0.1368,1.4083,0.1218,0.1368,0.3000,0.0600,0.0002,0,-0.5000,-100.0000,-0.0500,-0.5000,-100.0000,-0.0500,18.5061,59.5247,-0.0200,0.2700,0.0000,0.0000,0.0000,0.0000,0.0000,0.0000
-33.0915,43.1379,-13.9955,0.0829,-0.0000,-0.1800,1.6200,0.6400,0.0000,0.4937,-0.5840,0.0016,996,1497,1527,1502,2008,1000,1505,1000,1000,1281,1503,1007,1014,0.1501,-0.5456,-0.1506,-0.0418,-0.0095,0.9945,1.0793,0.0886,-1.0761,-0.0918,1.4083,0.1218,0.1368,1.4083,0.1218,0.1368,0.3000,0.0600,0.0002,0,-0.5000,-100.0000,-0.0500,-0.5000,-100.0000,-0.0500,18.5358,59.5558,-0.0300,0.2700,0.0000,0.0000,0.0000,0.0000,0.0000,0.0000
-33.0557,43.1084,-13.9696,-0.0000,-0.0000,-0.1800,1.6200,0.6400,0.0000,0.4935,-0.5836,0.0014,996,1497,1527,1502,2008,1000,1505,1000,1000,1281,1503,1007,1014,-0.0550,-0.4843,-0.0544,-0.0365,-0.0076,0.9915,1.0785,0.0887,-1.0758,-0.0915,1.4083,0.1218,0.1368,1.4083,0.1218,0.1368,0.3000,0.0600,0.0002,0,-0.5000,-100.0000,-0.0500,-0.5000,-100.0000,-0.0500,18.5655,59.5870,-0.0300,0.2700,0.0000,0.0000,0.0000,0.0000,0.0000,0.0000
-33.0213,43.0794,-13.9437,0.0829,-0.0000,-0.1800,1.6200,0.6400,0.0000,0.4931,-0.5832,0.0011,996,1497,1527,1502,2008,1000,1505,1000,1000,1281,1503,1007,1014,-0.1058,-0.4684,-0.0018,-0.0381,-0.0129,0.9905,1.0775,0.0890,-1.0752,-0.0913,1.4083,0.1218,0.1368,1.4083,0.1218,0.1368,0.3000,0.0600,0.0002,0,-0.5000,-100.0000,-0.0500,-0.5000,-100.0000,-0.0500,18.5952,59.6182,-0.0300,0.2700,0.0000,0.0000,0.0000,0.0000,0.0000,0.0000
-32.9884,43.0519,-13.9191,0.0829,-0.0000,-0.1800,1.6200,0.6400,0.0000,0.4927,-0.5832,0.0012,996,1497,1527,1502,2008,1000,1505,1000,1000,1281,1503,1007,1014,-0.1270,-0.2382,-0.0024,-0.0366,-0.0104,0.9906,1.0770,0.0893,-1.0746,-0.0917,1.4083,0.1218,0.1368,1.4083,0.1218,0.1368,0.3000,0.0600,0.0002,0,-0.5000,-100.0000,-0.0500,-0.5000,-100.0000,-0.0500,18.6248,59.6493,-0.0300,0.2700,0.0000,0.0000,0.0000,0.0000,0.0000,0.0000
-32.9561,43.0259,-13.8955,0.0829,0.0821,-0.1800,1.6200,0.6400,0.0000,0.4922,-0.5830,0.0010,996,1497,1527,1502,2008,1000,1505,1000,1000,1281,1503,1007,1014,-0.1444,-0.0708,0.0657,-0.0358,-0.0121,0.9925,1.0762,0.0898,-1.0743,-0.0918,1.4083,0.1218,0.1368,1.4083,0.1218,0.1368,0.3000,0.0600,0.0002,0,-0.5000,-100.0000,-0.0500,-0.5000,-100.0000,-0.0500,18.6545,59.6804,-0.0300,0.2700,0.0000,0.0000,0.0000,0.0000,0.0000,0.0000
-32.9256,43.0026,-13.8733,-0.0000,-0.0000,-0.1200,1.6200,0.9600,0.0000,0.4929,-0.5831,0.0011,996,1497,1527,1502,2008,1000,1505,1000,1000,1281,1503,1007,1014,-0.2944,0.2575,0.0553,-0.0358,-0.0110,0.9913,1.0770,0.0892,-1.0749,-0.0913,1.4083,0.1218,0.1368,1.4083,0.1218,0.1368,0.3000,0.0600,0.0002,0,-0.5000,-100.0000,-0.0500,-0.5000,-100.0000,-0.0500,18.6841,59.7115,-0.0200,0.2700,0.0000,0.0000,0.0000,0.0000,0.0000,0.0000
-32.8961,42.9802,-13.8521,-0.0000,-0.0000,-0.1800,1.6200,0.6400,0.0000,0.4916,-0.5829,0.0012,996,1497,1527,1502,2008,1000,1505,1000,1000,1281,1503,1007,1014,-0.2699,0.2797,0.0125,-0.0381,-0.0106,0.9926,1.0756,0.0901,-1.0732,-0.0925,1.4083,0.1218,0.1368,1.4083,0.1218,0.1368,0.3000,0.0600,0.0002,0,-0.5000,-100.0000,-0.0500,-0.5000,-100.0000,-0.0500,18.7137,59.7426,-0.0300,0.2700,0.0000,0.0000,0.0000,0.0000,0.0000,0.0000
-32.8669,42.9582,-13.8315,-0.0000,-0.0821,-0.1800,1.6200,0.6400,0.0000,0.4910,-0.5824,0.0012,996,1497,1527,1502,2008,1000,1505,1000,1000,1281,1503,1007,1014,-0.1766,0.1913,-0.0122,-0.0410,-0.0154,0.9902,1.0747,0.0902,-1.0722,-0.0926,1.4083,0.1218,0.1368,1.4083,0.1218,0.1368,0.3000,0.0600,0.0002,0,-0.5000,-100.0000,-0.0500,-0.5000,-100.0000,-0.0500,18.7432,59.7737,-0.0300,0.2700,0.0000,0.0000,0.0000,0.0000,0.0000,0.0000
-32.8371,42.9351,-13.8115,-0.0000,-0.0821,-0.1800,1.6200,0.6400,0.0000,0.4905,-0.5822,0.0012,996,1497,1527,1502,2008,1000,1505,1000,1000,1281,1503,1007,1014,-0.0881,0.2849,-0.0253,-0.0401,-0.0128,0.9937,1.0740,0.0905,-1.0715,-0.0930,1.4083,0.1218,0.1368,1.4083,0.1218,0.1368,0.3000,0.0600,0.0002,0,-0.5000,-100.0000,-0.0500,-0.5000,-100.0000,-0.0500,18.7728,59.8049,-0.0300,0.2700,0.0000,0.0000,0.0000,0.0000,0.0000,0.0000
-32.8060,42.9127,-13.7909,0.0829,-0.0821,-0.1800,1.6200,0.6400,0.0000,0.4899,-0.5819,0.0011,996,1497,1527,1502,2008,1000,1505,1000,1000,1281,1503,1007,1014,-0.0057,0.2663,0.0228,-0.0387,-0.0115,0.9876,1.0730,0.0908,-1.0707,-0.0931,1.4083,0.1218,0.1368,1.4083,0.1218,0.1368,0.3000,0.0600,0.0002,0,-0.5000,-100.0000,-0.0500,-0.5000,-100.0000,-0.0500,18.8024,59.8360,-0.0300,0.2700,0.0000,0.0000,0.0000,0.0000,0.0000,0.0000
-32.7745,42.8898,-13.7707,-0.1657,-0.0000,-0.1800,1.6200,0.6400,0.0000,0.4895,-0.5815,0.0014,996,1497,1527,1502,2008,1000,1505,1000,1000,1281,1503,1007,1014,-0.0184,0.2409,-0.0694,-0.0380,-0.0140,0.9921,1.0725,0.0906,-1.0696,-0.0935,1.4083,0.1218,0.1368,1.4083,0.1218,0.1368,0.3000,0.0600,0.0002,0,-0.5000,-100.0000,-0.0500,-0.5000,-100.0000,-0.0500,18.8319,59.8671,-0.0300,0.2700,0.0000,0.0000,0.0000,0.0000,0.0000,0.0000
-32.7435,42.8678,-13.7510,0.0829,-0.0821,-0.1200,1.6200,0.9600,0.0000,0.4899,-0.5815,0.0013,996,1497,1527,1502,2008,1000,1505,1000,1000,1281,1503,1007,1014,0.0031,0.4452,-0.0264,-0.0368,-0.0140,0.9890,1.0727,0.0903,-1.0701,-0.0929,1.4083,0.1218,0.1368,1.4083,0.1218,0.1368,0.3000,0.0600,0.0002,0,-0.5000,-100.0000,-0.0500,-0.5000,-100.0000,-0.0500,18.8614,59.8983,-0.0200,0.2700,0.0000,0.0000,0.0000,0.0000,0.0000,0.0000
-32.7140,42.8474,-13.7327,-0.0000,-0.0000,-0.1800,1.6200,0.6400,0.0000,0.4888,-0.5814,0.0009,996,1497,1527,1502,2008,1000,1505,1000,1000,1281,1503,1007,1014,-0.0963,0.5672,0.0764,-0.0360,-0.0093,0.9907,1.0710,0.0917,-1.0692,-0.0935,1.4083,0.1218,0.1368,1.4083,0.1218,0.1368,0.3000,0.0600,0.0002,0,-0.5000,-100.0000,-0.0500,-0.5000,-100.0000,-0.0500,18.8910,59.9295,-0.0300,0.2700,0.0000,0.0000,0.0000,0.0000,0.0000,0.0000
-32.6854,42.8282,-13.7144,0.0829,-0.0000,-0.1800,1.6200,0.6400,0.0000,0.4885,-0.5812,0.0013,996,1497,1527,1502,2008,1000,1505,1000,1000,1281,1503,1007,1014,-0.2028,0.6597,-0.0345,-0.0387,-0.0102,0.9924,1.0711,0.0914,-1.0684,-0.0941,1.4083,0.1218,0.1368,1.4083,0.1218,0.1368,0.3000,0.0600,0.0002,0,-0.5000,-100.0000,-0.0500,-0.5000,-100.0000,-0.0500,18.9205,59.9607,-0.0300,0.2700,0.0000,0.0000,0.0000,0.0000,0.0000,0.0000
-32.6602,42.8093,-13.6977,0.0829,0.0821,-0.1800,1.6200,0.6400,0.0000,0.4885,-0.5810,0.0013,996,1497,1527,1502,2008,1000,1505,1000,1000,1281,1503,1007,1014,-0.4641,0.7140,-0.0152,-0.0439,-0.0139,0.9942,1.0709,0.0912,-1.0682,-0.0939,1.4083,0.1218,0.1368,1.4083,0.1218,0.1368,0.3000,0.0600,0.0002,0,-0.5000,-100.0000,-0.0500,-0.5000,-100.0000,-0.0500,18.9500,59.9918,-0.0300,0.2700,0.0000,0.0000,0.0000,0.0000,0.0000,0.0000
-32.6369,42.7899,-13.6806,0.0829,-0.0000,-0.1800,1.6200,0.6400,0.0000,0.4884,-0.5805,0.0010,996,1497,1527,1502,2008,1000,1505,1000,1000,1281,1503,1007,1014,-0.6549,0.4847,0.0721,-0.0387,-0.0100,0.9965,1.0699,0.0910,-1.0679,-0.0930,1.4083,0.1218,0.1368,1.4083,0.1218,0.1368,0.3000,0.0600,0.0002,0,-0.5000,-100.0000,-0.0500,-0.5000,-100.0000,-0.0500,18.9794,60.0228,-0.0300,0.2700,0.0000,0.0000,0.0000,0.0000,0.0000,0.0000
-32.6124,42.7690,-13.6602,0.0829,0.0821,-0.1800,1.6200,0.6400,0.0000,0.4882,-0.5799,0.0009,996,1497,1527,1502,2008,1000,1505,1000,1000,1281,1503,1007,1014,-0.7020,0.3125,0.1168,-0.0421,-0.0113,0.9926,1.0690,0.0909,-1.0672,-0.0927,1.4083,0.1218,0.1368,1.4083,0.1218,0.1368,0.3000,0.0600,0.0002,0,-0.5000,-100.0000,-0.0500,-0.5000,-100.0000,-0.0500,19.0088,60.0539,-0.0300,0.2700,0.0000,0.0000,0.0000,0.0000,0.0000,0.0000
-32.5878,42.7475,-13.6382,0.0829,0.0821,-0.1200,1.6200,0.9600,0.0000,0.4888,-0.5795,0.0008,996,1497,1527,1502,2008,1000,1505,1000,1000,1281,1503,1007,1014,-0.7948,0.2119,0.1464,-0.0390,-0.0136,0.9912,1.0691,0.0899,-1.0675,-0.0915,1.4083,0.1218,0.1368,1.4083,0.1218,0.1368,0.3000,0.0600,0.0002,0,-0.5000,-100.0000,-0.0500,-0.5000,-100.0000,-0.0500,19.0382,60.0849,-0.0200,0.2700,0.0000,0.0000,0.0000,0.0000,0.0000,0.0000
-32.5619,42.7248,-13.6148,0.0829,0.0821,-0.1800,1.6200,0.6400,0.0000,0.4873,-0.5791,0.0008,996,1497,1527,1502,2008,1000,1505,1000,1000,1281,1503,1007,1014,-0.6210,0.1763,0.1557,-0.0392,-0.0160,0.9884,1.0673,0.0910,-1.0656,-0.0926,1.4083,0.1218,0.1368,1.4083,0.1218,0.1368,0.3000,0.0600,0.0002,0,-0.5000,-100.0000,-0.0500,-0.5000,-100.0000,-0.0500,19.0676,60.1160,-0.0300,0.2700,0.0000,0.0000,0.0000,0.0000,0.0000,0.0000
-32.5346,42.7019,-13.5921,0.0829,-0.0000,-0.1800,1.6200,0.6400,0.0000,0.4866,-0.5788,0.0008,996,1497,1527,1502,2008,1000,1505,1000,1000,1281,1503,1007,1014,-0.3624,0.1470,0.1615,-0.0377,-0.0145,0.9914,1.0661,0.0914,-1.0646,-0.0929,1.4083,0.1218,0.1368,1.4083,0.1218,0.1368,0.3000,0.0600,0.0002,0,-0.5000,-100.0000,-0.0500,-0.5000,-100.0000,-0.0500,19.0970,60.1470,-0.0300,0.2700,0.0000,0.0000,0.0000,0.0000,0.0000,0.0000
-32.5032,42.6784,-13.5692,0.1657,-0.0000,-0.1800,1.6200,0.6400,0.0000,0.4857,-0.5783,0.0010,996,1497,1527,1502,2008,1000,1505,1000,1000,1281,1503,1007,1014,-0.0423,0.0363,0.0858,-0.0396,-0.0169,0.9927,1.0650,0.0916,-1.0630,-0.0936,1.4083,0.1218,0.1368,1.4083,0.1218,0.1368,0.3000,0.0600,0.0002,0,-0.5000,-100.0000,-0.0500,-0.5000,-100.0000,-0.0500,19.1263,60.1781,-0.0300,0.2700,0.0000,0.0000,0.0000,0.0000,0.0000,0.0000
-32.4691,42.6538,-13.5477,0.0829,0.0821,-0.1800,1.6200,0.6400,0.0000,0.4847,-0.5780,0.0014,996,1497,1527,1502,2008,1000,1505,1000,1000,1281,1503,1007,1014,0.3821,0.0976,-0.0208,-0.0377,-0.0170,0.9912,1.0640,0.0920,-1.0613,-0.0947,1.4083,0.1218,0.1368,1.4083,0.1218,0.1368,0.3000,0.0600,0.0002,0,-0.5000,-100.0000,-0.0500,-0.5000,-100.0000,-0.0500,19.1556,60.2092,-0.0300,0.2700,0.0000,0.0000,0.0000,0.0000,0.0000,0.0000
-32.4323,42.6289,-13.5283,0.0829,-0.0000,-0.1800,1.6200,0.6400,0.0000,0.4835,-0.5777,0.0017,996,1497,1527,1502,2008,1000,1505,1000,1000,1281,1503,1007,1014,0.8542,0.1341,-0.1341,-0.0393,-0.0202,0.9933,1.0629,0.0926,-1.0596,-0.0959,1.4083,0.1218,0.1368,1.4083,0.1218,0.1368,0.3000,0.0600,0.0002,0,-0.5000,-100.0000,-0.0500,-0.5000,-100.0000,-0.0500,19.1849,60.2402,-0.0300,0.2700,0.0000,0.0000,0.0000,0.0000,0.0000,0.0000
-32.3915,42.6045,-13.5092,0.0829,0.0821,-0.1200,1.6200,0.9600,0.0000,0.4832,-0.5776,0.0017,996,1497,1527,1502,2008,1000,1505,1000,1000,1281,1503,1007,1014,1.2295,0.2719,-0.1532,-0.0375,-0.0199,0.9910,1.0625,0.0926,-1.0591,-0.0960,1.4083,0.1218,0.1368,1.4083,0.1218,0.1368,0.3000,0.0600,0.0002,0,-0.5000,-100.0000,-0.0500,-0.5000,-100.0000,-0.0500,19.2142,60.2713,-0.0200,0.2700,0.0000,0.0000,0.0000,0.0000,0.0000,0.0000
-32.3467,42.5809,-13.4915,0.0829,-0.0000,-0.1800,1.6200,0.6400,0.0000,0.4813,-0.5772,0.0018,996,1497,1527,1502,2008,1000,1505,1000,1000,1281,1503,1007,1014,1.5661,0.2775,-0.1906,-0.0397,-0.0136,0.9899,1.0604,0.0941,-1.0567,-0.0978,1.4083,0.1218,0.1368,1.4083,0.1218,0.1368,0.3000,0.0600,0.0002,0,-0.5000,-100.0000,-0.0500,-0.5000,-100.0000,-0.0500,19.2435,60.3024,-0.0300,0.2700,0.0000,0.0000,0.0000,0.0000,0.0000,0.0000
-32.2989,42.5563,-13.4732,0.0829,0.1642,-0.1800,1.6200,0.6400,0.0000,0.4804,-0.5768,0.0018,996,1497,1527,1502,2008,1000,1505,1000,1000,1281,1503,1007,1014,1.7286,0.2181,-0.1881,-0.0408,-0.0143,0.9904,1.0590,0.0946,-1.0554,-0.0982,1.4083,0.1218,0.1368,1.4083,0.1218,0.1368,0.3000,0.0600,0.0002,0,-0.5000,-100.0000,-0.0500,-0.5000,-100.0000,-0.0500,19.2728,60.3335,-0.0300,0.2700,0.0000,0.0000,0.0000,0.0000,0.0000,0.0000
-32.2501,42.5318,-13.4552,0.1657,-0.0000,-0.1800,1.6200,0.6400,0.0000,0.4796,-0.5763,0.0019,996,1497,1527,1502,2008,1000,1505,1000,1000,1281,1503,1007,1014,1.8388,0.1350,-0.2231,-0.0401,-0.0122,0.9911,1.0579,0.0948,-1.0540,-0.0987,1.4083,0.1218,0.1368,1.4083,0.1218,0.1368,0.3000,0.0600,0.0002,0,-0.5000,-100.0000,-0.0500,-0.5000,-100.0000,-0.0500,19.3020,60.3646,-0.0300,0.2700,0.0000,0.0000,0.0000,0.0000,0.0000,0.0000
-32.2010,42.5065,-13.4367,-0.0829,-0.0000,-0.1800,1.6200,0.6400,0.0000,0.4791,-0.5760,0.0021,996,1497,1527,1502,2008,1000,1505,1000,1000,1281,1503,1007,1014,1.6526,0.1657,-0.2662,-0.0403,-0.0087,0.9916,1.0573,0.0948,-1.0531,-0.0990,1.4083,0.1218,0.1368,1.4083,0.1218,0.1368,0.3000,0.0600,0.0002,0,-0.5000,-100.0000,-0.0500,-0.5000,-100.0000,-0.0500,19.3313,60.3957,-0.0300,0.2700,0.0000,0.0000,0.0000,0.0000,0.0000,0.0000
-32.1541,42.4815,-13.4183,0.0829,-0.0000,-0.1800,1.6200,0.6400,0.0000,0.4788,-0.5756,0.0019,996,1497,1527,1502,2008,1000,1505,1000,1000,1281,1503,1007,1014,1.4563,0.1169,-0.2010,-0.0404,-0.0103,0.9928,1.0563,0.0949,-1.0524,-0.0988,1.4083,0.1218,0.1368,1.4083,0.1218,0.1368,0.3000,0.0600,0.0002,0,-0.5000,-100.0000,-0.0500,-0.5000,-100.0000,-0.0500,19.3605,60.4268,-0.0300,0.2700,0.0000,0.0000,0.0000,0.0000,0.0000,0.0000
-32.1104,42.4560,-13.4004,-0.0829,-0.0000,-0.1200,1.6200,0.9600,0.0000,0.4793,-0.5754,0.0019,996,1497,1527,1502,2008,1000,1505,1000,1000,1281,1503,1007,1014,1.2030,0.1990,-0.2201,-0.0396,-0.0103,0.9895,1.0566,0.0941,-1.0527,-0.0980,1.4083,0.1218,0.1368,1.4083,0.1218,0.1368,0.3000,0.0600,0.0002,0,-0.5000,-100.0000,-0.0500,-0.5000,-100.0000,-0.0500,19.3897,60.4579,-0.0200,0.2700,0.0000,0.0000,0.0000,0.0000,0.0000,0.0000
-32.0689,42.4310,-13.3819,-0.0000,0.0821,-0.1800,1.6200,0.6400,0.0000,0.4782,-0.5750,0.0017,996,1497,1527,1502,2008,1000,1505,1000,1000,1281,1503,1007,1014,0.9511,0.1575,-0.1337,-0.0364,-0.0110,0.9948,1.0549,0.0950,-1.0515,-0.0985,1.4083,0.1218,0.1368,1.4083,0.1218,0.1368,0.3000,0.0600,0.0002,0,-0.5000,-100.0000,-0.0500,-0.5000,-100.0000,-0.0500,19.4189,60.4890,-0.0300,0.2700,0.0000,0.0000,0.0000,0.0000,0.0000,0.0000
-32.0290,42.4063,-13.3626,-0.0000,-0.0000,-0.1800,1.6200,0.6400,0.0000,0.4779,-0.5747,0.0015,996,1497,1527,1502,2008,1000,1505,1000,1000,1281,1503,1007,1014,0.7645,0.2001,-0.0790,-0.0358,-0.0100,0.9913,1.0541,0.0952,-1.0511,-0.0982,1.4083,0.1218,0.1368,1.4083,0.1218,0.1368,0.3000,0.0600,0.0002,0,-0.5000,-100.0000,-0.0500,-0.5000,-100.0000,-0.0500,19.4481,60.5201,-0.0300,0.2700,0.0000,0.0000,0.0000,0.0000,0.0000,0.0000
-31.9898,42.3831,-13.3430,0.0829,0.0821,-0.1800,1.6200,0.6400,0.0000,0.4774,-0.5745,0.0014,996,1497,1527,1502,2008,1000,1505,1000,1000,1281,1503,1007,1014,0.7829,0.2960,-0.0443,-0.0399,-0.0077,0.9972,1.0533,0.0957,-1.0504,-0.0985,1.4083,0.1218,0.1368,1.4083,0.1218,0.1368,0.3000,0.0600,0.0002,0,-0.5000,-100.0000,-0.0500,-0.5000,-100.0000,-0.0500,19.4773,60.5513,-0.0300,0.2700,0.0000,0.0000,0.0000,0.0000,0.0000,0.0000
-31.9516,42.3597,-13.3245,0.1657,0.0821,-0.1800,1.6200,0.6400,0.0000,0.4769,-0.5741,0.0016,996,1497,1527,1502,2008,1000,1505,1000,1000,1281,1503,1007,1014,0.7062,0.2555,-0.1034,-0.0410,-0.0087,0.9916,1.0526,0.0956,-1.0494,-0.0987,1.4083,0.1218,0.1368,1.4083,0.1218,0.1368,0.3000,0.0600,0.0002,0,-0.5000,-100.0000,-0.0500,-0.5000,-100.0000,-0.0500,19.5065,60.5825,-0.0300,0.2700,0.0000,0.0000,0.0000,0.0000,0.0000,0.0000
-31.9136,42.3361,-13.3047,-0.0000,0.0821,-0.1800,1.6200,0.6400,0.0000,0.4765,-0.5738,0.0015,996,1497,1527,1502,2008,1000,1505,1000,1000,1281,1503,1007,1014,0.6190,0.2750,-0.0600,-0.0411,-0.0101,0.9883,1.0518,0.0957,-1.0487,-0.0988,1.4083,0.1218,0.1368,1.4083,0.1218,0.1368,0.3000,0.0600,0.0002,0,-0.5000,-100.0000,-0.0500,-0.5000,-100.0000,-0.0500,19.5356,60.6137,-0.0300,0.2700,0.0000,0.0000,0.0000,0.0000,0.0000,0.0000
-31.8767,42.3136,-13.2852,-0.0000,0.0821,-0.1200,1.6200,0.9600,0.0000,0.4770,-0.5735,0.0015,996,1497,1527,1502,2008,1000,1505,1000,1000,1281,1503,1007,1014,0.4836,0.3200,-0.0404,-0.0406,-0.0090,0.9927,1.0520,0.0950,-1.0490,-0.0980,1.4083,0.1218,0.1368,1.4083,0.1218,0.1368,0.3000,0.0600,0.0002,0,-0.5000,-100.0000,-0.0500,-0.5000,-100.0000,-0.0500,19.5647,60.6448,-0.0200,0.2700,0.0000,0.0000,0.0000,0.0000,0.0000,0.0000
-31.8412,42.2908,-13.2653,0.0829,0.1642,-0.1800,1.6200,0.6400,0.0000,0.4758,-0.5732,0.0013,996,1497,1527,1502,2008,1000,1505,1000,1000,1281,1503,1007,1014,0.4213,0.2937,0.0198,-0.0412,-0.0085,0.9913,1.0502,0.0962,-1.0477,-0.0987,1.4083,0.1218,0.1368,1.4083,0.1218,0.1368,0.3000,0.0600,0.0002,0,-0.5000,-100.0000,-0.0500,-0.5000,-100.0000,-0.0500,19.5938,60.6759,-0.0300,0.2700,0.0000,0.0000,0.0000,0.0000,0.0000,0.0000
-31.8066,42.2681,-13.2464,0.0829,0.0821,-0.1800,1.6200,0.6400,0.0000,0.4753,-0.5729,0.0017,996,1497,1527,1502,2008,1000,1505,1000,1000,1281,1503,1007,1014,0.3688,0.3213,-0.1258,-0.0414,-0.0092,0.9952,1.0500,0.0958,-1.0465,-0.0993,1.4083,0.1218,0.1368,1.4083,0.1218,0.1368,0.3000,0.0600,0.0002,0,-0.5000,-100.0000,-0.0500,-0.5000,-100.0000,-0.0500,19.6229,60.7069,-0.0300,0.2700,0.0000,0.0000,0.0000,0.0000,0.0000,0.0000
-31.7728,42.2448,-13.2279,0.0829,0.0821,-0.1800,1.6200,0.6400,0.0000,0.4750,-0.5725,0.0017,996,1497,1527,1502,2008,1000,1505,1000,1000,1281,1503,1007,1014,0.2681,0.2791,-0.1364,-0.0395,-0.0107,0.9887,1.0492,0.0958,-1.0458,-0.0992,1.4083,0.1218,0.1368,1.4083,0.1218,0.1368,0.3000,0.0600,0.0002,0,-0.5000,-100.0000,-0.0500,-0.5000,-100.0000,-0.0500,19.6519,60.7381,-0.0300,0.2700,0.0000,0.0000,0.0000,0.0000,0.0000,0.0000
-31.7395,42.2219,-13.2093,0.0829,0.0821,-0.1800,1.6200,0.6400,0.0000,0.4745,-0.5722,0.0015,996,1497,1527,1502,2008,1000,1505,1000,1000,1281,1503,1007,1014,0.2782,0.2981,-0.0633,-0.0401,-0.0085,0.9932,1.0483,0.0961,-1.0452,-0.0992,1.4083,0.1218,0.1368,1.4083,0.1218,0.1368,0.3000,0.0600,0.0002,0,-0.5000,-100.0000,-0.0500,-0.5000,-100.0000,-0.0500,19.6809,60.7691,-0.0300,0.2700,0.0000,0.0000,0.0000,0.0000,0.0000,0.0000
-31.7056,42.1983,-13.1898,0.0829,0.0821,-0.1800,1.6200,0.6400,0.0000,0.4741,-0.5718,0.0015,996,1497,1527,1502,2008,1000,1505,1000,1000,1281,1503,1007,1014,0.2475,0.2296,-0.0424,-0.0429,-0.0113,0.9878,1.0474,0.0961,-1.0443,-0.0992,1.4083,0.1218,0.1368,1.4083,0.1218,0.1368,0.3000,0.0600,0.0002,0,-0.5000,-100.0000,-0.0500,-0.5000,-100.0000,-0.0500,19.7099,60.8002,-0.0300,0.2700,0.0000,0.0000,0.0000,0.0000,0.0000,0.0000
-31.6718,42.1739,-13.1702,0.0829,0.0821,-0.1200,1.6200,0.9600,0.0000,0.4745,-0.5713,0.0015,996,1497,1527,1502,2008,1000,1505,1000,1000,1281,1503,1007,1014,0.2441,0.1673,-0.0409,-0.0390,-0.0101,0.9918,1.0473,0.0954,-1.0443,-0.0984,1.4083,0.1218,0.1368,1.4083,0.1218,0.1368,0.3000,0.0600,0.0002,0,-0.5000,-100.0000,-0.0500,-0.5000,-100.0000,-0.0500,19.7389,60.8313,-0.0200,0.2700,0.0000,0.0000,0.0000,0.0000,0.0000,0.0000
-31.6379,42.1509,-13.1505,0.0829,0.0821,-0.1800,1.6200,0.6400,0.0000,0.4731,-0.5711,0.0014,996,1497,1527,1502,2008,1000,1505,1000,1000,1281,1503,1007,1014,0.2403,0.2232,-0.0128,-0.0420,-0.0090,0.9926,1.0456,0.0966,-1.0428,-0.0994,1.4083,0.1218,0.1368,1.4083,0.1218,0.1368,0.3000,0.0600,0.0002,0,-0.5000,-100.0000,-0.0500,-0.5000,-100.0000,-0.0500,19.7679,60.8624,-0.0300,0.2700,0.0000,0.0000,0.0000,0.0000,0.0000,0.0000
-31.6048,42.1276,-13.1304,0.0829,0.0821,-0.1800,1.6200,0.6400,0.0000,0.4728,-0.5708,0.0013,996,1497,1527,1502,2008,1000,1505,1000,1000,1281,1503,1007,1014,0.1346,0.2369,0.0138,-0.0391,-0.0097,0.9901,1.0449,0.0966,-1.0423,-0.0993,1.4083,0.1218,0.1368,1.4083,0.1218,0.1368,0.3000,0.0600,0.0002,0,-0.5000,-100.0000,-0.0500,-0.5000,-100.0000,-0.0500,19.7968,60.8935,-0.0300,0.2700,0.0000,0.0000,0.0000,0.0000,0.0000,0.0000
-31.5726,42.1044,-13.1107,0.0829,0.1642,-0.1800,1.6200,0.6400,0.0000,0.4724,-0.5705,0.0014,996,1497,1527,1502,2008,1000,1505,1000,1000,1281,1503,1007,1014,0.0777,0.2981,-0.0119,-0.0369,-0.0101,0.9881,1.0444,0.0967,-1.0416,-0.0995,1.4083,0.1218,0.1368,1.4083,0.1218,0.1368,0.3000,0.0600,0.0002,0,-0.5000,-100.0000,-0.0500,-0.5000,-100.0000,-0.0500,19.8258,60.9246,-0.0300,0.2700,0.0000,0.0000,0.0000,0.0000,0.0000,0.0000
-31.5413,42.0807,-13.0910,0.0829,0.0821,-0.1800,1.6200,0.6400,0.0000,0.4722,-0.5700,0.0017,996,1497,1527,1502,2008,1000,1505,1000,1000,1281,1503,1007,1014,-0.0312,0.1387,-0.0950,-0.0423,-0.0093,0.9921,1.0438,0.0962,-1.0405,-0.0995,1.4083,0.1218,0.1368,1.4083,0.1218,0.1368,0.3000,0.0600,0.0002,0,-0.5000,-100.0000,-0.0500,-0.5000,-100.0000,-0.0500,19.8547,60.9557,-0.0300,0.2700,0.0000,0.0000,0.0000,0.0000,0.0000,0.0000
-31.5114,42.0567,-13.0723,0.0829,0.0821,-0.1800,1.6200,0.6400,0.0000,0.4718,-0.5698,0.0015,996,1497,1527,1502,2008,1000,1505,1000,1000,1281,1503,1007,1014,-0.0600,0.2621,-0.0471,-0.0408,-0.0113,0.9896,1.0431,0.0965,-1.0401,-0.0996,1.4083,0.1218,0.1368,1.4083,0.1218,0.1368,0.3000,0.0600,0.0002,0,-0.5000,-100.0000,-0.0500,-0.5000,-100.0000,-0.0500,19.8835,60.9868,-0.0300,0.2700,0.0000,0.0000,0.0000,0.0000,0.0000,0.0000
-31.4808,42.0335,-13.0524,0.1657,0.1642,-0.1200,1.6200,0.9600,0.0000,0.4722,-0.5694,0.0012,996,1497,1527,1502,2008,1000,1505,1000,1000,1281,1503,1007,1014,-0.0349,0.2087,0.0342,-0.0393,-0.0108,0.9962,1.0428,0.0960,-1.0403,-0.0985,1.4083,0.1218,0.1368,1.4083,0.1218,0.1368,0.3000,0.0600,0.0002,0,-0.5000,-100.0000,-0.0500,-0.5000,-100.0000,-0.0500,19.9124,61.0178,-0.0200,0.2700,0.0000,0.0000,0.0000,0.0000,0.0000,0.0000
-31.4498,42.0099,-13.0319,-0.0829,-0.0000,-0.1800,1.6200,0.6400,0.0000,0.4710,-0.5691,0.0013,996,1497,1527,1502,2008,1000,1505,1000,1000,1281,1503,1007,1014,-0.1261,0.2059,0.0479,-0.0439,-0.0095,0.9839,1.0413,0.0968,-1.0388,-0.0993,1.4083,0.1218,0.1368,1.4083,0.1218,0.1368,0.3000,0.0600,0.0002,0,-0.5000,-100.0000,-0.0500,-0.5000,-100.0000,-0.0500,19.9412,61.0489,-0.0300,0.2700,0.0000,0.0000,0.0000,0.0000,0.0000,0.0000
-31.4187,41.9859,-13.0113,0.1657,0.0821,-0.1800,1.6200,0.6400,0.0000,0.4704,-0.5687,0.0013,996,1497,1527,1502,2008,1000,1505,1000,1000,1281,1503,1007,1014,-0.0055,0.1364,0.0152,-0.0414,-0.0112,0.9942,1.0404,0.0969,-1.0377,-0.0996,1.4083,0.1218,0.1368,1.4083,0.1218,0.1368,0.3000,0.0600,0.0002,0,-0.5000,-100.0000,-0.0500,-0.5000,-100.0000,-0.0500,19.9700,61.0800,-0.0300,0.2700,0.0000,0.0000,0.0000,0.0000,0.0000,0.0000
-31.3862,41.9613,-12.9897,-0.0000,-0.0000,-0.1800,1.6200,0.6400,0.0000,0.4699,-0.5682,0.0013,996,1497,1527,1502,2008,1000,1505,1000,1000,1281,1503,1007,1014,-0.0045,0.0517,0.0416,-0.0413,-0.0098,0.9887,1.0394,0.0970,-1.0369,-0.0995,1.4083,0.1218,0.1368,1.4083,0.1218,0.1368,0.3000,0.0600,0.0002,0,-0.5000,-100.0000,-0.0500,-0.5000,-100.0000,-0.0500,19.9988,61.1111,-0.0300,0.2700,0.0000,0.0000,0.0000,0.0000,0.0000,0.0000
-31.3532,41.9365,-12.9681,0.0829,0.0821,-0.1800,1.6200,0.6400,0.0000,0.4694,-0.5680,0.0015,996,1497,1527,1502,2008,1000,1505,1000,1000,1281,1503,1007,1014,0.0609,0.1363,-0.0064,-0.0405,-0.0115,0.9880,1.0388,0.0971,-1.0359,-0.1001,1.4083,0.1218,0.1368,1.4083,0.1218,0.1368,0.3000,0.0600,0.0002,0,-0.5000,-100.0000,-0.0500,-0.5000,-100.0000,-0.0500,20.0276,61.1423,-0.0300,0.2700,0.0000,0.0000,0.0000,0.0000,0.0000,0.0000
-31.3200,41.9114,-12.9474,0.0829,0.1642,-0.1800,1.6200,0.6400,0.0000,0.4688,-0.5674,0.0016,996,1497,1527,1502,2008,1000,1505,1000,1000,1281,1503,1007,1014,0.1691,-0.0183,-0.0394,-0.0384,-0.0119,0.9923,1.0377,0.0971,-1.0346,-0.1002,1.4083,0.1218,0.1368,1.4083,0.1218,0.1368,0.3000,0.0600,0.0002,0,-0.5000,-100.0000,-0.0500,-0.5000,-100.0000,-0.0500,20.0564,61.1734,-0.0300,0.2700,0.0000,0.0000,0.0000,0.0000,0.0000,0.0000
-31.2866,41.8859,-12.9269,0.0829,0.0821,-0.1200,1.6200,0.9600,0.0000,0.4691,-0.5671,0.0015,996,1497,1527,1502,2008,1000,1505,1000,1000,1281,1503,1007,1014,0.2047,0.0318,-0.0242,-0.0401,-0.0115,0.9937,1.0377,0.0965,-1.0347,-0.0995,1.4083,0.1218,0.1368,1.4083,0.1218,0.1368,0.3000,0.0600,0.0002,0,-0.5000,-100.0000,-0.0500,-0.5000,-100.0000,-0.0500,20.0851,61.2045,-0.0200,0.2700,0.0000,0.0000,0.0000,0.0000,0.0000,0.0000
-31.2523,41.8601,-12.9062,-0.0000,0.0821,-0.1800,1.6200,0.6400,0.0000,0.4677,-0.5667,0.0018,996,1497,1527,1502,2008,1000,1505,1000,1000,1281,1503,1007,1014,0.2455,0.0181,-0.1093,-0.0391,-0.0098,0.9911,1.0362,0.0972,-1.0326,-0.1008,1.4083,0.1218,0.1368,1.4083,0.1218,0.1368,0.3000,0.0600,0.0002,0,-0.5000,-100.0000,-0.0500,-0.5000,-100.0000,-0.0500,20.1139,61.2355,-0.0300,0.2700,0.0000,0.0000,0.0000,0.0000,0.0000,0.0000
-31.2182,41.8337,-12.8860,0.0829,0.1642,-0.1800,1.6200,0.6400,0.0000,0.4672,-0.5664,0.0016,996,1497,1527,1502,2008,1000,1505,1000,1000,1281,1503,1007,1014,0.2752,0.0251,-0.0680,-0.0425,-0.0099,0.9901,1.0351,0.0976,-1.0320,-0.1008,1.4083,0.1218,0.1368,1.4083,0.1218,0.1368,0.3000,0.0600,0.0002,0,-0.5000,-100.0000,-0.0500,-0.5000,-100.0000,-0.0500,20.1426,61.2666,-0.0300,0.2700,0.0000,0.0000,0.0000,0.0000,0.0000,0.0000
-31.1837,41.8074,-12.8655,0.0829,0.0821,-0.1800,1.6200,0.6400,0.0000,0.4667,-0.5658,0.0017,996,1497,1527,1502,2008,1000,1505,1000,1000,1281,1503,1007,1014,0.2838,-0.0880,-0.0987,-0.0405,-0.0111,0.9885,1.0342,0.0974,-1.0308,-0.1009,1.4083,0.1218,0.1368,1.4083,0.1218,0.1368,0.3000,0.0600,0.0002,0,-0.5000,-100.0000,-0.0500,-0.5000,-100.0000,-0.0500,20.1712,61.2975,-0.0300,0.2700,0.0000,0.0000,0.0000,0.0000,0.0000,0.0000
-31.1485,41.7801,-12.8444,0.0829,0.1642,-0.1800,1.6200,0.6400,0.0000,0.4661,-0.5654,0.0015,996,1497,1527,1502,2008,1000,1505,1000,1000,1281,1503,1007,1014,0.3495,-0.1015,-0.0418,-0.0391,-0.0123,0.9939,1.0331,0.0978,-1.0300,-0.1009,1.4083,0.1218,0.1368,1.4083,0.1218,0.1368,0.3000,0.0600,0.0002,0,-0.5000,-100.0000,-0.0500,-0.5000,-100.0000,-0.0500,20.1998,61.3285,-0.0300,0.2700,0.0000,0.0000,0.0000,0.0000,0.0000,0.0000
-31.1114,41.7533,-12.8218,-0.0000,0.0821,-0.1800,1.6200,0.6400,0.0000,0.4655,-0.5650,0.0014,996,1497,1527,1502,2008,1000,1505,1000,1000,1281,1503,1007,1014,0.4358,-0.1350,0.0382,-0.0394,-0.0100,0.9925,1.0318,0.0982,-1.0291,-0.1009,1.4083,0.1218,0.1368,1.4083,0.1218,0.1368,0.3000,0.0600,0.0002,0,-0.5000,-100.0000,-0.0500,-0.5000,-100.0000,-0.0500,20.2284,61.3594,-0.0300,0.2700,0.0000,0.0000,0.0000,0.0000,0.0000,0.0000
-31.0731,41.7268,-12.7994,0.0829,0.1642,-0.1200,1.6200,0.9600,0.0000,0.4655,-0.5647,0.0015,996,1497,1527,1502,2008,1000,1505,1000,1000,1281,1503,1007,1014,0.6182,-0.1085,-0.0055,-0.0427,-0.0105,0.9903,1.0317,0.0977,-1.0287,-0.1007,1.4083,0.1218,0.1368,1.4083,0.1218,0.1368,0.3000,0.0600,0.0002,0,-0.5000,-100.0000,-0.0500,-0.5000,-100.0000,-0.0500,20.2570,61.3904,-0.0200,0.2700,0.0000,0.0000,0.0000,0.0000,0.0000,0.0000
-31.0340,41.7001,-12.7772,0.0829,0.0821,-0.1800,1.6200,0.6400,0.0000,0.4641,-0.5644,0.0015,996,1497,1527,1502,2008,1000,1505,1000,1000,1281,1503,1007,1014,0.6295,-0.0451,-0.0153,-0.0410,-0.0116,0.9913,1.0300,0.0988,-1.0270,-0.1018,1.4083,0.1218,0.1368,1.4083,0.1218,0.1368,0.3000,0.0600,0.0002,0,-0.5000,-100.0000,-0.0500,-0.5000,-100.0000,-0.0500,20.2856,61.4214,-0.0300,0.2700,0.0000,0.0000,0.0000,0.0000,0.0000,0.0000
-30.9945,41.6728,-12.7556,-0.0000,0.1642,-0.1800,1.6200,0.6400,0.0000,0.4634,-0.5639,0.0019,996,1497,1527,1502,2008,1000,1505,1000,1000,1281,1503,1007,1014,0.7141,-0.1318,-0.1317,-0.0394,-0.0112,0.9950,1.0292,0.0986,-1.0254,-0.1023,1.4083,0.1218,0.1368,1.4083,0.1218,0.1368,0.3000,0.0600,0.0002,0,-0.5000,-100.0000,-0.0500,-0.5000,-100.0000,-0.0500,20.3141,61.4524,-0.0300,0.2700,0.0000,0.0000,0.0000,0.0000,0.0000,0.0000
-30.9548,41.6452,-12.7351,0.0829,0.0821,-0.1800,1.6200,0.6400,0.0000,0.4627,-0.5634,0.0018,996,1497,1527,1502,2008,1000,1505,1000,1000,1281,1503,1007,1014,0.8220,-0.1672,-0.1286,-0.0410,-0.0106,0.9926,1.0280,0.0989,-1.0243,-0.1026,1.4083,0.1218,0.1368,1.4083,0.1218,0.1368,0.3000,0.0600,0.0002,0,-0.5000,-100.0000,-0.0500,-0.5000,-100.0000,-0.0500,20.3426,61.4833,-0.0300,0.2700,0.0000,0.0000,0.0000,0.0000,0.0000,0.0000
-30.9145,41.6165,-12.7147,0.0829,0.1642,-0.1800,1.6200,0.6400,0.0000,0.4621,-0.5631,0.0021,996,1497,1527,1502,2008,1000,1505,1000,1000,1281,1503,1007,1014,0.8533,-0.1389,-0.2172,-0.0408,-0.0088,0.9933,1.0273,0.0989,-1.0231,-0.1031,1.4083,0.1218,0.1368,1.4083,0.1218,0.1368,0.3000,0.0600,0.0002,0,-0.5000,-100.0000,-0.0500,-0.5000,-100.0000,-0.0500,20.3711,61.5143,-0.0300,0.2700,0.0000,0.0000,0.0000,0.0000,0.0000,0.0000
-30.8737,41.5885,-12.6948,0.1657,0.0821,-0.1800,1.6200,0.6400,0.0000,0.4615,-0.5627,0.0021,996,1497,1527,1502,2008,1000,1505,1000,1000,1281,1503,1007,1014,0.8670,-0.1109,-0.1865,-0.0386,-0.0089,0.9901,1.0263,0.0991,-1.0222,-0.1033,1.4083,0.1218,0.1368,1.4083,0.1218,0.1368,0.3000,0.0600,0.0002,0,-0.5000,-100.0000,-0.0500,-0.5000,-100.0000,-0.0500,20.3996,61.5453,-0.0300,0.2700,0.0000,0.0000,0.0000,0.0000,0.0000,0.0000
-30.8346,41.5610,-12.6756,0.1657,0.0821,-0.1200,1.6200,0.9600,0.0000,0.4620,-0.5624,0.0020,996,1497,1527,1502,2008,1000,1505,1000,1000,1281,1503,1007,1014,0.7516,-0.0685,-0.1901,-0.0376,-0.0075,0.9887,1.0263,0.0984,-1.0224,-0.1024,1.4083,0.1218,0.1368,1.4083,0.1218,0.1368,0.3000,0.0600,0.0002,0,-0.5000,-100.0000,-0.0500,-0.5000,-100.0000,-0.0500,20.4281,61.5763,-0.0200,0.2700,0.0000,0.0000,0.0000,0.0000,0.0000,0.0000
-30.7957,41.5343,-12.6559,0.0829,0.1642,-0.1800,1.6200,0.6400,0.0000,0.4607,-0.5621,0.0018,996,1497,1527,1502,2008,1000,1505,1000,1000,1281,1503,1007,1014,0.6758,0.0091,-0.1086,-0.0398,-0.0065,0.9902,1.0246,0.0997,-1.0211,-0.1032,1.4083,0.1218,0.1368,1.4083,0.1218,0.1368,0.3000,0.0600,0.0002,0,-0.5000,-100.0000,-0.0500,-0.5000,-100.0000,-0.0500,20.4565,61.6073,-0.0300,0.2700,0.0000,0.0000,0.0000,0.0000,0.0000,0.0000
-30.7578,41.5081,-12.6357,-0.0000,0.0821,-0.1800,1.6200,0.6400,0.0000,0.4603,-0.5618,0.0017,996,1497,1527,1502,2008,1000,1505,1000,1000,1281,1503,1007,1014,0.5464,0.0722,-0.0759,-0.0405,-0.0064,0.9913,1.0239,0.0998,-1.0204,-0.1032,1.4083,0.1218,0.1368,1.4083,0.1218,0.1368,0.3000,0.0600,0.0002,0,-0.5000,-100.0000,-0.0500,-0.5000,-100.0000,-0.0500,20.4849,61.6383,-0.0300,0.2700,0.0000,0.0000,0.0000,0.0000,0.0000,0.0000
-30.7217,41.4826,-12.6159,-0.0000,0.0821,-0.1800,1.6200,0.6400,0.0000,0.4600,-0.5615,0.0015,996,1497,1527,1502,2008,1000,1505,1000,1000,1281,1503,1007,1014,0.3853,0.0779,-0.0228,-0.0383,-0.0077,0.9920,1.0230,0.1000,-1.0200,-0.1029,1.4083,0.1218,0.1368,1.4083,0.1218,0.1368,0.3000,0.0600,0.0002,0,-0.5000,-100.0000,-0.0500,-0.5000,-100.0000,-0.0500,20.5132,61.6692,-0.0300,0.2700,0.0000,0.0000,0.0000,0.0000,0.0000,0.0000
-30.6865,41.4577,-12.5955,-0.0829,-0.0000,-0.1800,1.6200,0.6400,0.0000,0.4597,-0.5612,0.0014,996,1497,1527,1502,2008,1000,1505,1000,1000,1281,1503,1007,1014,0.2573,0.1294,0.0070,-0.0377,-0.0082,0.9927,1.0224,0.1000,-1.0195,-0.1029,1.4083,0.1218,0.1368,1.4083,0.1218,0.1368,0.3000,0.0600,0.0002,0,-0.5000,-100.0000,-0.0500,-0.5000,-100.0000,-0.0500,20.5416,61.7002,-0.0300,0.2700,0.0000,0.0000,0.0000,0.0000,0.0000,0.0000
-30.6532,41.4334,-12.5750,0.0829,0.0821,-0.1800,1.6200,0.6400,0.0000,0.4595,-0.5610,0.0013,996,1497,1527,1502,2008,1000,1505,1000,1000,1281,1503,1007,1014,0.0918,0.2292,0.0647,-0.0366,-0.0110,0.9895,1.0218,0.1002,-1.0192,-0.1028,1.4083,0.1218,0.1368,1.4083,0.1218,0.1368,0.3000,0.0600,0.0002,0,-0.5000,-100.0000,-0.0500,-0.5000,-100.0000,-0.0500,20.5700,61.7313,-0.0300,0.2700,0.0000,0.0000,0.0000,0.0000,0.0000,0.0000
-30.6211,41.4094,-12.5547,0.0829,0.1642,-0.1200,1.6200,0.9600,0.0000,0.4599,-0.5607,0.0014,996,1497,1527,1502,2008,1000,1505,1000,1000,1281,1503,1007,1014,0.0429,0.2334,0.0295,-0.0391,-0.0071,0.9933,1.0220,0.0993,-1.0192,-0.1021,1.4083,0.1218,0.1368,1.4083,0.1218,0.1368,0.3000,0.0600,0.0002,0,-0.5000,-100.0000,-0.0500,-0.5000,-100.0000,-0.0500,20.5983,61.7623,-0.0200,0.2700,0.0000,0.0000,0.0000,0.0000,0.0000,0.0000
-30.5897,41.3860,-12.5351,0.0829,0.0821,-0.1800,1.6200,0.6400,0.0000,0.4586,-0.5605,0.0014,996,1497,1527,1502,2008,1000,1505,1000,1000,1281,1503,1007,1014,0.0487,0.3485,0.0599,-0.0383,-0.0101,0.9955,1.0205,0.1005,-1.0178,-0.1032,1.4083,0.1218,0.1368,1.4083,0.1218,0.1368,0.3000,0.0600,0.0002,0,-0.5000,-100.0000,-0.0500,-0.5000,-100.0000,-0.0500,20.6267,61.7934,-0.0300,0.2700,0.0000,0.0000,0.0000,0.0000,0.0000,0.0000
-30.5599,41.3640,-12.5163,0.1657,0.0821,-0.1800,1.6200,0.6400,0.0000,0.4584,-0.5604,0.0012,996,1497,1527,1502,2008,1000,1505,1000,1000,1281,1503,1007,1014,-0.0901,0.4933,0.0874,-0.0417,-0.0101,0.9921,1.0200,0.1007,-1.0176,-0.1032,1.4083,0.1218,0.1368,1.4083,0.1218,0.1368,0.3000,0.0600,0.0002,0,-0.5000,-100.0000,-0.0500,-0.5000,-100.0000,-0.0500,20.6550,61.8245,-0.0300,0.2700,0.0000,0.0000,0.0000,0.0000,0.0000,0.0000
-30.5314,41.3415,-12.4980,0.0829,0.0821,-0.1800,1.6200,0.6400,0.0000,0.4581,-0.5599,0.0016,996,1497,1527,1502,2008,1000,1505,1000,1000,1281,1503,1007,1014,-0.1561,0.3314,-0.0082,-0.0425,-0.0110,0.9884,1.0195,0.1002,-1.0164,-0.1033,1.4083,0.1218,0.1368,1.4083,0.1218,0.1368,0.3000,0.0600,0.0002,0,-0.5000,-100.0000,-0.0500,-0.5000,-100.0000,-0.0500,20.6833,61.8556,-0.0300,0.2700,0.0000,0.0000,0.0000,0.0000,0.0000,0.0000
-30.5032,41.3189,-12.4798,0.1657,0.0821,-0.1800,1.6200,0.6400,0.0000,0.4578,-0.5597,0.0013,996,1497,1527,1502,2008,1000,1505,1000,1000,1281,1503,1007,1014,-0.2199,0.4335,0.0731,-0.0400,-0.0109,0.9890,1.0188,0.1006,-1.0162,-0.1032,1.4083,0.1218,0.1368,1.4083,0.1218,0.1368,0.3000,0.0600,0.0002,0,-0.5000,-100.0000,-0.0500,-0.5000,-100.0000,-0.0500,20.7116,61.8866,-0.0300,0.2700,0.0000,0.0000,0.0000,0.0000,0.0000,0.0000
-30.4750,41.2964,-12.4614,0.0829,0.0821,-0.1800,1.6200,0.6400,0.0000,0.4573,-0.5593,0.0015,996,1497,1527,1502,2008,1000,1505,1000,1000,1281,1503,1007,1014,-0.1215,0.3936,0.0008,-0.0398,-0.0100,0.9916,1.0180,0.1006,-1.0151,-0.1035,1.4083,0.1218,0.1368,1.4083,0.1218,0.1368,0.3000,0.0600,0.0002,0,-0.5000,-100.0000,-0.0500,-0.5000,-100.0000,-0.0500,20.7398,61.9176,-0.0300,0.2700,0.0000,0.0000,0.0000,0.0000,0.0000,0.0000
-30.4457,41.2732,-12.4422,0.0829,0.1642,-0.1200,1.6200,0.9600,0.0000,0.4577,-0.5588,0.0016,996,1497,1527,1502,2008,1000,1505,1000,1000,1281,1503,1007,1014,-0.1525,0.2459,-0.0068,-0.0394,-0.0087,0.9878,1.0181,0.0995,-1.0149,-0.1026,1.4083,0.1218,0.1368,1.4083,0.1218,0.1368,0.3000,0.0600,0.0002,0,-0.5000,-100.0000,-0.0500,-0.5000,-100.0000,-0.0500,20.7680,61.9486,-0.0200,0.2700,0.0000,0.0000,0.0000,0.0000,0.0000,0.0000
-30.4165,41.2485,-12.4227,0.0829,0.1642,-0.1800,1.6200,0.6400,0.0000,0.4565,-0.5582,0.0015,996,1497,1527,1502,2008,1000,1505,1000,1000,1281,1503,1007,1014,-0.1531,0.1156,0.0002,-0.0415,-0.0111,0.9936,1.0163,0.1002,-1.0132,-0.1033,1.4083,0.1218,0.1368,1.4083,0.1218,0.1368,0.3000,0.0600,0.0002,0,-0.5000,-100.0000,-0.0500,-0.5000,-100.0000,-0.0500,20.7961,61.9796,-0.0300,0.2700,0.0000,0.0000,0.0000,0.0000,0.0000,0.0000
-30.3866,41.2233,-12.4026,0.0829,0.1642,-0.1800,1.6200,0.6400,0.0000,0.4560,-0.5579,0.0015,996,1497,1527,1502,2008,1000,1505,1000,1000,1281,1503,1007,1014,-0.1245,0.1137,0.0095,-0.0381,-0.0114,0.9906,1.0154,0.1004,-1.0124,-0.1033,1.4083,0.1218,0.1368,1.4083,0.1218,0.1368,0.3000,0.0600,0.0002,0,-0.5000,-100.0000,-0.0500,-0.5000,-100.0000,-0.0500,20.8243,62.0106,-0.0300,0.2700,0.0000,0.0000,0.0000,0.0000,0.0000,0.0000
-30.3558,41.1987,-12.3822,0.0829,0.1642,-0.1800,1.6200,0.6400,0.0000,0.4555,-0.5576,0.0013,996,1497,1527,1502,2008,1000,1505,1000,1000,1281,1503,1007,1014,-0.0440,0.1333,0.0721,-0.0425,-0.0107,0.9918,1.0144,0.1008,-1.0117,-0.1034,1.4083,0.1218,0.1368,1.4083,0.1218,0.1368,0.3000,0.0600,0.0002,0,-0.5000,-100.0000,-0.0500,-0.5000,-100.0000,-0.0500,20.8524,62.0415,-0.0300,0.2700,0.0000,0.0000,0.0000,0.0000,0.0000,0.0000
-30.3241,41.1743,-12.3618,-0.0000,0.1642,-0.1800,1.6200,0.6400,0.0000,0.4549,-0.5574,0.0014,996,1497,1527,1502,2008,1000,1505,1000,1000,1281,1503,1007,1014,0.0204,0.2255,0.0377,-0.0424,-0.0075,0.9897,1.0137,0.1010,-1.0109,-0.1038,1.4083,0.1218,0.1368,1.4083,0.1218,0.1368,0.3000,0.0600,0.0002,0,-0.5000,-100.0000,-0.0500,-0.5000,-100.0000,-0.0500,20.8804,62.0725,-0.0300,0.2700,0.0000,0.0000,0.0000,0.0000,0.0000,0.0000
-30.2921,41.1501,-12.3416,0.0829,0.1642,-0.1800,1.6200,0.6400,0.0000,0.4545,-0.5569,0.0016,996,1497,1527,1502,2008,1000,1505,1000,1000,1281,1503,1007,1014,0.0179,0.1399,-0.0104,-0.0429,-0.0115,0.9932,1.0130,0.1008,-1.0098,-0.1040,1.4083,0.1218,0.1368,1.4083,0.1218,0.1368,0.3000,0.0600,0.0002,0,-0.5000,-100.0000,-0.0500,-0.5000,-100.0000,-0.0500,20.9085,62.1035,-0.0300,0.2700,0.0000,0.0000,0.0000,0.0000,0.0000,0.0000
-30.2597,41.1249,-12.3213,0.1657,0.1642,-0.1200,1.6200,0.9600,0.0000,0.4547,-0.5565,0.0015,996,1497,1527,1502,2008,1000,1505,1000,1000,1281,1503,1007,1014,0.1183,0.1484,0.0209,-0.0412,-0.0085,0.9920,1.0127,0.1004,-1.0098,-0.1033,1.4083,0.1218,0.1368,1.4083,0.1218,0.1368,0.3000,0.0600,0.0002,0,-0.5000,-100.0000,-0.0500,-0.5000,-100.0000,-0.0500,20.9366,62.1345,-0.0200,0.2700,0.0000,0.0000,0.0000,0.0000,0.0000,0.0000
-30.2264,41.0996,-12.3018,0.0829,0.1642,-0.1800,1.6200,0.6400,0.0000,0.4532,-0.5562,0.0018,996,1497,1527,1502,2008,1000,1505,1000,1000,1281,1503,1007,1014,0.3089,0.1195,-0.0935,-0.0372,-0.0136,0.9886,1.0112,0.1011,-1.0075,-0.1048,1.4083,0.1218,0.1368,1.4083,0.1218,0.1368,0.3000,0.0600,0.0002,0,-0.5000,-100.0000,-0.0500,-0.5000,-100.0000,-0.0500,20.9646,62.1655,-0.0300,0.2700,0.0000,0.0000,0.0000,0.0000,0.0000,0.0000
-30.1925,41.0741,-12.2828,0.1657,0.2462,-0.1800,1.6200,0.6400,0.0000,0.4527,-0.5559,0.0016,996,1497,1527,1502,2008,1000,1505,1000,1000,1281,1503,1007,1014,0.3393,0.1976,-0.0299,-0.0411,-0.0119,0.9887,1.0102,0.1016,-1.0069,-0.1049,1.4083,0.1218,0.1368,1.4083,0.1218,0.1368,0.3000,0.0600,0.0002,0,-0.5000,-100.0000,-0.0500,-0.5000,-100.0000,-0.0500,20.9926,62.1965,-0.0300,0.2700,0.0000,0.0000,0.0000,0.0000,0.0000,0.0000
-30.1581,41.0490,-12.2633,0.0829,0.1642,-0.1800,1.6200,0.6400,0.0000,0.4522,-0.5554,0.0018,996,1497,1527,1502,2008,1000,1505,1000,1000,1281,1503,1007,1014,0.3399,0.1169,-0.0689,-0.0408,-0.0084,0.9921,1.0094,0.1015,-1.0058,-0.1050,1.4083,0.1218,0.1368,1.4083,0.1218,0.1368,0.3000,0.0600,0.0002,0,-0.5000,-100.0000,-0.0500,-0.5000,-100.0000,-0.0500,21.0206,62.2275,-0.0300,0.2700,0.0000,0.0000,0.0000,0.0000,0.0000,0.0000
-30.1241,41.0235,-12.2443,0.0829,0.1642,-0.1800,1.6200,0.6400,0.0000,0.4517,-0.5552,0.0018,996,1497,1527,1502,2008,1000,1505,1000,1000,1281,1503,1007,1014,0.3373,0.1699,-0.0818,-0.0439,-0.0106,0.9876,1.0087,0.1016,-1.0050,-0.1053,1.4083,0.1218,0.1368,1.4083,0.1218,0.1368,0.3000,0.0600,0.0002,0,-0.5000,-100.0000,-0.0500,-0.5000,-100.0000,-0.0500,21.0485,62.2585,-0.0300,0.2700,0.0000,0.0000,0.0000,0.0000,0.0000,0.0000
-30.0904,40.9982,-12.2259,-0.0829,-0.0000,-0.1800,1.6200,0.6400,0.0000,0.4512,-0.5547,0.0020,996,1497,1527,1502,2008,1000,1505,1000,1000,1281,1503,1007,1014,0.3454,0.1291,-0.1275,-0.0404,-0.0110,0.9939,1.0079,0.1016,-1.0040,-0.1055,1.4083,0.1218,0.1368,1.4083,0.1218,0.1368,0.3000,0.0600,0.0002,0,-0.5000,-100.0000,-0.0500,-0.5000,-100.0000,-0.0500,21.0765,62.2896,-0.0300,0.2700,0.0000,0.0000,0.0000,0.0000,0.0000,0.0000
-30.0572,40.9730,-12.2070,-0.0000,0.1642,-0.1200,1.6200,0.9600,0.0000,0.4519,-0.5545,0.0017,996,1497,1527,1502,2008,1000,1505,1000,1000,1281,1503,1007,1014,0.1321,0.2001,-0.0653,-0.0390,-0.0107,0.9927,1.0081,0.1009,-1.0046,-0.1043,1.4083,0.1218,0.1368,1.4083,0.1218,0.1368,0.3000,0.0600,0.0002,0,-0.5000,-100.0000,-0.0500,-0.5000,-100.0000,-0.0500,21.1044,62.3207,-0.0200,0.2700,0.0000,0.0000,0.0000,0.0000,0.0000,0.0000
-30.0254,40.9478,-12.1879,-0.0000,0.0821,-0.1800,1.6200,0.6400,0.0000,0.4507,-0.5541,0.0017,996,1497,1527,1502,2008,1000,1505,1000,1000,1281,1503,1007,1014,0.0113,0.1659,-0.0432,-0.0428,-0.0090,0.9937,1.0065,0.1017,-1.0032,-0.1050,1.4083,0.1218,0.1368,1.4083,0.1218,0.1368,0.3000,0.0600,0.0002,0,-0.5000,-100.0000,-0.0500,-0.5000,-100.0000,-0.0500,21.1324,62.3518,-0.0300,0.2700,0.0000,0.0000,0.0000,0.0000,0.0000,0.0000
-29.9949,40.9227,-12.1693,0.2486,0.1642,-0.1800,1.6200,0.6400,0.0000,0.4504,-0.5538,0.0016,996,1497,1527,1502,2008,1000,1505,1000,1000,1281,1503,1007,1014,-0.0493,0.1996,-0.0356,-0.0389,-0.0108,0.9880,1.0058,0.1017,-1.0025,-0.1050,1.4083,0.1218,0.1368,1.4083,0.1218,0.1368,0.3000,0.0600,0.0002,0,-0.5000,-100.0000,-0.0500,-0.5000,-100.0000,-0.0500,21.1603,62.3829,-0.0300,0.2700,0.0000,0.0000,0.0000,0.0000,0.0000,0.0000
-29.9642,40.8980,-12.1496,0.0829,0.1642,-0.1800,1.6200,0.6400,0.0000,0.4500,-0.5534,0.0014,996,1497,1527,1502,2008,1000,1505,1000,1000,1281,1503,1007,1014,-0.0690,0.1937,0.0384,-0.0390,-0.0110,0.9899,1.0048,0.1020,-1.0020,-0.1048,1.4083,0.1218,0.1368,1.4083,0.1218,0.1368,0.3000,0.0600,0.0002,0,-0.5000,-100.0000,-0.0500,-0.5000,-100.0000,-0.0500,21.1882,62.4140,-0.0300,0.2700,0.0000,0.0000,0.0000,0.0000,0.0000,0.0000
-29.9336,40.8737,-12.1297,0.1657,0.1642,-0.1800,1.6200,0.6400,0.0000,0.4496,-0.5531,0.0015,996,1497,1527,1502,2008,1000,1505,1000,1000,1281,1503,1007,1014,-0.0685,0.1965,0.0245,-0.0404,-0.0092,0.9896,1.0041,0.1020,-1.0012,-0.1050,1.4083,0.1218,0.1368,1.4083,0.1218,0.1368,0.3000,0.0600,0.0002,0,-0.5000,-100.0000,-0.0500,-0.5000,-100.0000,-0.0500,21.2161,62.4451,-0.0300,0.2700,0.0000,0.0000,0.0000,0.0000,0.0000,0.0000
-29.9035,40.8487,-12.1101,0.1657,0.1642,-0.1800,1.6200,0.6400,0.0000,0.4493,-0.5526,0.0018,996,1497,1527,1502,2008,1000,1505,1000,1000,1281,1503,1007,1014,-0.1550,0.0807,-0.0440,-0.0394,-0.0088,0.9911,1.0036,0.1016,-1.0001,-0.1051,1.4083,0.1218,0.1368,1.4083,0.1218,0.1368,0.3000,0.0600,0.0002,0,-0.5000,-100.0000,-0.0500,-0.5000,-100.0000,-0.0500,21.2439,62.4763,-0.0300,0.2700,0.0000,0.0000,0.0000,0.0000,0.0000,0.0000
-29.8739,40.8233,-12.0910,0.0829,0.1642,-0.1200,1.6200,0.9600,0.0000,0.4496,-0.5523,0.0018,996,1497,1527,1502,2008,1000,1505,1000,1000,1281,1503,1007,1014,-0.0662,0.1582,-0.0540,-0.0405,-0.0120,0.9906,1.0036,0.1010,-1.0001,-0.1045,1.4083,0.1218,0.1368,1.4083,0.1218,0.1368,0.3000,0.0600,0.0002,0,-0.5000,-100.0000,-0.0500,-0.5000,-100.0000,-0.0500,21.2718,62.5074,-0.0200,0.2700,0.0000,0.0000,0.0000,0.0000,0.0000,0.0000
-29.8441,40.7985,-12.0712,0.0829,0.2462,-0.1800,1.6200,0.6400,0.0000,0.4484,-0.5520,0.0015,996,1497,1527,1502,2008,1000,1505,1000,1000,1281,1503,1007,1014,-0.1598,0.1582,0.0419,-0.0405,-0.0099,0.9924,1.0019,0.1020,-0.9989,-0.1050,1.4083,0.1218,0.1368,1.4083,0.1218,0.1368,0.3000,0.0600,0.0002,0,-0.5000,-100.0000,-0.0500,-0.5000,-100.0000,-0.0500,21.2995,62.5385,-0.0300,0.2700,0.0000,0.0000,0.0000,0.0000,0.0000,0.0000
-29.8155,40.7730,-12.0518,0.1657,0.2462,-0.1800,1.6200,0.6400,0.0000,0.4482,-0.5516,0.0017,996,1497,1527,1502,2008,1000,1505,1000,1000,1281,1503,1007,1014,-0.2728,0.1330,-0.0355,-0.0406,-0.0105,0.9910,1.0015,0.1017,-0.9980,-0.1051,1.4083,0.1218,0.1368,1.4083,0.1218,0.1368,0.3000,0.0600,0.0002,0,-0.5000,-100.0000,-0.0500,-0.5000,-100.0000,-0.0500,21.3273,62.5695,-0.0300,0.2700,0.0000,0.0000,0.0000,0.0000,0.0000,0.0000
-29.7877,40.7476,-12.0322,0.0829,0.2462,-0.1800,1.6200,0.6400,0.0000,0.4479,-0.5512,0.0018,996,1497,1527,1502,2008,1000,1505,1000,1000,1281,1503,1007,1014,-0.3620,0.0941,-0.0601,-0.0396,-0.0105,0.9935,1.0009,0.1014,-0.9973,-0.1051,1.4083,0.1218,0.1368,1.4083,0.1218,0.1368,0.3000,0.0600,0.0002,0,-0.5000,-100.0000,-0.0500,-0.5000,-100.0000,-0.0500,21.3549,62.6005,-0.0300,0.2700,0.0000,0.0000,0.0000,0.0000,0.0000,0.0000
-29.7601,40.7218,-12.0124,0.1657,0.1642,-0.1800,1.6200,0.6400,0.0000,0.4475,-0.5507,0.0017,996,1497,1527,1502,2008,1000,1505,1000,1000,1281,1503,1007,1014,-0.3603,0.0414,-0.0326,-0.0396,-0.0094,0.9885,1.0000,0.1015,-0.9965,-0.1049,1.4083,0.1218,0.1368,1.4083,0.1218,0.1368,0.3000,0.0600,0.0002,0,-0.5000,-100.0000,-0.0500,-0.5000,-100.0000,-0.0500,21.3825,62.6315,-0.0300,0.2700,0.0000,0.0000,0.0000,0.0000,0.0000,0.0000
-29.7326,40.6960,-11.9924,0.0829,0.1642,-0.1800,1.6200,0.6400,0.0000,0.4471,-0.5504,0.0014,996,1497,1527,1502,2008,1000,1505,1000,1000,1281,1503,1007,1014,-0.3423,0.1047,0.0517,-0.0403,-0.0114,0.9886,0.9989,0.1020,-0.9962,-0.1047,1.4083,0.1218,0.1368,1.4083,0.1218,0.1368,0.3000,0.0600,0.0002,0,-0.5000,-100.0000,-0.0500,-0.5000,-100.0000,-0.0500,21.4102,62.6624,-0.0300,0.2700,0.0000,0.0000,0.0000,0.0000,0.0000,0.0000
-29.7040,40.6702,-11.9712,0.0829,0.0821,-0.1200,1.6200,0.9600,0.0000,0.4475,-0.5499,0.0015,996,1497,1527,1502,2008,1000,1505,1000,1000,1281,1503,1007,1014,-0.2821,-0.0266,0.0518,-0.0403,-0.0120,0.9891,0.9989,0.1009,-0.9959,-0.1039,1.4083,0.1218,0.1368,1.4083,0.1218,0.1368,0.3000,0.0600,0.0002,0,-0.5000,-100.0000,-0.0500,-0.5000,-100.0000,-0.0500,21.4378,62.6935,-0.0200,0.2700,0.0000,0.0000,0.0000,0.0000,0.0000,0.0000
-29.6745,40.6435,-11.9495,0.0829,0.2462,-0.1800,1.6200,0.6400,0.0000,0.4461,-0.5495,0.0015,996,1497,1527,1502,2008,1000,1505,1000,1000,1281,1503,1007,1014,-0.1999,-0.0151,0.0276,-0.0417,-0.0123,0.9886,0.9972,0.1019,-0.9941,-0.1050,1.4083,0.1218,0.1368,1.4083,0.1218,0.1368,0.3000,0.0600,0.0002,0,-0.5000,-100.0000,-0.0500,-0.5000,-100.0000,-0.0500,21.4653,62.7243,-0.0300,0.2700,0.0000,0.0000,0.0000,0.0000,0.0000,0.0000
-29.6449,40.6179,-11.9287,0.0829,0.2462,-0.1800,1.6200,0.6400,0.0000,0.4457,-0.5494,0.0013,996,1497,1527,1502,2008,1000,1505,1000,1000,1281,1503,1007,1014,-0.1854,0.1072,0.1050,-0.0428,-0.0135,0.9973,0.9963,0.1024,-0.9937,-0.1050,1.4083,0.1218,0.1368,1.4083,0.1218,0.1368,0.3000,0.0600,0.0002,0,-0.5000,-100.0000,-0.0500,-0.5000,-100.0000,-0.0500,21.4927,62.7552,-0.0300,0.2700,0.0000,0.0000,0.0000,0.0000,0.0000,0.0000
-29.6141,40.5920,-11.9073,0.1657,0.0821,-0.1800,1.6200,0.6400,0.0000,0.4451,-0.5488,0.0016,996,1497,1527,1502,2008,1000,1505,1000,1000,1281,1503,1007,1014,-0.0978,0.0053,0.0317,-0.0420,-0.0106,0.9921,0.9955,0.1022,-0.9924,-0.1053,1.4083,0.1218,0.1368,1.4083,0.1218,0.1368,0.3000,0.0600,0.0002,0,-0.5000,-100.0000,-0.0500,-0.5000,-100.0000,-0.0500,21.5202,62.7861,-0.0300,0.2700,0.0000,0.0000,0.0000,0.0000,0.0000,0.0000
-29.5826,40.5660,-11.8864,0.1657,0.1642,-0.1800,1.6200,0.6400,0.0000,0.4446,-0.5486,0.0015,996,1497,1527,1502,2008,1000,1505,1000,1000,1281,1503,1007,1014,-0.0268,0.0666,0.0295,-0.0410,-0.0116,0.9928,0.9947,0.1025,-0.9916,-0.1055,1.4083,0.1218,0.1368,1.4083,0.1218,0.1368,0.3000,0.0600,0.0002,0,-0.5000,-100.0000,-0.0500,-0.5000,-100.0000,-0.0500,21.5476,62.8170,-0.0300,0.2700,0.0000,0.0000,0.0000,0.0000,0.0000,0.0000
-29.5509,40.5396,-11.8659,0.0829,0.1642,-0.1800,1.6200,0.6400,0.0000,0.4440,-0.5482,0.0019,996,1497,1527,1502,2008,1000,1505,1000,1000,1281,1503,1007,1014,0.0492,0.0730,-0.0636,-0.0392,-0.0114,0.9903,0.9941,0.1023,-0.9903,-0.1061,1.4083,0.1218,0.1368,1.4083,0.1218,0.1368,0.3000,0.0600,0.0002,0,-0.5000,-100.0000,-0.0500,-0.5000,-100.0000,-0.0500,21.5751,62.8479,-0.0300,0.2700,0.0000,0.0000,0.0000,0.0000,0.0000,0.0000
-29.5199,40.5126,-11.8472,0.0829,0.1642,-0.1200,1.6200,0.9600,0.0000,0.4443,-0.5476,0.0020,996,1497,1527,1502,2008,1000,1505,1000,1000,1281,1503,1007,1014,0.1072,-0.0616,-0.1217,-0.0418,-0.0118,0.9910,0.9940,0.1013,-0.9900,-0.1053,1.4083,0.1218,0.1368,1.4083,0.1218,0.1368,0.3000,0.0600,0.0002,0,-0.5000,-100.0000,-0.0500,-0.5000,-100.0000,-0.0500,21.6025,62.8789,-0.0200,0.2700,0.0000,0.0000,0.0000,0.0000,0.0000,0.0000
-29.4874,40.4849,-11.8276,0.0829,0.1642,-0.1800,1.6200,0.6400,0.0000,0.4430,-0.5473,0.0020,996,1497,1527,1502,2008,1000,1505,1000,1000,1281,1503,1007,1014,0.1735,-0.0556,-0.1250,-0.0437,-0.0135,0.9904,0.9922,0.1023,-0.9882,-0.1063,1.4083,0.1218,0.1368,1.4083,0.1218,0.1368,0.3000,0.0600,0.0002,0,-0.5000,-100.0000,-0.0500,-0.5000,-100.0000,-0.0500,21.6299,62.9099,-0.0300,0.2700,0.0000,0.0000,0.0000,0.0000,0.0000,0.0000
-29.4540,40.4564,-11.8079,-0.0000,-0.0000,-0.1800,1.6200,0.6400,0.0000,0.4424,-0.5467,0.0020,996,1497,1527,1502,2008,1000,1505,1000,1000,1281,1503,1007,1014,0.2635,-0.1361,-0.1070,-0.0415,-0.0123,0.9911,0.9911,0.1024,-0.9871,-0.1064,1.4083,0.1218,0.1368,1.4083,0.1218,0.1368,0.3000,0.0600,0.0002,0,-0.5000,-100.0000,-0.0500,-0.5000,-100.0000,-0.0500,21.6573,62.9409,-0.0300,0.2700,0.0000,0.0000,0.0000,0.0000,0.0000,0.0000
-29.4191,40.4266,-11.7871,0.0829,0.2462,-0.1800,1.6200,0.6400,0.0000,0.4418,-0.5460,0.0020,996,1497,1527,1502,2008,1000,1505,1000,1000,1281,1503,1007,1014,0.3350,-0.3602,-0.1042,-0.0399,-0.0106,0.9937,0.9898,0.1023,-0.9858,-0.1062,1.4083,0.1218,0.1368,1.4083,0.1218,0.1368,0.3000,0.0600,0.0002,0,-0.5000,-100.0000,-0.0500,-0.5000,-100.0000,-0.0500,21.6847,62.9718,-0.0300,0.2700,0.0000,0.0000,0.0000,0.0000,0.0000,0.0000
-29.3831,40.3967,-11.7655,-0.0000,0.0821,-0.1800,1.6200,0.6400,0.0000,0.4412,-0.5457,0.0021,996,1497,1527,1502,2008,1000,1505,1000,1000,1281,1503,1007,1014,0.4155,-0.2775,-0.0928,-0.0415,-0.0109,0.9903,0.9889,0.1025,-0.9848,-0.1066,1.4083,0.1218,0.1368,1.4083,0.1218,0.1368,0.3000,0.0600,0.0002,0,-0.5000,-100.0000,-0.0500,-0.5000,-100.0000,-0.0500,21.7121,63.0029,-0.0300,0.2700,0.0000,0.0000,0.0000,0.0000,0.0000,0.0000
-29.3458,40.3665,-11.7439,0.0829,0.2462,-0.1800,1.6200,0.6400,0.0000,0.4406,-0.5452,0.0018,996,1497,1527,1502,2008,1000,1505,1000,1000,1281,1503,1007,1014,0.4610,-0.3170,-0.0553,-0.0385,-0.0123,0.9898,0.9876,0.1029,-0.9840,-0.1065,1.4083,0.1218,0.1368,1.4083,0.1218,0.1368,0.3000,0.0600,0.0002,0,-0.5000,-100.0000,-0.0500,-0.5000,-100.0000,-0.0500,21.7394,63.0339,-0.0300,0.2700,0.0000,0.0000,0.0000,0.0000,0.0000,0.0000
-29.3081,40.3360,-11.7224,-0.0000,0.2462,-0.1200,1.6200,0.9600,0.0000,0.4408,-0.5447,0.0022,996,1497,1527,1502,2008,1000,1505,1000,1000,1281,1503,1007,1014,0.5301,-0.3641,-0.1664,-0.0403,-0.0098,0.9913,0.9877,0.1018,-0.9833,-0.1062,1.4083,0.1218,0.1368,1.4083,0.1218,0.1368,0.3000,0.0600,0.0002,0,-0.5000,-100.0000,-0.0500,-0.5000,-100.0000,-0.0500,21.7667,63.0649,-0.0200,0.2700,0.0000,0.0000,0.0000,0.0000,0.0000,0.0000
-29.2710,40.3053,-11.7016,0.1657,0.1642,-0.1800,1.6200,0.6400,0.0000,0.4395,-0.5444,0.0020,996,1497,1527,1502,2008,1000,1505,1000,1000,1281,1503,1007,1014,0.4761,-0.2972,-0.1071,-0.0391,-0.0117,0.9898,0.9859,0.1029,-0.9819,-0.1069,1.4083,0.1218,0.1368,1.4083,0.1218,0.1368,0.3000,0.0600,0.0002,0,-0.5000,-100.0000,-0.0500,-0.5000,-100.0000,-0.0500,21.7940,63.0959,-0.0300,0.2700,0.0000,0.0000,0.0000,0.0000,0.0000,0.0000
-29.2343,40.2761,-11.6809,0.1657,0.1642,-0.1800,1.6200,0.6400,0.0000,0.4390,-0.5441,0.0019,996,1497,1527,1502,2008,1000,1505,1000,1000,1281,1503,1007,1014,0.4613,-0.1984,-0.0820,-0.0393,-0.0115,0.9891,0.9851,0.1032,-0.9812,-0.1071,1.4083,0.1218,0.1368,1.4083,0.1218,0.1368,0.3000,0.0600,0.0002,0,-0.5000,-100.0000,-0.0500,-0.5000,-100.0000,-0.0500,21.8212,63.1270,-0.0300,0.2700,0.0000,0.0000,0.0000,0.0000,0.0000,0.0000
-29.1990,40.2464,-11.6611,0.0829,0.2462,-0.1800,1.6200,0.6400,0.0000,0.4386,-0.5437,0.0019,996,1497,1527,1502,2008,1000,1505,1000,1000,1281,1503,1007,1014,0.4088,-0.2171,-0.0995,-0.0392,-0.0097,0.9900,0.9842,0.1032,-0.9803,-0.1071,1.4083,0.1218,0.1368,1.4083,0.1218,0.1368,0.3000,0.0600,0.0002,0,-0.5000,-100.0000,-0.0500,-0.5000,-100.0000,-0.0500,21.8484,63.1580,-0.0300,0.2700,0.0000,0.0000,0.0000,0.0000,0.0000,0.0000
-29.1635,40.2171,-11.6406,0.0829,0.0821,-0.1800,1.6200,0.6400,0.0000,0.4382,-0.5433,0.0019,996,1497,1527,1502,2008,1000,1505,1000,1000,1281,1503,1007,1014,0.3462,-0.1748,-0.0597,-0.0382,-0.0116,0.9882,0.9834,0.1033,-0.9796,-0.1070,1.4083,0.1218,0.1368,1.4083,0.1218,0.1368,0.3000,0.0600,0.0002,0,-0.5000,-100.0000,-0.0500,-0.5000,-100.0000,-0.0500,21.8756,63.1890,-0.0300,0.2700,0.0000,0.0000,0.0000,0.0000,0.0000,0.0000
-29.1286,40.1890,-11.6199,0.0829,0.1642,-0.1800,1.6200,0.6400,0.0000,0.4377,-0.5431,0.0018,996,1497,1527,1502,2008,1000,1505,1000,1000,1281,1503,1007,1014,0.2948,-0.0718,-0.0271,-0.0410,-0.0093,0.9868,0.9826,0.1036,-0.9790,-0.1071,1.4083,0.1218,0.1368,1.4083,0.1218,0.1368,0.3000,0.0600,0.0002,0,-0.5000,-100.0000,-0.0500,-0.5000,-100.0000,-0.0500,21.9027,63.2200,-0.0300,0.2700,0.0000,0.0000,0.0000,0.0000,0.0000,0.0000
-29.0941,40.1614,-11.5998,0.1657,0.1642,-0.1200,1.6200,0.9600,0.0000,0.4381,-0.5428,0.0018,996,1497,1527,1502,2008,1000,1505,1000,1000,1281,1503,1007,1014,0.3166,-0.0102,-0.0145,-0.0417,-0.0116,0.9922,0.9826,0.1029,-0.9791,-0.1065,1.4083,0.1218,0.1368,1.4083,0.1218,0.1368,0.3000,0.0600,0.0002,0,-0.5000,-100.0000,-0.0500,-0.5000,-100.0000,-0.0500,21.9298,63.2509,-0.0200,0.2700,0.0000,0.0000,0.0000,0.0000,0.0000,0.0000
-29.0588,40.1338,-11.5795,0.1657,0.1642,-0.1800,1.6200,0.6400,0.0000,0.4366,-0.5423,0.0018,996,1497,1527,1502,2008,1000,1505,1000,1000,1281,1503,1007,1014,0.3802,-0.0350,-0.0210,-0.0412,-0.0104,0.9952,0.9808,0.1039,-0.9772,-0.1075,1.4083,0.1218,0.1368,1.4083,0.1218,0.1368,0.3000,0.0600,0.0002,0,-0.5000,-100.0000,-0.0500,-0.5000,-100.0000,-0.0500,21.9568,63.2818,-0.0300,0.2700,0.0000,0.0000,0.0000,0.0000,0.0000,0.0000
-29.0223,40.1057,-11.5584,0.0829,0.1642,-0.1800,1.6200,0.6400,0.0000,0.4360,-0.5419,0.0018,996,1497,1527,1502,2008,1000,1505,1000,1000,1281,1503,1007,1014,0.4888,-0.0955,0.0025,-0.0352,-0.0099,0.9945,0.9796,0.1041,-0.9761,-0.1077,1.4083,0.1218,0.1368,1.4083,0.1218,0.1368,0.3000,0.0600,0.0002,0,-0.5000,-100.0000,-0.0500,-0.5000,-100.0000,-0.0500,21.9838,63.3128,-0.0300,0.2700,0.0000,0.0000,0.0000,0.0000,0.0000,0.0000
-28.9862,40.0780,-11.5384,0.0829,0.1642,-0.1800,1.6200,0.6400,0.0000,0.4355,-0.5415,0.0019,996,1497,1527,1502,2008,1000,1505,1000,1000,1281,1503,1007,1014,0.4729,-0.0784,-0.0615,-0.0378,-0.0078,0.9882,0.9789,0.1041,-0.9750,-0.1079,1.4083,0.1218,0.1368,1.4083,0.1218,0.1368,0.3000,0.0600,0.0002,0,-0.5000,-100.0000,-0.0500,-0.5000,-100.0000,-0.0500,22.0108,63.3437,-0.0300,0.2700,0.0000,0.0000,0.0000,0.0000,0.0000,0.0000
-28.9507,40.0501,-11.5195,0.0829,0.1642,-0.1800,1.6200,0.6400,0.0000,0.4350,-0.5412,0.0022,996,1497,1527,1502,2008,1000,1505,1000,1000,1281,1503,1007,1014,0.4443,-0.0102,-0.1499,-0.0392,-0.0117,0.9899,0.9784,0.1040,-0.9740,-0.1084,1.4083,0.1218,0.1368,1.4083,0.1218,0.1368,0.3000,0.0600,0.0002,0,-0.5000,-100.0000,-0.0500,-0.5000,-100.0000,-0.0500,22.0378,63.3746,-0.0300,0.2700,0.0000,0.0000,0.0000,0.0000,0.0000,0.0000
-28.9159,40.0224,-11.5009,0.0829,0.1642,-0.1800,1.6200,0.6400,0.0000,0.4346,-0.5408,0.0023,996,1497,1527,1502,2008,1000,1505,1000,1000,1281,1503,1007,1014,0.4280,0.0160,-0.1673,-0.0389,-0.0119,0.9898,0.9776,0.1040,-0.9731,-0.1085,1.4083,0.1218,0.1368,1.4083,0.1218,0.1368,0.3000,0.0600,0.0002,0,-0.5000,-100.0000,-0.0500,-0.5000,-100.0000,-0.0500,22.0647,63.4056,-0.0300,0.2700,0.0000,0.0000,0.0000,0.0000,0.0000,0.0000
-28.8810,39.9946,-11.4814,0.1657,0.1642,-0.1200,1.6200,0.9600,0.0000,0.4350,-0.5403,0.0018,996,1497,1527,1502,2008,1000,1505,1000,1000,1281,1503,1007,1014,0.3476,-0.0748,-0.0050,-0.0403,-0.0091,0.9874,0.9771,0.1035,-0.9735,-0.1071,1.4083,0.1218,0.1368,1.4083,0.1218,0.1368,0.3000,0.0600,0.0002,0,-0.5000,-100.0000,-0.0500,-0.5000,-100.0000,-0.0500,22.0917,63.4366,-0.0200,0.2700,0.0000,0.0000,0.0000,0.0000,0.0000,0.0000
-28.8463,39.9671,-11.4616,0.0829,0.1642,-0.1800,1.6200,0.6400,0.0000,0.4336,-0.5400,0.0020,996,1497,1527,1502,2008,1000,1505,1000,1000,1281,1503,1007,1014,0.3898,-0.0048,-0.0600,-0.0394,-0.0101,0.9896,0.9756,0.1044,-0.9717,-0.1084,1.4083,0.1218,0.1368,1.4083,0.1218,0.1368,0.3000,0.0600,0.0002,0,-0.5000,-100.0000,-0.0500,-0.5000,-100.0000,-0.0500,22.1186,63.4676,-0.0300,0.2700,0.0000,0.0000,0.0000,0.0000,0.0000,0.0000
-28.8126,39.9390,-11.4432,0.0829,0.1642,-0.1800,1.6200,0.6400,0.0000,0.4333,-0.5396,0.0023,996,1497,1527,1502,2008,1000,1505,1000,1000,1281,1503,1007,1014,0.3106,0.0012,-0.1891,-0.0397,-0.0109,0.9917,0.9752,0.1041,-0.9706,-0.1087,1.4083,0.1218,0.1368,1.4083,0.1218,0.1368,0.3000,0.0600,0.0002,0,-0.5000,-100.0000,-0.0500,-0.5000,-100.0000,-0.0500,22.1454,63.4986,-0.0300,0.2700,0.0000,0.0000,0.0000,0.0000,0.0000,0.0000
-28.7784,39.9120,-11.4244,-0.0000,0.0821,-0.1800,1.6200,0.6400,0.0000,0.4327,-0.5393,0.0019,996,1497,1527,1502,2008,1000,1505,1000,1000,1281,1503,1007,1014,0.3575,0.0138,-0.0422,-0.0418,-0.0096,0.9897,0.9739,0.1046,-0.9701,-0.1085,1.4083,0.1218,0.1368,1.4083,0.1218,0.1368,0.3000,0.0600,0.0002,0,-0.5000,-100.0000,-0.0500,-0.5000,-100.0000,-0.0500,22.1723,63.5296,-0.0300,0.2700,0.0000,0.0000,0.0000,0.0000,0.0000,0.0000
-28.7435,39.8848,-11.4049,0.1657,0.1642,-0.1800,1.6200,0.6400,0.0000,0.4321,-0.5389,0.0017,996,1497,1527,1502,2008,1000,1505,1000,1000,1281,1503,1007,1014,0.4308,-0.0053,-0.0005,-0.0403,-0.0101,0.9902,0.9727,0.1050,-0.9693,-0.1085,1.4083,0.1218,0.1368,1.4083,0.1218,0.1368,0.3000,0.0600,0.0002,0,-0.5000,-100.0000,-0.0500,-0.5000,-100.0000,-0.0500,22.1991,63.5606,-0.0300,0.2700,0.0000,0.0000,0.0000,0.0000,0.0000,0.0000
-28.7088,39.8581,-11.3855,-0.0000,0.0821,-0.1800,1.6200,0.6400,0.0000,0.4318,-0.5386,0.0019,996,1497,1527,1502,2008,1000,1505,1000,1000,1281,1503,1007,1014,0.3142,0.0488,-0.0449,-0.0405,-0.0093,0.9909,0.9723,0.1049,-0.9684,-0.1087,1.4083,0.1218,0.1368,1.4083,0.1218,0.1368,0.3000,0.0600,0.0002,0,-0.5000,-100.0000,-0.0500,-0.5000,-100.0000,-0.0500,22.2259,63.5916,-0.0300,0.2700,0.0000,0.0000,0.0000,0.0000,0.0000,0.0000
-28.6753,39.8309,-11.3661,0.0829,0.1642,-0.1200,1.6200,0.9600,0.0000,0.4324,-0.5382,0.0020,996,1497,1527,1502,2008,1000,1505,1000,1000,1281,1503,1007,1014,0.1779,0.0251,-0.0715,-0.0391,-0.0114,0.9900,0.9725,0.1038,-0.9685,-0.1078,1.4083,0.1218,0.1368,1.4083,0.1218,0.1368,0.3000,0.0600,0.0002,0,-0.5000,-100.0000,-0.0500,-0.5000,-100.0000,-0.0500,22.2527,63.6226,-0.0200,0.2700,0.0000,0.0000,0.0000,0.0000,0.0000,0.0000
-28.6435,39.8040,-11.3474,0.0829,0.1642,-0.1800,1.6200,0.6400,0.0000,0.4311,-0.5380,0.0021,996,1497,1527,1502,2008,1000,1505,1000,1000,1281,1503,1007,1014,0.1122,0.1589,-0.1000,-0.0397,-0.0076,0.9950,0.9712,0.1047,-0.9670,-0.1089,1.4083,0.1218,0.1368,1.4083,0.1218,0.1368,0.3000,0.0600,0.0002,0,-0.5000,-100.0000,-0.0500,-0.5000,-100.0000,-0.0500,22.2794,63.6537,-0.0300,0.2700,0.0000,0.0000,0.0000,0.0000,0.0000,0.0000
-28.6134,39.7780,-11.3297,0.0829,0.1642,-0.1800,1.6200,0.6400,0.0000,0.4310,-0.5376,0.0019,996,1497,1527,1502,2008,1000,1505,1000,1000,1281,1503,1007,1014,-0.0735,0.1361,-0.0495,-0.0422,-0.0059,0.9936,0.9705,0.1047,-0.9666,-0.1085,1.4083,0.1218,0.1368,1.4083,0.1218,0.1368,0.3000,0.0600,0.0002,0,-0.5000,-100.0000,-0.0500,-0.5000,-100.0000,-0.0500,22.3061,63.6847,-0.0300,0.2700,0.0000,0.0000,0.0000,0.0000,0.0000,0.0000
-28.5847,39.7517,-11.3121,0.0829,0.1642,-0.1800,1.6200,0.6400,0.0000,0.4306,-0.5373,0.0021,996,1497,1527,1502,2008,1000,1505,1000,1000,1281,1503,1007,1014,-0.1080,0.2372,-0.1144,-0.0377,-0.0129,0.9910,0.9701,0.1046,-0.9658,-0.1088,1.4083,0.1218,0.1368,1.4083,0.1218,0.1368,0.3000,0.0600,0.0002,0,-0.5000,-100.0000,-0.0500,-0.5000,-100.0000,-0.0500,22.3328,63.7158,-0.0300,0.2700,0.0000,0.0000,0.0000,0.0000,0.0000,0.0000
-28.5563,39.7261,-11.2941,-0.0000,0.1642,-0.1800,1.6200,0.6400,0.0000,0.4302,-0.5370,0.0017,996,1497,1527,1502,2008,1000,1505,1000,1000,1281,1503,1007,1014,-0.1015,0.2505,0.0127,-0.0404,-0.0094,0.9939,0.9689,0.1051,-0.9655,-0.1085,1.4083,0.1218,0.1368,1.4083,0.1218,0.1368,0.3000,0.0600,0.0002,0,-0.5000,-100.0000,-0.0500,-0.5000,-100.0000,-0.0500,22.3595,63.7469,-0.0300,0.2700,0.0000,0.0000,0.0000,0.0000,0.0000,0.0000
-28.5260,39.7004,-11.2748,0.0829,0.2462,-0.1800,1.6200,0.6400,0.0000,0.4296,-0.5365,0.0015,996,1497,1527,1502,2008,1000,1505,1000,1000,1281,1503,1007,1014,0.0350,0.1619,0.0858,-0.0440,-0.0105,0.9944,0.9677,0.1054,-0.9646,-0.1085,1.4083,0.1218,0.1368,1.4083,0.1218,0.1368,0.3000,0.0600,0.0002,0,-0.5000,-100.0000,-0.0500,-0.5000,-100.0000,-0.0500,22.3861,63.7779,-0.0300,0.2700,0.0000,0.0000,0.0000,0.0000,0.0000,0.0000
-28.4945,39.6749,-11.2557,0.0829,0.1642,-0.1200,1.6200,0.9600,0.0000,0.4299,-0.5363,0.0019,996,1497,1527,1502,2008,1000,1505,1000,1000,1281,1503,1007,1014,0.1022,0.2568,-0.0322,-0.0411,-0.0107,0.9958,0.9680,0.1045,-0.9643,-0.1082,1.4083,0.1218,0.1368,1.4083,0.1218,0.1368,0.3000,0.0600,0.0002,0,-0.5000,-100.0000,-0.0500,-0.5000,-100.0000,-0.0500,22.4127,63.8090,-0.0200,0.2700,0.0000,0.0000,0.0000,0.0000,0.0000,0.0000
-28.4624,39.6506,-11.2372,0.0829,0.1642,-0.1800,1.6200,0.6400,0.0000,0.4284,-0.5360,0.0018,996,1497,1527,1502,2008,1000,1505,1000,1000,1281,1503,1007,1014,0.2297,0.2972,-0.0028,-0.0417,-0.0109,0.9873,0.9663,0.1057,-0.9626,-0.1094,1.4083,0.1218,0.1368,1.4083,0.1218,0.1368,0.3000,0.0600,0.0002,0,-0.5000,-100.0000,-0.0500,-0.5000,-100.0000,-0.0500,22.4393,63.8401,-0.0300,0.2700,0.0000,0.0000,0.0000,0.0000,0.0000,0.0000
-28.4291,39.6260,-11.2185,0.1657,0.1642,-0.1800,1.6200,0.6400,0.0000,0.4278,-0.5355,0.0017,996,1497,1527,1502,2008,1000,1505,1000,1000,1281,1503,1007,1014,0.3214,0.2062,0.0453,-0.0386,-0.0120,0.9886,0.9651,0.1060,-0.9617,-0.1094,1.4083,0.1218,0.1368,1.4083,0.1218,0.1368,0.3000,0.0600,0.0002,0,-0.5000,-100.0000,-0.0500,-0.5000,-100.0000,-0.0500,22.4658,63.8712,-0.0300,0.2700,0.0000,0.0000,0.0000,0.0000,0.0000,0.0000
-28.3958,39.6007,-11.2004,0.1657,0.1642,-0.1800,1.6200,0.6400,0.0000,0.4274,-0.5352,0.0019,996,1497,1527,1502,2008,1000,1505,1000,1000,1281,1503,1007,1014,0.3152,0.2602,-0.0496,-0.0384,-0.0123,0.9951,0.9646,0.1059,-0.9607,-0.1098,1.4083,0.1218,0.1368,1.4083,0.1218,0.1368,0.3000,0.0600,0.0002,0,-0.5000,-100.0000,-0.0500,-0.5000,-100.0000,-0.0500,22.4923,63.9021,-0.0300,0.2700,0.0000,0.0000,0.0000,0.0000,0.0000,0.0000
-28.3630,39.5753,-11.1834,0.1657,0.1642,-0.1800,1.6200,0.6400,0.0000,0.4269,-0.5349,0.0021,996,1497,1527,1502,2008,1000,1505,1000,1000,1281,1503,1007,1014,0.3586,0.2863,-0.1044,-0.0384,-0.0111,0.9939,0.9639,0.1059,-0.9597,-0.1102,1.4083,0.1218,0.1368,1.4083,0.1218,0.1368,0.3000,0.0600,0.0002,0,-0.5000,-100.0000,-0.0500,-0.5000,-100.0000,-0.0500,22.5187,63.9331,-0.0300,0.2700,0.0000,0.0000,0.0000,0.0000,0.0000,0.0000
-28.3301,39.5504,-11.1667,0.0829,0.1642,-0.1800,1.6200,0.6400,0.0000,0.4264,-0.5346,0.0023,996,1497,1527,1502,2008,1000,1505,1000,1000,1281,1503,1007,1014,0.3444,0.3339,-0.1440,-0.0405,-0.0088,0.9895,0.9633,0.1059,-0.9588,-0.1105,1.4083,0.1218,0.1368,1.4083,0.1218,0.1368,0.3000,0.0600,0.0002,0,-0.5000,-100.0000,-0.0500,-0.5000,-100.0000,-0.0500,22.5452,63.9641,-0.0300,0.2700,0.0000,0.0000,0.0000,0.0000,0.0000,0.0000
-28.2961,39.5247,-11.1498,0.0829,0.0821,-0.1200,1.6200,0.9600,0.0000,0.4265,-0.5341,0.0022,996,1497,1527,1502,2008,1000,1505,1000,1000,1281,1503,1007,1014,0.5187,0.1810,-0.1185,-0.0420,-0.0091,0.9884,0.9628,0.1053,-0.9584,-0.1097,1.4083,0.1218,0.1368,1.4083,0.1218,0.1368,0.3000,0.0600,0.0002,0,-0.5000,-100.0000,-0.0500,-0.5000,-100.0000,-0.0500,22.5715,63.9951,-0.0200,0.2700,0.0000,0.0000,0.0000,0.0000,0.0000,0.0000
-28.2605,39.4986,-11.1330,0.0829,0.1642,-0.1800,1.6200,0.6400,0.0000,0.4250,-0.5338,0.0021,996,1497,1527,1502,2008,1000,1505,1000,1000,1281,1503,1007,1014,0.6300,0.2549,-0.1024,-0.0404,-0.0124,0.9858,0.9610,0.1066,-0.9567,-0.1109,1.4083,0.1218,0.1368,1.4083,0.1218,0.1368,0.3000,0.0600,0.0002,0,-0.5000,-100.0000,-0.0500,-0.5000,-100.0000,-0.0500,22.5978,64.0260,-0.0300,0.2700,0.0000,0.0000,0.0000,0.0000,0.0000,0.0000
-28.2240,39.4722,-11.1157,0.0829,0.1642,-0.1800,1.6200,0.6400,0.0000,0.4244,-0.5332,0.0020,996,1497,1527,1502,2008,1000,1505,1000,1000,1281,1503,1007,1014,0.7097,0.1283,-0.0692,-0.0399,-0.0115,0.9886,0.9597,0.1068,-0.9556,-0.1109,1.4083,0.1218,0.1368,1.4083,0.1218,0.1368,0.3000,0.0600,0.0002,0,-0.5000,-100.0000,-0.0500,-0.5000,-100.0000,-0.0500,22.6241,64.0569,-0.0300,0.2700,0.0000,0.0000,0.0000,0.0000,0.0000,0.0000
-28.1852,39.4448,-11.0969,-0.0000,0.1642,-0.1800,1.6200,0.6400,0.0000,0.4237,-0.5326,0.0021,996,1497,1527,1502,2008,1000,1505,1000,1000,1281,1503,1007,1014,0.8468,-0.0296,-0.0862,-0.0441,-0.0084,0.9950,0.9585,0.1068,-0.9542,-0.1111,1.4083,0.1218,0.1368,1.4083,0.1218,0.1368,0.3000,0.0600,0.0002,0,-0.5000,-100.0000,-0.0500,-0.5000,-100.0000,-0.0500,22.6504,64.0879,-0.0300,0.2700,0.0000,0.0000,0.0000,0.0000,0.0000,0.0000
-28.1448,39.4163,-11.0771,-0.0000,0.0821,-0.1800,1.6200,0.6400,0.0000,0.4230,-0.5321,0.0020,996,1497,1527,1502,2008,1000,1505,1000,1000,1281,1503,1007,1014,0.9496,-0.1074,-0.0384,-0.0435,-0.0121,0.9903,0.9571,0.1072,-0.9531,-0.1111,1.4083,0.1218,0.1368,1.4083,0.1218,0.1368,0.3000,0.0600,0.0002,0,-0.5000,-100.0000,-0.0500,-0.5000,-100.0000,-0.0500,22.6766,64.1189,-0.0300,0.2700,0.0000,0.0000,0.0000,0.0000,0.0000,0.0000
-28.1033,39.3870,-11.0570,-0.0000,0.0821,-0.1800,1.6200,0.6400,0.0000,0.4224,-0.5317,0.0023,996,1497,1527,1502,2008,1000,1505,1000,1000,1281,1503,1007,1014,0.9618,-0.1340,-0.1268,-0.0421,-0.0101,0.9971,0.9564,0.1070,-0.9518,-0.1116,1.4083,0.1218,0.1368,1.4083,0.1218,0.1368,0.3000,0.0600,0.0002,0,-0.5000,-100.0000,-0.0500,-0.5000,-100.0000,-0.0500,22.7028,64.1498,-0.0300,0.2700,0.0000,0.0000,0.0000,0.0000,0.0000,0.0000
-28.0626,39.3574,-11.0384,-0.0000,-0.0821,-0.1200,1.6200,0.9600,0.0000,0.4226,-0.5313,0.0023,996,1497,1527,1502,2008,1000,1505,1000,1000,1281,1503,1007,1014,0.9673,-0.1433,-0.1400,-0.0403,-0.0087,0.9939,0.9562,0.1063,-0.9516,-0.1109,1.4083,0.1218,0.1368,1.4083,0.1218,0.1368,0.3000,0.0600,0.0002,0,-0.5000,-100.0000,-0.0500,-0.5000,-100.0000,-0.0500,22.7289,64.1807,-0.0200,0.2700,0.0000,0.0000,0.0000,0.0000,0.0000,0.0000
-28.0220,39.3281,-11.0201,0.0829,0.1642,-0.1800,1.6200,0.6400,0.0000,0.4211,-0.5309,0.0024,996,1497,1527,1502,2008,1000,1505,1000,1000,1281,1503,1007,1014,1.0252,-0.1251,-0.1676,-0.0373,-0.0091,0.9896,0.9544,0.1074,-0.9497,-0.1121,1.4083,0.1218,0.1368,1.4083,0.1218,0.1368,0.3000,0.0600,0.0002,0,-0.5000,-100.0000,-0.0500,-0.5000,-100.0000,-0.0500,22.7550,64.2117,-0.0300,0.2700,0.0000,0.0000,0.0000,0.0000,0.0000,0.0000
-27.9816,39.2981,-11.0021,0.1657,0.1642,-0.1800,1.6200,0.6400,0.0000,0.4206,-0.5305,0.0027,996,1497,1527,1502,2008,1000,1505,1000,1000,1281,1503,1007,1014,0.9749,-0.1134,-0.2655,-0.0400,-0.0096,0.9923,0.9538,0.1072,-0.9485,-0.1125,1.4083,0.1218,0.1368,1.4083,0.1218,0.1368,0.3000,0.0600,0.0002,0,-0.5000,-100.0000,-0.0500,-0.5000,-100.0000,-0.0500,22.7811,64.2426,-0.0300,0.2700,0.0000,0.0000,0.0000,0.0000,0.0000,0.0000
-27.9412,39.2681,-10.9845,0.1657,0.1642,-0.1800,1.6200,0.6400,0.0000,0.4200,-0.5300,0.0026,996,1497,1527,1502,2008,1000,1505,1000,1000,1281,1503,1007,1014,1.0517,-0.1737,-0.2426,-0.0416,-0.0067,0.9925,0.9526,0.1073,-0.9473,-0.1126,1.4083,0.1218,0.1368,1.4083,0.1218,0.1368,0.3000,0.0600,0.0002,0,-0.5000,-100.0000,-0.0500,-0.5000,-100.0000,-0.0500,22.8072,64.2736,-0.0300,0.2700,0.0000,0.0000,0.0000,0.0000,0.0000,0.0000
-27.8993,39.2380,-10.9657,-0.0000,0.1642,-0.1800,1.6200,0.6400,0.0000,0.4193,-0.5294,0.0024,996,1497,1527,1502,2008,1000,1505,1000,1000,1281,1503,1007,1014,1.0972,-0.2940,-0.1461,-0.0402,-0.0081,0.9919,0.9510,0.1077,-0.9463,-0.1124,1.4083,0.1218,0.1368,1.4083,0.1218,0.1368,0.3000,0.0600,0.0002,0,-0.5000,-100.0000,-0.0500,-0.5000,-100.0000,-0.0500,22.8332,64.3046,-0.0300,0.2700,0.0000,0.0000,0.0000,0.0000,0.0000,0.0000
-27.8570,39.2073,-10.9459,0.0829,0.1642,-0.1800,1.6200,0.6400,0.0000,0.4188,-0.5290,0.0023,996,1497,1527,1502,2008,1000,1505,1000,1000,1281,1503,1007,1014,1.0620,-0.2726,-0.1363,-0.0415,-0.0099,0.9952,0.9500,0.1079,-0.9454,-0.1125,1.4083,0.1218,0.1368,1.4083,0.1218,0.1368,0.3000,0.0600,0.0002,0,-0.5000,-100.0000,-0.0500,-0.5000,-100.0000,-0.0500,22.8591,64.3356,-0.0300,0.2700,0.0000,0.0000,0.0000,0.0000,0.0000,0.0000
-27.8144,39.1769,-10.9263,0.0829,0.1642,-0.1200,1.6200,0.9600,0.0000,0.4189,-0.5285,0.0022,996,1497,1527,1502,2008,1000,1505,1000,1000,1281,1503,1007,1014,1.1674,-0.2875,-0.0919,-0.0402,-0.0072,0.9892,0.9496,0.1074,-0.9452,-0.1118,1.4083,0.1218,0.1368,1.4083,0.1218,0.1368,0.3000,0.0600,0.0002,0,-0.5000,-100.0000,-0.0500,-0.5000,-100.0000,-0.0500,22.8851,64.3665,-0.0200,0.2700,0.0000,0.0000,0.0000,0.0000,0.0000,0.0000
-27.7700,39.1458,-10.9050,0.0829,0.1642,-0.1800,1.6200,0.6400,0.0000,0.4174,-0.5279,0.0018,996,1497,1527,1502,2008,1000,1505,1000,1000,1281,1503,1007,1014,1.1733,-0.4305,0.0131,-0.0383,-0.0102,0.9959,0.9471,0.1086,-0.9434,-0.1123,1.4083,0.1218,0.1368,1.4083,0.1218,0.1368,0.3000,0.0600,0.0002,0,-0.5000,-100.0000,-0.0500,-0.5000,-100.0000,-0.0500,22.9110,64.3975,-0.0300,0.2700,0.0000,0.0000,0.0000,0.0000,0.0000,0.0000
-27.7249,39.1142,-10.8831,0.1657,0.1642,-0.1800,1.6200,0.6400,0.0000,0.4167,-0.5276,0.0020,996,1497,1527,1502,2008,1000,1505,1000,1000,1281,1503,1007,1014,1.1977,-0.3464,-0.0209,-0.0399,-0.0079,0.9905,0.9463,0.1088,-0.9422,-0.1129,1.4083,0.1218,0.1368,1.4083,0.1218,0.1368,0.3000,0.0600,0.0002,0,-0.5000,-100.0000,-0.0500,-0.5000,-100.0000,-0.0500,22.9369,64.4285,-0.0300,0.2700,0.0000,0.0000,0.0000,0.0000,0.0000,0.0000
-27.6803,39.0833,-10.8619,0.0829,0.1642,-0.1800,1.6200,0.6400,0.0000,0.4161,-0.5272,0.0020,996,1497,1527,1502,2008,1000,1505,1000,1000,1281,1503,1007,1014,1.1813,-0.3067,-0.0436,-0.0378,-0.0092,0.9933,0.9453,0.1090,-0.9413,-0.1131,1.4083,0.1218,0.1368,1.4083,0.1218,0.1368,0.3000,0.0600,0.0002,0,-0.5000,-100.0000,-0.0500,-0.5000,-100.0000,-0.0500,22.9627,64.4595,-0.0300,0.2700,0.0000,0.0000,0.0000,0.0000,0.0000,0.0000
-27.6362,39.0525,-10.8408,0.0829,0.1642,-0.1800,1.6200,0.6400,0.0000,0.4156,-0.5268,0.0020,996,1497,1527,1502,2008,1000,1505,1000,1000,1281,1503,1007,1014,1.0758,-0.2757,-0.0176,-0.0365,-0.0075,0.9884,0.9444,0.1092,-0.9404,-0.1131,1.4083,0.1218,0.1368,1.4083,0.1218,0.1368,0.3000,0.0600,0.0002,0,-0.5000,-100.0000,-0.0500,-0.5000,-100.0000,-0.0500,22.9885,64.4906,-0.0300,0.2700,0.0000,0.0000,0.0000,0.0000,0.0000,0.0000
