roll_imu,pitch_imu,yaw_imu,alpha,beta,roll_des,pitch_des,yaw_des,throttle_des,roll_pid,pitch_pid,yaw_pid,radio_ch1,radio_ch2,radio_ch3,radio_ch4,radio_ch5,radio_ch6,radio_ch7,radio_ch8,radio_ch9,radio_ch10,radio_ch11,radio_ch12,radio_ch13,GyroX,GyroY,GyroZ,AccX,AccY,AccZ,s1_command,s2_command,s3_command,s4_command,kp_roll,ki_roll,kd_roll,kp_pitch,ki_pitch,kd_pitch,kp_yaw,ki_yaw,kd_yaw,failsafeTriggered,kp_alphaRoll,ki_alphaRoll,kd_alphaRoll,kp_betaPitch,ki_betaPitch,kd_betaPitch,ripIMU_roll,ripIMU_pitch,ripRoll_des,ripPitch_des,error_alphaRoll,integral_alphaRoll,derivative_alphaRoll,error_betaPitch,integral_betaPitch,derivative_betaPitch
0.0000,0.0000,0.0000,22.9558,31.1491,0.0000,0.0000,0.0000,0.0000,0.0000,0.0000,0.0000,1000,1500,1500,1500,2000,1000,1000,1000,1500,1500,1500,1500,1500,0.0000,0.0000,0.0000,0.0000,0.0000,0.0000,0.0000,0.0000,0.0000,0.0000,1.8032,0.0404,0.2698,1.8032,0.0404,0.2698,0.3000,0.0600,0.0002,0,-0.5000,-100.0000,-0.0500,-0.5000,-100.0000,-0.0500,0.0000,0.0000,0.0000,0.0000,0.0000,0.0000,0.0000,0.0000,0.0000,0.0000
-37.8135,46.1892,-16.9483,0.0829,-0.0000,-8.1000,-6.5400,-41.9200,0.0000,0.6316,-0.9700,-0.1256,910,1365,1391,1369,2008,1000,1505,1000,1505,1010,1745,1000,1991,0.0885,0.0454,-0.0474,-0.0375,-0.0231,0.8855,1.4759,0.4640,-1.7272,-0.2127,1.8393,0.3414,0.2698,1.8393,0.3414,0.2698,0.3000,0.0600,0.0002,0,-0.5000,-100.0000,-0.0500,-0.5000,-100.0000,-0.0500,14.4821,55.3906,-1.3500,-1.0900,0.0000,0.0000,0.0000,0.0000,0.0000,0.0000
-37.7777,46.1662,-16.9232,0.0829,-0.0000,-2.4600,-0.7800,-12.4800,0.0000,0.7348,-0.8635,-0.0374,971,1459,1487,1461,2008,1000,1505,1000,1505,1010,1746,1000,1990,0.1005,0.0087,-0.0577,-0.0431,-0.0253,0.9811,1.5608,0.1661,-1.6357,-0.0913,1.8393,0.3418,0.2698,1.8393,0.3418,0.2698,0.3000,0.0600,0.0002,0,-0.5000,-100.0000,-0.0500,-0.5000,-100.0000,-0.0500,14.5119,55.4227,-0.4100,-0.1300,0.0000,0.0000,0.0000,0.0000,0.0000,0.0000
-37.3416,45.8787,-16.6228,0.1657,0.0821,-0.3000,1.5000,0.0000,0.0000,0.7661,-0.8164,-0.0004,996,1495,1525,1500,2008,1000,1505,1000,1505,1010,1745,1000,1990,0.2044,0.0754,0.0006,-0.0418,-0.0277,0.9879,1.5821,0.0507,-1.5829,-0.0500,1.8393,0.3414,0.2698,1.8393,0.3414,0.2698,0.3000,0.0600,0.0002,0,-0.5000,-100.0000,-0.0500,-0.5000,-100.0000,-0.0500,14.8981,55.8155,-0.0500,0.2500,0.0000,0.0000,0.0000,0.0000,0.0000,0.0000
-37.3063,45.8557,-16.5995,0.0829,-0.0000,-0.1800,1.6200,0.6400,0.0000,0.7679,-0.8134,0.0009,996,1497,1527,1502,2008,1000,1505,1000,1505,1010,1745,1000,1991,0.1242,-0.0693,-0.1112,-0.0442,-0.0260,0.9879,1.5822,0.0446,-1.5804,-0.0465,1.8393,0.3414,0.2698,1.8393,0.3414,0.2698,0.3000,0.0600,0.0002,0,-0.5000,-100.0000,-0.0500,-0.5000,-100.0000,-0.0500,14.9293,55.8471,-0.0300,0.2700,0.0000,0.0000,0.0000,0.0000,0.0000,0.0000
-37.2707,45.8324,-16.5762,0.1657,0.0821,-0.1800,1.6200,0.6400,0.0000,0.7671,-0.8132,0.0019,996,1497,1527,1502,2008,1000,1505,1000,1505,1010,1746,1000,1991,0.1971,0.0135,-0.1163,-0.0443,-0.0258,0.9914,1.5822,0.0442,-1.5784,-0.0480,1.8393,0.3418,0.2698,1.8393,0.3418,0.2698,0.3000,0.0600,0.0002,0,-0.5000,-100.0000,-0.0500,-0.5000,-100.0000,-0.0500,14.9605,55.8786,-0.0300,0.2700,0.0000,0.0000,0.0000,0.0000,0.0000,0.0000
-37.2349,45.8091,-16.5521,0.0829,0.0821,-0.1800,1.6200,0.6400,0.0000,0.7666,-0.8128,0.0018,996,1497,1527,1502,2008,1000,1505,1000,1505,1010,1746,1000,1991,0.1569,0.0054,-0.0643,-0.0456,-0.0236,0.9865,1.5811,0.0444,-1.5775,-0.0480,1.8393,0.3418,0.2698,1.8393,0.3418,0.2698,0.3000,0.0600,0.0002,0,-0.5000,-100.0000,-0.0500,-0.5000,-100.0000,-0.0500,14.9917,55.9101,-0.0300,0.2700,0.0000,0.0000,0.0000,0.0000,0.0000,0.0000
-37.1987,45.7861,-16.5279,0.0829,-0.0000,-0.1800,1.6200,0.6400,0.0000,0.7657,-0.8124,0.0018,996,1497,1527,1502,2008,1000,1505,1000,1505,1010,1746,1000,1990,0.2278,0.0183,-0.0604,-0.0442,-0.0257,0.9890,1.5799,0.0449,-1.5763,-0.0485,1.8393,0.3418,0.2698,1.8393,0.3418,0.2698,0.3000,0.0600,0.0002,0,-0.5000,-100.0000,-0.0500,-0.5000,-100.0000,-0.0500,15.0228,55.9416,-0.0300,0.2700,0.0000,0.0000,0.0000,0.0000,0.0000,0.0000
-37.1632,45.7636,-16.5045,0.0829,-0.0000,-0.1800,1.6200,0.6400,0.0000,0.7652,-0.8123,0.0016,996,1497,1527,1502,2008,1000,1505,1000,1505,1010,1746,1000,1990,0.1675,0.1303,-0.0190,-0.0422,-0.0272,0.9905,1.5791,0.0454,-1.5758,-0.0487,1.8393,0.3418,0.2698,1.8393,0.3418,0.2698,0.3000,0.0600,0.0002,0,-0.5000,-100.0000,-0.0500,-0.5000,-100.0000,-0.0500,15.0540,55.9730,-0.0300,0.2700,0.0000,0.0000,0.0000,0.0000,0.0000,0.0000
-37.1274,45.7413,-16.4812,0.1657,-0.0000,-0.1800,1.6200,0.6400,0.0000,0.7643,-0.8115,0.0018,996,1497,1527,1502,2008,1000,1505,1000,1505,1010,1745,1000,1991,0.2067,-0.0039,-0.0840,-0.0439,-0.0246,0.9908,1.5777,0.0453,-1.5740,-0.0490,1.8393,0.3414,0.2698,1.8393,0.3414,0.2698,0.3000,0.0600,0.0002,0,-0.5000,-100.0000,-0.0500,-0.5000,-100.0000,-0.0500,15.0851,56.0045,-0.0300,0.2700,0.0000,0.0000,0.0000,0.0000,0.0000,0.0000
-37.0916,45.7182,-16.4576,0.0829,-0.0000,-0.1200,1.6200,0.9600,0.0000,0.7650,-0.8113,0.0018,996,1497,1527,1502,2008,1000,1505,1000,1505,1010,1746,1000,1991,0.1648,0.0679,-0.0652,-0.0444,-0.0292,0.9853,1.5780,0.0445,-1.5745,-0.0480,1.8393,0.3418,0.2698,1.8393,0.3418,0.2698,0.3000,0.0600,0.0002,0,-0.5000,-100.0000,-0.0500,-0.5000,-100.0000,-0.0500,15.1162,56.0360,-0.0200,0.2700,0.0000,0.0000,0.0000,0.0000,0.0000,0.0000
-37.0557,45.6956,-16.4339,0.0829,-0.0000,-0.1800,1.6200,0.6400,0.0000,0.7631,-0.8107,0.0018,996,1497,1527,1502,2008,1000,1505,1000,1505,1010,1746,1000,1991,0.2264,0.0182,-0.0561,-0.0452,-0.0264,0.9888,1.5756,0.0459,-1.5720,-0.0494,1.8393,0.3418,0.2698,1.8393,0.3418,0.2698,0.3000,0.0600,0.0002,0,-0.5000,-100.0000,-0.0500,-0.5000,-100.0000,-0.0500,15.1474,56.0675,-0.0300,0.2700,0.0000,0.0000,0.0000,0.0000,0.0000,0.0000
-37.0191,45.6724,-16.4095,0.0829,0.0821,-0.1800,1.6200,0.6400,0.0000,0.7625,-0.8103,0.0016,996,1497,1527,1502,2008,1000,1505,1000,1505,1010,1746,1000,1991,0.1925,0.0058,-0.0145,-0.0465,-0.0259,0.9877,1.5744,0.0462,-1.5711,-0.0494,1.8393,0.3418,0.2698,1.8393,0.3418,0.2698,0.3000,0.0600,0.0002,0,-0.5000,-100.0000,-0.0500,-0.5000,-100.0000,-0.0500,15.1785,56.0990,-0.0300,0.2700,0.0000,0.0000,0.0000,0.0000,0.0000,0.0000
-36.9826,45.6487,-16.3848,0.0829,-0.0000,-0.1800,1.6200,0.6400,0.0000,0.7617,-0.8096,0.0019,996,1497,1527,1502,2008,1000,1505,1000,1505,1010,1746,1000,1991,0.2235,-0.0611,-0.0979,-0.0436,-0.0254,0.9866,1.5732,0.0460,-1.5695,-0.0498,1.8393,0.3418,0.2698,1.8393,0.3418,0.2698,0.3000,0.0600,0.0002,0,-0.5000,-100.0000,-0.0500,-0.5000,-100.0000,-0.0500,15.2096,56.1305,-0.0300,0.2700,0.0000,0.0000,0.0000,0.0000,0.0000,0.0000
-36.9462,45.6250,-16.3602,0.0829,-0.0000,-0.1800,1.6200,0.6400,0.0000,0.7612,-0.8090,0.0018,996,1497,1527,1502,2008,1000,1505,1000,1505,1010,1746,1000,1990,0.1783,-0.1406,-0.0748,-0.0458,-0.0268,0.9901,1.5720,0.0460,-1.5683,-0.0496,1.8393,0.3418,0.2698,1.8393,0.3418,0.2698,0.3000,0.0600,0.0002,0,-0.5000,-100.0000,-0.0500,-0.5000,-100.0000,-0.0500,15.2407,56.1619,-0.0300,0.2700,0.0000,0.0000,0.0000,0.0000,0.0000,0.0000
-36.9101,45.6014,-16.3360,0.0829,-0.0000,-0.1800,1.6200,0.6400,0.0000,0.7605,-0.8089,0.0017,996,1497,1527,1502,2008,1000,1505,1000,1505,1010,1746,1000,1990,0.1966,0.0009,-0.0552,-0.0430,-0.0262,0.9884,1.5712,0.0467,-1.5677,-0.0502,1.8393,0.3418,0.2698,1.8393,0.3418,0.2698,0.3000,0.0600,0.0002,0,-0.5000,-100.0000,-0.0500,-0.5000,-100.0000,-0.0500,15.2718,56.1934,-0.0300,0.2700,0.0000,0.0000,0.0000,0.0000,0.0000,0.0000
-36.8746,45.5786,-16.3121,-0.0000,-0.0000,-0.1200,1.6200,0.9600,0.0000,0.7612,-0.8087,0.0016,996,1497,1527,1502,2008,1000,1505,1000,1505,1010,1746,1000,1990,0.1053,0.0534,0.0093,-0.0450,-0.0214,0.9911,1.5714,0.0459,-1.5682,-0.0491,1.8393,0.3418,0.2698,1.8393,0.3418,0.2698,0.3000,0.0600,0.0002,0,-0.5000,-100.0000,-0.0500,-0.5000,-100.0000,-0.0500,15.3028,56.2249,-0.0200,0.2700,0.0000,0.0000,0.0000,0.0000,0.0000,0.0000
-36.8392,45.5562,-16.2886,0.0829,0.0821,-0.1800,1.6200,0.6400,0.0000,0.7592,-0.8084,0.0016,996,1497,1527,1502,2008,1000,1505,1000,1505,1010,1746,1000,1991,0.1886,0.0975,-0.0146,-0.0455,-0.0256,0.9912,1.5692,0.0475,-1.5659,-0.0508,1.8393,0.3418,0.2698,1.8393,0.3418,0.2698,0.3000,0.0600,0.0002,0,-0.5000,-100.0000,-0.0500,-0.5000,-100.0000,-0.0500,15.3339,56.2564,-0.0300,0.2700,0.0000,0.0000,0.0000,0.0000,0.0000,0.0000
-36.8035,45.5339,-16.2645,0.0829,0.0821,-0.1800,1.6200,0.6400,0.0000,0.7586,-0.8076,0.0017,996,1497,1527,1502,2008,1000,1505,1000,1505,1010,1746,1000,1991,0.1538,-0.0214,-0.0040,-0.0447,-0.0240,0.9909,1.5679,0.0473,-1.5646,-0.0507,1.8393,0.3418,0.2698,1.8393,0.3418,0.2698,0.3000,0.0600,0.0002,0,-0.5000,-100.0000,-0.0500,-0.5000,-100.0000,-0.0500,15.3649,56.2878,-0.0300,0.2700,0.0000,0.0000,0.0000,0.0000,0.0000,0.0000
-36.7667,45.5103,-16.2399,0.0829,0.0821,-0.1800,1.6200,0.6400,0.0000,0.7578,-0.8071,0.0018,996,1497,1527,1502,2008,1000,1505,1000,1505,1010,1745,1000,1991,0.1827,-0.0611,-0.0644,-0.0407,-0.0254,0.9898,1.5667,0.0475,-1.5631,-0.0511,1.8393,0.3414,0.2698,1.8393,0.3414,0.2698,0.3000,0.0600,0.0002,0,-0.5000,-100.0000,-0.0500,-0.5000,-100.0000,-0.0500,15.3960,56.3193,-0.0300,0.2700,0.0000,0.0000,0.0000,0.0000,0.0000,0.0000
-36.7307,45.4865,-16.2160,-0.0000,-0.0000,-0.1800,1.6200,0.6400,0.0000,0.7570,-0.8069,0.0018,996,1497,1527,1502,2008,1000,1505,1000,1505,1010,1745,1000,1991,0.2349,0.0305,-0.0607,-0.0430,-0.0269,0.9859,1.5657,0.0481,-1.5621,-0.0517,1.8393,0.3414,0.2698,1.8393,0.3414,0.2698,0.3000,0.0600,0.0002,0,-0.5000,-100.0000,-0.0500,-0.5000,-100.0000,-0.0500,15.4270,56.3507,-0.0300,0.2700,0.0000,0.0000,0.0000,0.0000,0.0000,0.0000
-36.6945,45.4633,-16.1920,0.1657,-0.0000,-0.1800,1.6200,0.6400,0.0000,0.7565,-0.8064,0.0017,996,1497,1527,1502,2008,1000,1505,1000,1505,1010,1746,1000,1991,0.2000,-0.0088,-0.0131,-0.0435,-0.0265,0.9896,1.5645,0.0482,-1.5612,-0.0515,1.8393,0.3418,0.2698,1.8393,0.3418,0.2698,0.3000,0.0600,0.0002,0,-0.5000,-100.0000,-0.0500,-0.5000,-100.0000,-0.0500,15.4580,56.3822,-0.0300,0.2700,0.0000,0.0000,0.0000,0.0000,0.0000,0.0000
-36.6589,45.4403,-16.1688,0.0829,-0.0000,-0.1200,1.6200,0.9600,0.0000,0.7568,-0.8062,0.0018,996,1497,1527,1502,2008,1000,1505,1000,1505,1010,1746,1000,1991,0.2426,0.0733,-0.0637,-0.0434,-0.0247,0.9894,1.5648,0.0475,-1.5612,-0.0512,1.8393,0.3418,0.2698,1.8393,0.3418,0.2698,0.3000,0.0600,0.0002,0,-0.5000,-100.0000,-0.0500,-0.5000,-100.0000,-0.0500,15.4890,56.4136,-0.0200,0.2700,0.0000,0.0000,0.0000,0.0000,0.0000,0.0000
-36.6237,45.4175,-16.1461,0.1657,-0.0000,-0.1800,1.6200,0.6400,0.0000,0.7553,-0.8058,0.0020,996,1497,1527,1502,2008,1000,1505,1000,1505,1010,1746,1000,1991,0.1741,0.0932,-0.1052,-0.0464,-0.0273,0.9886,1.5630,0.0486,-1.5591,-0.0525,1.8393,0.3418,0.2698,1.8393,0.3418,0.2698,0.3000,0.0600,0.0002,0,-0.5000,-100.0000,-0.0500,-0.5000,-100.0000,-0.0500,15.5201,56.4451,-0.0300,0.2700,0.0000,0.0000,0.0000,0.0000,0.0000,0.0000
-36.5895,45.3943,-16.1240,0.0829,-0.0000,-0.1800,1.6200,0.6400,0.0000,0.7548,-0.8054,0.0020,996,1497,1527,1502,2008,1000,1505,1000,1505,1010,1746,1000,1991,0.1306,0.1141,-0.1081,-0.0445,-0.0269,0.9884,1.5622,0.0487,-1.5582,-0.0526,1.8393,0.3418,0.2698,1.8393,0.3418,0.2698,0.3000,0.0600,0.0002,0,-0.5000,-100.0000,-0.0500,-0.5000,-100.0000,-0.0500,15.5510,56.4765,-0.0300,0.2700,0.0000,0.0000,0.0000,0.0000,0.0000,0.0000
-36.5541,45.3714,-16.1008,-0.0000,-0.0000,-0.1800,1.6200,0.6400,0.0000,0.7540,-0.8048,0.0019,996,1497,1527,1502,2008,1000,1505,1000,1505,1010,1746,1000,1991,0.1680,0.0275,-0.0800,-0.0457,-0.0247,0.9889,1.5607,0.0488,-1.5569,-0.0527,1.8393,0.3418,0.2698,1.8393,0.3418,0.2698,0.3000,0.0600,0.0002,0,-0.5000,-100.0000,-0.0500,-0.5000,-100.0000,-0.0500,15.5820,56.5080,-0.0300,0.2700,0.0000,0.0000,0.0000,0.0000,0.0000,0.0000
-36.5181,45.3481,-16.0769,0.0829,-0.0000,-0.1800,1.6200,0.6400,0.0000,0.7532,-0.8043,0.0020,996,1497,1527,1502,2008,1000,1505,1000,1505,1010,1746,1000,1991,0.2072,0.0243,-0.1069,-0.0436,-0.0243,0.9884,1.5595,0.0491,-1.5556,-0.0531,1.8393,0.3418,0.2698,1.8393,0.3418,0.2698,0.3000,0.0600,0.0002,0,-0.5000,-100.0000,-0.0500,-0.5000,-100.0000,-0.0500,15.6130,56.5394,-0.0300,0.2700,0.0000,0.0000,0.0000,0.0000,0.0000,0.0000
-36.4828,45.3248,-16.0534,0.0829,-0.0000,-0.1800,1.6200,0.6400,0.0000,0.7527,-0.8039,0.0020,996,1497,1527,1502,2008,1000,1505,1000,1505,1010,1746,1000,1991,0.1551,0.0092,-0.1035,-0.0426,-0.0252,0.9861,1.5586,0.0491,-1.5546,-0.0532,1.8393,0.3418,0.2698,1.8393,0.3418,0.2698,0.3000,0.0600,0.0002,0,-0.5000,-100.0000,-0.0500,-0.5000,-100.0000,-0.0500,15.6440,56.5709,-0.0300,0.2700,0.0000,0.0000,0.0000,0.0000,0.0000,0.0000
-36.4475,45.3014,-16.0296,0.0829,-0.0000,-0.1200,1.6200,0.9600,0.0000,0.7532,-0.8035,0.0018,996,1497,1527,1502,2008,1000,1505,1000,1505,1010,1746,1000,1991,0.1568,0.0285,-0.0257,-0.0392,-0.0225,0.9929,1.5585,0.0485,-1.5549,-0.0521,1.8393,0.3418,0.2698,1.8393,0.3418,0.2698,0.3000,0.0600,0.0002,0,-0.5000,-100.0000,-0.0500,-0.5000,-100.0000,-0.0500,15.6749,56.6023,-0.0200,0.2700,0.0000,0.0000,0.0000,0.0000,0.0000,0.0000
-36.4121,45.2780,-16.0064,0.0829,0.0821,-0.1800,1.6200,0.6400,0.0000,0.7513,-0.8031,0.0020,996,1497,1527,1502,2008,1000,1505,1000,1505,1010,1746,1000,1990,0.1899,0.0305,-0.1056,-0.0410,-0.0271,0.9917,1.5564,0.0497,-1.5524,-0.0538,1.8393,0.3418,0.2698,1.8393,0.3418,0.2698,0.3000,0.0600,0.0002,0,-0.5000,-100.0000,-0.0500,-0.5000,-100.0000,-0.0500,15.7059,56.6338,-0.0300,0.2700,0.0000,0.0000,0.0000,0.0000,0.0000,0.0000
-36.3770,45.2549,-15.9836,0.0829,-0.0000,-0.1800,1.6200,0.6400,0.0000,0.7507,-0.8027,0.0017,996,1497,1527,1502,2008,1000,1505,1000,1505,1010,1746,1000,1990,0.1684,0.0521,-0.0261,-0.0430,-0.0260,0.9827,1.5552,0.0502,-1.5517,-0.0537,1.8393,0.3418,0.2698,1.8393,0.3418,0.2698,0.3000,0.0600,0.0002,0,-0.5000,-100.0000,-0.0500,-0.5000,-100.0000,-0.0500,15.7368,56.6652,-0.0300,0.2700,0.0000,0.0000,0.0000,0.0000,0.0000,0.0000
-36.3415,45.2327,-15.9602,0.0829,-0.0000,-0.1800,1.6200,0.6400,0.0000,0.7500,-0.8023,0.0016,996,1497,1527,1502,2008,1000,1505,1000,1505,1010,1745,1000,1991,0.1526,0.0377,0.0287,-0.0438,-0.0260,0.9832,1.5539,0.0506,-1.5507,-0.0538,1.8393,0.3414,0.2698,1.8393,0.3414,0.2698,0.3000,0.0600,0.0002,0,-0.5000,-100.0000,-0.0500,-0.5000,-100.0000,-0.0500,15.7677,56.6966,-0.0300,0.2700,0.0000,0.0000,0.0000,0.0000,0.0000,0.0000
-36.3050,45.2093,-15.9355,0.0829,-0.0821,-0.1800,1.6200,0.6400,0.0000,0.7492,-0.8017,0.0018,996,1497,1527,1502,2008,1000,1505,1000,1505,1010,1745,1000,1991,0.2174,-0.0170,-0.0312,-0.0448,-0.0233,0.9826,1.5526,0.0507,-1.5491,-0.0543,1.8393,0.3414,0.2698,1.8393,0.3414,0.2698,0.3000,0.0600,0.0002,0,-0.5000,-100.0000,-0.0500,-0.5000,-100.0000,-0.0500,15.7986,56.7281,-0.0300,0.2700,0.0000,0.0000,0.0000,0.0000,0.0000,0.0000
-36.2696,45.1852,-15.9124,0.1657,-0.0000,-0.1800,1.6200,0.6400,0.0000,0.7488,-0.8011,0.0021,996,1497,1527,1502,2008,1000,1505,1000,1505,1010,1746,1000,1990,0.1635,-0.0576,-0.1263,-0.0451,-0.0227,0.9837,1.5520,0.0503,-1.5479,-0.0544,1.8393,0.3418,0.2698,1.8393,0.3418,0.2698,0.3000,0.0600,0.0002,0,-0.5000,-100.0000,-0.0500,-0.5000,-100.0000,-0.0500,15.8296,56.7595,-0.0300,0.2700,0.0000,0.0000,0.0000,0.0000,0.0000,0.0000
-36.2333,45.1614,-15.8882,-0.0000,-0.0000,-0.1200,1.6200,0.9600,0.0000,0.7489,-0.8008,0.0016,996,1497,1527,1502,2008,1000,1505,1000,1505,1010,1745,1000,1990,0.2608,0.0027,0.0187,-0.0455,-0.0258,0.9866,1.5513,0.0504,-1.5481,-0.0536,1.8393,0.3414,0.2698,1.8393,0.3414,0.2698,0.3000,0.0600,0.0002,0,-0.5000,-100.0000,-0.0500,-0.5000,-100.0000,-0.0500,15.8605,56.7909,-0.0200,0.2700,0.0000,0.0000,0.0000,0.0000,0.0000,0.0000
-36.1966,45.1375,-15.8636,-0.0000,-0.0821,-0.1800,1.6200,0.6400,0.0000,0.7471,-0.8002,0.0017,996,1497,1527,1502,2008,1000,1505,1000,1505,1010,1745,1000,1990,0.2428,-0.0785,0.0001,-0.0402,-0.0243,0.9915,1.5490,0.0513,-1.5456,-0.0548,1.8393,0.3414,0.2698,1.8393,0.3414,0.2698,0.3000,0.0600,0.0002,0,-0.5000,-100.0000,-0.0500,-0.5000,-100.0000,-0.0500,15.8913,56.8223,-0.0300,0.2700,0.0000,0.0000,0.0000,0.0000,0.0000,0.0000
-36.1605,45.1137,-15.8396,0.1657,-0.0000,-0.1800,1.6200,0.6400,0.0000,0.7465,-0.8000,0.0015,996,1497,1527,1502,2008,1000,1505,1000,1505,1010,1746,1000,1991,0.2732,0.0053,0.0540,-0.0371,-0.0274,0.9864,1.5480,0.0520,-1.5450,-0.0550,1.8393,0.3418,0.2698,1.8393,0.3418,0.2698,0.3000,0.0600,0.0002,0,-0.5000,-100.0000,-0.0500,-0.5000,-100.0000,-0.0500,15.9222,56.8538,-0.0300,0.2700,0.0000,0.0000,0.0000,0.0000,0.0000,0.0000
-36.1250,45.0899,-15.8163,0.1657,-0.0000,-0.1800,1.6200,0.6400,0.0000,0.7462,-0.7996,0.0020,996,1497,1527,1502,2008,1000,1505,1000,1505,1010,1746,1000,1991,0.1499,0.0327,-0.0880,-0.0438,-0.0264,0.9897,1.5477,0.0515,-1.5438,-0.0554,1.8393,0.3418,0.2698,1.8393,0.3418,0.2698,0.3000,0.0600,0.0002,0,-0.5000,-100.0000,-0.0500,-0.5000,-100.0000,-0.0500,15.9530,56.8852,-0.0300,0.2700,0.0000,0.0000,0.0000,0.0000,0.0000,0.0000
-36.0908,45.0666,-15.7942,-0.0000,0.0821,-0.1800,1.6200,0.6400,0.0000,0.7455,-0.7994,0.0022,996,1497,1527,1502,2008,1000,1505,1000,1505,1010,1746,1000,1991,0.1777,0.1219,-0.1673,-0.0427,-0.0252,0.9919,1.5471,0.0517,-1.5426,-0.0562,1.8393,0.3418,0.2698,1.8393,0.3418,0.2698,0.3000,0.0600,0.0002,0,-0.5000,-100.0000,-0.0500,-0.5000,-100.0000,-0.0500,15.9839,56.9166,-0.0300,0.2700,0.0000,0.0000,0.0000,0.0000,0.0000,0.0000
-36.0569,45.0435,-15.7729,0.0829,0.0821,-0.1800,1.6200,0.6400,0.0000,0.7449,-0.7989,0.0021,996,1497,1527,1502,2008,1000,1505,1000,1505,1010,1746,1000,1991,0.1461,0.0923,-0.1298,-0.0415,-0.0270,0.9892,1.5460,0.0519,-1.5417,-0.0561,1.8393,0.3418,0.2698,1.8393,0.3418,0.2698,0.3000,0.0600,0.0002,0,-0.5000,-100.0000,-0.0500,-0.5000,-100.0000,-0.0500,16.0147,56.9480,-0.0300,0.2700,0.0000,0.0000,0.0000,0.0000,0.0000,0.0000
-36.0226,45.0205,-15.7511,-0.0000,-0.0000,-0.1200,1.6200,0.9600,0.0000,0.7453,-0.7985,0.0021,996,1497,1527,1502,2008,1000,1505,1000,1505,1010,1746,1000,1990,0.1966,0.1090,-0.1365,-0.0428,-0.0247,0.9869,1.5459,0.0511,-1.5417,-0.0554,1.8393,0.3418,0.2698,1.8393,0.3418,0.2698,0.3000,0.0600,0.0002,0,-0.5000,-100.0000,-0.0500,-0.5000,-100.0000,-0.0500,16.0455,56.9793,-0.0200,0.2700,0.0000,0.0000,0.0000,0.0000,0.0000,0.0000
-35.9879,44.9969,-15.7285,0.0829,0.0821,-0.1800,1.6200,0.6400,0.0000,0.7434,-0.7978,0.0019,996,1497,1527,1502,2008,1000,1505,1000,1505,1010,1745,1000,1991,0.1945,-0.0138,-0.0574,-0.0399,-0.0261,0.9876,1.5431,0.0525,-1.5393,-0.0562,1.8393,0.3414,0.2698,1.8393,0.3414,0.2698,0.3000,0.0600,0.0002,0,-0.5000,-100.0000,-0.0500,-0.5000,-100.0000,-0.0500,16.0763,57.0107,-0.0300,0.2700,0.0000,0.0000,0.0000,0.0000,0.0000,0.0000
-35.9522,44.9731,-15.7049,-0.0000,0.0821,-0.1800,1.6200,0.6400,0.0000,0.7429,-0.7974,0.0019,996,1497,1527,1502,2008,1000,1505,1000,1505,1010,1745,1000,1991,0.1535,0.0103,-0.0556,-0.0445,-0.0262,0.9877,1.5422,0.0526,-1.5384,-0.0564,1.8393,0.3414,0.2698,1.8393,0.3414,0.2698,0.3000,0.0600,0.0002,0,-0.5000,-100.0000,-0.0500,-0.5000,-100.0000,-0.0500,16.1071,57.0421,-0.0300,0.2700,0.0000,0.0000,0.0000,0.0000,0.0000,0.0000
-35.9169,44.9492,-15.6812,0.1657,-0.0000,-0.1800,1.6200,0.6400,0.0000,0.7422,-0.7969,0.0020,996,1497,1527,1502,2008,1000,1505,1000,1505,1010,1746,1000,1990,0.1875,0.0045,-0.0879,-0.0435,-0.0285,0.9892,1.5412,0.0527,-1.5372,-0.0567,1.8393,0.3418,0.2698,1.8393,0.3418,0.2698,0.3000,0.0600,0.0002,0,-0.5000,-100.0000,-0.0500,-0.5000,-100.0000,-0.0500,16.1379,57.0735,-0.0300,0.2700,0.0000,0.0000,0.0000,0.0000,0.0000,0.0000
-35.8814,44.9256,-15.6583,-0.0000,0.0821,-0.1800,1.6200,0.6400,0.0000,0.7415,-0.7967,0.0018,996,1497,1527,1502,2008,1000,1505,1000,1505,1010,1746,1000,1990,0.2353,0.0631,-0.0459,-0.0438,-0.0246,0.9898,1.5400,0.0534,-1.5363,-0.0571,1.8393,0.3418,0.2698,1.8393,0.3418,0.2698,0.3000,0.0600,0.0002,0,-0.5000,-100.0000,-0.0500,-0.5000,-100.0000,-0.0500,16.1686,57.1048,-0.0300,0.2700,0.0000,0.0000,0.0000,0.0000,0.0000,0.0000
-35.8465,44.9027,-15.6353,0.1657,-0.0000,-0.1800,1.6200,0.6400,0.0000,0.7410,-0.7964,0.0020,996,1497,1527,1502,2008,1000,1505,1000,1505,1010,1745,1000,1991,0.1348,0.1319,-0.0573,-0.0417,-0.0247,0.9886,1.5394,0.0535,-1.5355,-0.0574,1.8393,0.3414,0.2698,1.8393,0.3414,0.2698,0.3000,0.0600,0.0002,0,-0.5000,-100.0000,-0.0500,-0.5000,-100.0000,-0.0500,16.1994,57.1361,-0.0300,0.2700,0.0000,0.0000,0.0000,0.0000,0.0000,0.0000
-35.8115,44.8793,-15.6124,0.1657,0.0821,-0.1200,1.6200,0.9600,0.0000,0.7415,-0.7956,0.0020,996,1497,1527,1502,2008,1000,1505,1000,1505,1010,1746,1000,1991,0.1427,-0.0130,-0.0869,-0.0440,-0.0268,0.9887,1.5392,0.0521,-1.5351,-0.0561,1.8393,0.3418,0.2698,1.8393,0.3418,0.2698,0.3000,0.0600,0.0002,0,-0.5000,-100.0000,-0.0500,-0.5000,-100.0000,-0.0500,16.2301,57.1675,-0.0200,0.2700,0.0000,0.0000,0.0000,0.0000,0.0000,0.0000
-35.7772,44.8552,-15.5896,-0.0000,-0.0000,-0.1800,1.6200,0.6400,0.0000,0.7400,-0.7952,0.0023,996,1497,1527,1502,2008,1000,1505,1000,1505,1010,1746,1000,1991,0.0548,-0.0032,-0.1499,-0.0455,-0.0264,0.9867,1.5375,0.0529,-1.5330,-0.0574,1.8393,0.3418,0.2698,1.8393,0.3418,0.2698,0.3000,0.0600,0.0002,0,-0.5000,-100.0000,-0.0500,-0.5000,-100.0000,-0.0500,16.2608,57.1988,-0.0300,0.2700,0.0000,0.0000,0.0000,0.0000,0.0000,0.0000
-35.7431,44.8309,-15.5668,-0.0000,-0.0000,-0.1800,1.6200,0.6400,0.0000,0.7392,-0.7947,0.0021,996,1497,1527,1502,2008,1000,1505,1000,1505,1010,1746,1000,1990,0.1416,-0.0225,-0.1286,-0.0457,-0.0263,0.9898,1.5360,0.0534,-1.5318,-0.0576,1.8393,0.3418,0.2698,1.8393,0.3418,0.2698,0.3000,0.0600,0.0002,0,-0.5000,-100.0000,-0.0500,-0.5000,-100.0000,-0.0500,16.2915,57.2301,-0.0300,0.2700,0.0000,0.0000,0.0000,0.0000,0.0000,0.0000
-35.7079,44.8068,-15.5439,0.0829,-0.0000,-0.1800,1.6200,0.6400,0.0000,0.7385,-0.7943,0.0021,996,1497,1527,1502,2008,1000,1505,1000,1505,1010,1746,1000,1990,0.1602,-0.0201,-0.0883,-0.0422,-0.0269,0.9908,1.5348,0.0537,-1.5307,-0.0579,1.8393,0.3418,0.2698,1.8393,0.3418,0.2698,0.3000,0.0600,0.0002,0,-0.5000,-100.0000,-0.0500,-0.5000,-100.0000,-0.0500,16.3222,57.2614,-0.0300,0.2700,0.0000,0.0000,0.0000,0.0000,0.0000,0.0000
-35.6733,44.7827,-15.5208,-0.0000,-0.0000,-0.1800,1.6200,0.6400,0.0000,0.7378,-0.7937,0.0018,996,1497,1527,1502,2008,1000,1505,1000,1505,1010,1746,1000,1990,0.1536,-0.0506,-0.0168,-0.0451,-0.0258,0.9834,1.5334,0.0541,-1.5298,-0.0577,1.8393,0.3418,0.2698,1.8393,0.3418,0.2698,0.3000,0.0600,0.0002,0,-0.5000,-100.0000,-0.0500,-0.5000,-100.0000,-0.0500,16.3529,57.2928,-0.0300,0.2700,0.0000,0.0000,0.0000,0.0000,0.0000,0.0000
-35.6386,44.7589,-15.4984,-0.0000,-0.0000,-0.1800,1.6200,0.6400,0.0000,0.7372,-0.7935,0.0020,996,1497,1527,1502,2008,1000,1505,1000,1505,1010,1746,1000,1990,0.1539,0.0370,-0.0590,-0.0441,-0.0237,0.9854,1.5327,0.0544,-1.5288,-0.0583,1.8393,0.3418,0.2698,1.8393,0.3418,0.2698,0.3000,0.0600,0.0002,0,-0.5000,-100.0000,-0.0500,-0.5000,-100.0000,-0.0500,16.3836,57.3241,-0.0300,0.2700,0.0000,0.0000,0.0000,0.0000,0.0000,0.0000
-35.6033,44.7355,-15.4752,0.1657,-0.0000,-0.1200,1.6200,0.9600,0.0000,0.7374,-0.7932,0.0018,996,1497,1527,1502,2008,1000,1505,1000,1505,1010,1745,1000,1990,0.1962,0.0809,-0.0040,-0.0419,-0.0244,0.9926,1.5324,0.0540,-1.5289,-0.0575,1.8393,0.3414,0.2698,1.8393,0.3414,0.2698,0.3000,0.0600,0.0002,0,-0.5000,-100.0000,-0.0500,-0.5000,-100.0000,-0.0500,16.4144,57.3555,-0.0200,0.2700,0.0000,0.0000,0.0000,0.0000,0.0000,0.0000
-35.5682,44.7127,-15.4520,0.0829,-0.0000,-0.1800,1.6200,0.6400,0.0000,0.7359,-0.7928,0.0018,996,1497,1527,1502,2008,1000,1505,1000,1505,1010,1746,1000,1990,0.1692,0.0633,0.0075,-0.0412,-0.0280,0.9889,1.5304,0.0551,-1.5269,-0.0586,1.8393,0.3418,0.2698,1.8393,0.3418,0.2698,0.3000,0.0600,0.0002,0,-0.5000,-100.0000,-0.0500,-0.5000,-100.0000,-0.0500,16.4450,57.3868,-0.0300,0.2700,0.0000,0.0000,0.0000,0.0000,0.0000,0.0000
-35.5326,44.6889,-15.4287,0.0829,-0.0821,-0.1800,1.6200,0.6400,0.0000,0.7352,-0.7920,0.0019,996,1497,1527,1502,2008,1000,1505,1000,1505,1010,1746,1000,1990,0.1785,-0.0544,-0.0465,-0.0415,-0.0263,0.9868,1.5291,0.0549,-1.5253,-0.0587,1.8393,0.3418,0.2698,1.8393,0.3418,0.2698,0.3000,0.0600,0.0002,0,-0.5000,-100.0000,-0.0500,-0.5000,-100.0000,-0.0500,16.4757,57.4182,-0.0300,0.2700,0.0000,0.0000,0.0000,0.0000,0.0000,0.0000
-35.4971,44.6651,-15.4056,0.1657,-0.0000,-0.1800,1.6200,0.6400,0.0000,0.7345,-0.7918,0.0019,996,1497,1527,1502,2008,1000,1505,1000,1505,1010,1746,1000,1990,0.2060,0.0348,-0.0457,-0.0448,-0.0263,0.9932,1.5282,0.0554,-1.5244,-0.0592,1.8393,0.3418,0.2698,1.8393,0.3418,0.2698,0.3000,0.0600,0.0002,0,-0.5000,-100.0000,-0.0500,-0.5000,-100.0000,-0.0500,16.5064,57.4495,-0.0300,0.2700,0.0000,0.0000,0.0000,0.0000,0.0000,0.0000
-35.4624,44.6408,-15.3828,-0.0000,0.0821,-0.1800,1.6200,0.6400,0.0000,0.7339,-0.7911,0.0020,996,1497,1527,1502,2008,1000,1505,1000,1505,1010,1746,1000,1990,0.1664,-0.0549,-0.0815,-0.0436,-0.0252,0.9899,1.5271,0.0552,-1.5230,-0.0592,1.8393,0.3418,0.2698,1.8393,0.3418,0.2698,0.3000,0.0600,0.0002,0,-0.5000,-100.0000,-0.0500,-0.5000,-100.0000,-0.0500,16.5370,57.4809,-0.0300,0.2700,0.0000,0.0000,0.0000,0.0000,0.0000,0.0000
-35.4275,44.6160,-15.3602,-0.0000,-0.0000,-0.1800,1.6200,0.6400,0.0000,0.7332,-0.7909,0.0022,996,1497,1527,1502,2008,1000,1505,1000,1505,1010,1746,1000,1991,0.2137,0.0315,-0.1310,-0.0435,-0.0280,0.9916,1.5263,0.0555,-1.5219,-0.0599,1.8393,0.3418,0.2698,1.8393,0.3418,0.2698,0.3000,0.0600,0.0002,0,-0.5000,-100.0000,-0.0500,-0.5000,-100.0000,-0.0500,16.5677,57.5123,-0.0300,0.2700,0.0000,0.0000,0.0000,0.0000,0.0000,0.0000
-35.3930,44.5920,-15.3380,-0.0000,0.0821,-0.1200,1.6200,0.9600,0.0000,0.7339,-0.7904,0.0021,996,1497,1527,1502,2008,1000,1505,1000,1505,1010,1746,1000,1990,0.1153,-0.0025,-0.1060,-0.0408,-0.0246,0.9914,1.5264,0.0543,-1.5221,-0.0586,1.8393,0.3418,0.2698,1.8393,0.3418,0.2698,0.3000,0.0600,0.0002,0,-0.5000,-100.0000,-0.0500,-0.5000,-100.0000,-0.0500,16.5983,57.5436,-0.0200,0.2700,0.0000,0.0000,0.0000,0.0000,0.0000,0.0000
-35.3586,44.5685,-15.3160,0.1657,0.0821,-0.1800,1.6200,0.6400,0.0000,0.7322,-0.7902,0.0018,996,1497,1527,1502,2008,1000,1505,1000,1505,1010,1746,1000,1990,0.1179,0.0820,-0.0090,-0.0438,-0.0253,0.9882,1.5241,0.0562,-1.5205,-0.0598,1.8393,0.3418,0.2698,1.8393,0.3418,0.2698,0.3000,0.0600,0.0002,0,-0.5000,-100.0000,-0.0500,-0.5000,-100.0000,-0.0500,16.6289,57.5749,-0.0300,0.2700,0.0000,0.0000,0.0000,0.0000,0.0000,0.0000
-35.3237,44.5450,-15.2933,0.0829,-0.0000,-0.1800,1.6200,0.6400,0.0000,0.7313,-0.7897,0.0018,996,1497,1527,1502,2008,1000,1505,1000,1505,1010,1746,1000,1991,0.2144,0.0730,0.0048,-0.0429,-0.0225,0.9882,1.5228,0.0566,-1.5191,-0.0603,1.8393,0.3418,0.2698,1.8393,0.3418,0.2698,0.3000,0.0600,0.0002,0,-0.5000,-100.0000,-0.0500,-0.5000,-100.0000,-0.0500,16.6594,57.6061,-0.0300,0.2700,0.0000,0.0000,0.0000,0.0000,0.0000,0.0000
-35.2885,44.5216,-15.2707,0.0829,-0.0000,-0.1800,1.6200,0.6400,0.0000,0.7307,-0.7891,0.0019,996,1497,1527,1502,2008,1000,1505,1000,1505,1010,1746,1000,1991,0.1895,0.0252,-0.0391,-0.0444,-0.0245,0.9881,1.5218,0.0565,-1.5179,-0.0604,1.8393,0.3418,0.2698,1.8393,0.3418,0.2698,0.3000,0.0600,0.0002,0,-0.5000,-100.0000,-0.0500,-0.5000,-100.0000,-0.0500,16.6899,57.6374,-0.0300,0.2700,0.0000,0.0000,0.0000,0.0000,0.0000,0.0000
-35.2538,44.4976,-15.2482,0.0829,-0.0821,-0.1800,1.6200,0.6400,0.0000,0.7302,-0.7887,0.0021,996,1497,1527,1502,2008,1000,1505,1000,1505,1010,1746,1000,1991,0.1394,0.0357,-0.0876,-0.0422,-0.0270,0.9933,1.5210,0.0565,-1.5168,-0.0606,1.8393,0.3418,0.2698,1.8393,0.3418,0.2698,0.3000,0.0600,0.0002,0,-0.5000,-100.0000,-0.0500,-0.5000,-100.0000,-0.0500,16.7205,57.6687,-0.0300,0.2700,0.0000,0.0000,0.0000,0.0000,0.0000,0.0000
-35.2183,44.4732,-15.2248,0.0829,-0.0000,-0.1800,1.6200,0.6400,0.0000,0.7294,-0.7880,0.0019,996,1497,1527,1502,2008,1000,1505,1000,1505,1010,1746,1000,1991,0.1801,-0.0734,-0.0192,-0.0432,-0.0242,0.9882,1.5193,0.0567,-1.5155,-0.0605,1.8393,0.3418,0.2698,1.8393,0.3418,0.2698,0.3000,0.0600,0.0002,0,-0.5000,-100.0000,-0.0500,-0.5000,-100.0000,-0.0500,16.7510,57.6999,-0.0300,0.2700,0.0000,0.0000,0.0000,0.0000,0.0000,0.0000
-35.1826,44.4494,-15.2016,-0.0000,-0.0000,-0.1200,1.6200,0.9600,0.0000,0.7296,-0.7880,0.0018,996,1497,1527,1502,2008,1000,1505,1000,1505,1010,1745,1000,1991,0.2468,0.1089,-0.0094,-0.0415,-0.0257,0.9886,1.5195,0.0566,-1.5158,-0.0603,1.8393,0.3414,0.2698,1.8393,0.3414,0.2698,0.3000,0.0600,0.0002,0,-0.5000,-100.0000,-0.0500,-0.5000,-100.0000,-0.0500,16.7815,57.7312,-0.0200,0.2700,0.0000,0.0000,0.0000,0.0000,0.0000,0.0000
-35.1474,44.4262,-15.1790,0.0829,0.1642,-0.1800,1.6200,0.6400,0.0000,0.7282,-0.7874,0.0019,996,1497,1527,1502,2008,1000,1505,1000,1505,1010,1746,1000,1991,0.1337,0.0457,-0.0079,-0.0431,-0.0250,0.9872,1.5175,0.0573,-1.5138,-0.0611,1.8393,0.3418,0.2698,1.8393,0.3418,0.2698,0.3000,0.0600,0.0002,0,-0.5000,-100.0000,-0.0500,-0.5000,-100.0000,-0.0500,16.8120,57.7625,-0.0300,0.2700,0.0000,0.0000,0.0000,0.0000,0.0000,0.0000
-35.1124,44.4026,-15.1558,0.0829,-0.0000,-0.1800,1.6200,0.6400,0.0000,0.7276,-0.7869,0.0018,996,1497,1527,1502,2008,1000,1505,1000,1505,1010,1746,1000,1991,0.1443,0.0211,0.0028,-0.0450,-0.0232,0.9929,1.5163,0.0576,-1.5127,-0.0612,1.8393,0.3418,0.2698,1.8393,0.3418,0.2698,0.3000,0.0600,0.0002,0,-0.5000,-100.0000,-0.0500,-0.5000,-100.0000,-0.0500,16.8425,57.7938,-0.0300,0.2700,0.0000,0.0000,0.0000,0.0000,0.0000,0.0000
-35.0779,44.3793,-15.1332,-0.0000,-0.0000,-0.1800,1.6200,0.6400,0.0000,0.7270,-0.7866,0.0020,996,1497,1527,1502,2008,1000,1505,1000,1505,1010,1746,1000,1990,0.1248,0.0587,-0.0456,-0.0439,-0.0276,0.9889,1.5156,0.0576,-1.5116,-0.0617,1.8393,0.3418,0.2698,1.8393,0.3418,0.2698,0.3000,0.0600,0.0002,0,-0.5000,-100.0000,-0.0500,-0.5000,-100.0000,-0.0500,16.8730,57.8251,-0.0300,0.2700,0.0000,0.0000,0.0000,0.0000,0.0000,0.0000
-35.0433,44.3558,-15.1102,0.1657,-0.0000,-0.1800,1.6200,0.6400,0.0000,0.7264,-0.7861,0.0019,996,1497,1527,1502,2008,1000,1505,1000,1505,1010,1746,1000,1990,0.1142,0.0108,-0.0042,-0.0453,-0.0249,0.9868,1.5143,0.0578,-1.5105,-0.0616,1.8393,0.3418,0.2698,1.8393,0.3418,0.2698,0.3000,0.0600,0.0002,0,-0.5000,-100.0000,-0.0500,-0.5000,-100.0000,-0.0500,16.9035,57.8564,-0.0300,0.2700,0.0000,0.0000,0.0000,0.0000,0.0000,0.0000
-35.0088,44.3318,-15.0875,0.0829,-0.0000,-0.1800,1.6200,0.6400,0.0000,0.7255,-0.7858,0.0019,996,1497,1527,1502,2008,1000,1505,1000,1505,1010,1745,1000,1990,0.1553,0.0662,-0.0312,-0.0446,-0.0247,0.9921,1.5132,0.0583,-1.5093,-0.0622,1.8393,0.3414,0.2698,1.8393,0.3414,0.2698,0.3000,0.0600,0.0002,0,-0.5000,-100.0000,-0.0500,-0.5000,-100.0000,-0.0500,16.9339,57.8876,-0.0300,0.2700,0.0000,0.0000,0.0000,0.0000,0.0000,0.0000
-34.9735,44.3081,-15.0648,0.0829,-0.0000,-0.1200,1.6200,0.9600,0.0000,0.7259,-0.7852,0.0020,996,1497,1527,1502,2008,1000,1505,1000,1505,1010,1745,1000,1991,0.1975,0.0294,-0.0343,-0.0402,-0.0265,0.9893,1.5131,0.0574,-1.5091,-0.0614,1.8393,0.3414,0.2698,1.8393,0.3414,0.2698,0.3000,0.0600,0.0002,0,-0.5000,-100.0000,-0.0500,-0.5000,-100.0000,-0.0500,16.9643,57.9188,-0.0200,0.2700,0.0000,0.0000,0.0000,0.0000,0.0000,0.0000
-34.9381,44.2841,-15.0418,0.0829,0.0821,-0.1800,1.6200,0.6400,0.0000,0.7239,-0.7848,0.0019,996,1497,1527,1502,2008,1000,1505,1000,1505,1010,1745,1000,1991,0.2554,0.0294,-0.0259,-0.0437,-0.0250,0.9874,1.5107,0.0589,-1.5068,-0.0628,1.8393,0.3414,0.2698,1.8393,0.3414,0.2698,0.3000,0.0600,0.0002,0,-0.5000,-100.0000,-0.0500,-0.5000,-100.0000,-0.0500,16.9948,57.9501,-0.0300,0.2700,0.0000,0.0000,0.0000,0.0000,0.0000,0.0000
-34.9030,44.2600,-15.0197,0.0829,-0.0000,-0.1800,1.6200,0.6400,0.0000,0.7235,-0.7842,0.0019,996,1497,1527,1502,2008,1000,1505,1000,1505,1010,1745,1000,1991,0.1702,-0.0215,-0.0185,-0.0437,-0.0256,0.9903,1.5097,0.0587,-1.5058,-0.0626,1.8393,0.3414,0.2698,1.8393,0.3414,0.2698,0.3000,0.0600,0.0002,0,-0.5000,-100.0000,-0.0500,-0.5000,-100.0000,-0.0500,17.0252,57.9814,-0.0300,0.2700,0.0000,0.0000,0.0000,0.0000,0.0000,0.0000
-34.8682,44.2359,-14.9966,-0.0000,-0.0000,-0.1800,1.6200,0.6400,0.0000,0.7230,-0.7839,0.0019,996,1497,1527,1502,2008,1000,1505,1000,1505,1010,1745,1000,1991,0.1322,0.0207,-0.0147,-0.0442,-0.0261,0.9923,1.5088,0.0590,-1.5049,-0.0628,1.8393,0.3414,0.2698,1.8393,0.3414,0.2698,0.3000,0.0600,0.0002,0,-0.5000,-100.0000,-0.0500,-0.5000,-100.0000,-0.0500,17.0557,58.0127,-0.0300,0.2700,0.0000,0.0000,0.0000,0.0000,0.0000,0.0000
-34.8339,44.2119,-14.9744,0.0829,0.0821,-0.1800,1.6200,0.6400,0.0000,0.7224,-0.7835,0.0021,996,1497,1527,1502,2008,1000,1505,1000,1505,1010,1746,1000,1991,0.1653,0.0480,-0.0741,-0.0442,-0.0278,0.9887,1.5080,0.0590,-1.5038,-0.0632,1.8393,0.3418,0.2698,1.8393,0.3418,0.2698,0.3000,0.0600,0.0002,0,-0.5000,-100.0000,-0.0500,-0.5000,-100.0000,-0.0500,17.0861,58.0440,-0.0300,0.2700,0.0000,0.0000,0.0000,0.0000,0.0000,0.0000
-34.8003,44.1876,-14.9532,-0.0000,-0.0821,-0.1800,1.6200,0.6400,0.0000,0.7217,-0.7830,0.0022,996,1497,1527,1502,2008,1000,1505,1000,1505,1010,1746,1000,1991,0.1687,0.0104,-0.1101,-0.0450,-0.0267,0.9918,1.5069,0.0590,-1.5025,-0.0634,1.8393,0.3418,0.2698,1.8393,0.3418,0.2698,0.3000,0.0600,0.0002,0,-0.5000,-100.0000,-0.0500,-0.5000,-100.0000,-0.0500,17.1165,58.0754,-0.0300,0.2700,0.0000,0.0000,0.0000,0.0000,0.0000,0.0000
-34.7664,44.1631,-14.9311,-0.0000,-0.0000,-0.1200,1.6200,0.9600,0.0000,0.7224,-0.7825,0.0020,996,1497,1527,1502,2008,1000,1505,1000,1505,1010,1746,1000,1990,0.1066,0.0105,-0.0553,-0.0459,-0.0242,0.9888,1.5069,0.0581,-1.5029,-0.0622,1.8393,0.3418,0.2698,1.8393,0.3418,0.2698,0.3000,0.0600,0.0002,0,-0.5000,-100.0000,-0.0500,-0.5000,-100.0000,-0.0500,17.1469,58.1067,-0.0200,0.2700,0.0000,0.0000,0.0000,0.0000,0.0000,0.0000
-34.7321,44.1386,-14.9089,0.0829,-0.0000,-0.1800,1.6200,0.6400,0.0000,0.7204,-0.7820,0.0021,996,1497,1527,1502,2008,1000,1505,1000,1505,1010,1745,1000,1990,0.1509,-0.0114,-0.0647,-0.0466,-0.0239,0.9879,1.5045,0.0595,-1.5004,-0.0636,1.8393,0.3414,0.2698,1.8393,0.3414,0.2698,0.3000,0.0600,0.0002,0,-0.5000,-100.0000,-0.0500,-0.5000,-100.0000,-0.0500,17.1773,58.1380,-0.0300,0.2700,0.0000,0.0000,0.0000,0.0000,0.0000,0.0000
-34.6973,44.1142,-14.8861,-0.0000,0.0821,-0.1800,1.6200,0.6400,0.0000,0.7198,-0.7816,0.0019,996,1497,1527,1502,2008,1000,1505,1000,1505,1010,1745,1000,1990,0.1334,0.0087,0.0041,-0.0446,-0.0259,0.9877,1.5034,0.0598,-1.4995,-0.0637,1.8393,0.3414,0.2698,1.8393,0.3414,0.2698,0.3000,0.0600,0.0002,0,-0.5000,-100.0000,-0.0500,-0.5000,-100.0000,-0.0500,17.2077,58.1693,-0.0300,0.2700,0.0000,0.0000,0.0000,0.0000,0.0000,0.0000
-34.6620,44.0903,-14.8629,0.0829,-0.0000,-0.1800,1.6200,0.6400,0.0000,0.7190,-0.7811,0.0020,996,1497,1527,1502,2008,1000,1505,1000,1505,1010,1745,1000,1990,0.2047,-0.0254,-0.0134,-0.0456,-0.0240,0.9886,1.5021,0.0601,-1.4981,-0.0641,1.8393,0.3414,0.2698,1.8393,0.3414,0.2698,0.3000,0.0600,0.0002,0,-0.5000,-100.0000,-0.0500,-0.5000,-100.0000,-0.0500,17.2380,58.2006,-0.0300,0.2700,0.0000,0.0000,0.0000,0.0000,0.0000,0.0000
-34.6264,44.0662,-14.8401,-0.0000,-0.0000,-0.1800,1.6200,0.6400,0.0000,0.7184,-0.7808,0.0020,996,1497,1527,1502,2008,1000,1505,1000,1505,1010,1745,1000,1990,0.1960,0.0274,-0.0344,-0.0447,-0.0235,0.9891,1.5012,0.0604,-1.4971,-0.0644,1.8393,0.3414,0.2698,1.8393,0.3414,0.2698,0.3000,0.0600,0.0002,0,-0.5000,-100.0000,-0.0500,-0.5000,-100.0000,-0.0500,17.2684,58.2319,-0.0300,0.2700,0.0000,0.0000,0.0000,0.0000,0.0000,0.0000
-34.5909,44.0422,-14.8170,0.0829,-0.0000,-0.1800,1.6200,0.6400,0.0000,0.7177,-0.7803,0.0019,996,1497,1527,1502,2008,1000,1505,1000,1505,1010,1745,1000,1991,0.1979,0.0226,0.0075,-0.0414,-0.0268,0.9921,1.4999,0.0607,-1.4961,-0.0645,1.8393,0.3414,0.2698,1.8393,0.3414,0.2698,0.3000,0.0600,0.0002,0,-0.5000,-100.0000,-0.0500,-0.5000,-100.0000,-0.0500,17.2987,58.2632,-0.0300,0.2700,0.0000,0.0000,0.0000,0.0000,0.0000,0.0000
-34.5562,44.0178,-14.7948,0.0829,-0.0000,-0.1200,1.6200,0.9600,0.0000,0.7183,-0.7799,0.0022,996,1497,1527,1502,2008,1000,1505,1000,1505,1010,1746,1000,1991,0.1848,0.0429,-0.0790,-0.0428,-0.0258,0.9880,1.5005,0.0594,-1.4960,-0.0638,1.8393,0.3418,0.2698,1.8393,0.3418,0.2698,0.3000,0.0600,0.0002,0,-0.5000,-100.0000,-0.0500,-0.5000,-100.0000,-0.0500,17.3290,58.2944,-0.0200,0.2700,0.0000,0.0000,0.0000,0.0000,0.0000,0.0000
-34.5219,43.9936,-14.7731,0.0829,-0.0821,-0.1800,1.6200,0.6400,0.0000,0.7165,-0.7795,0.0024,996,1497,1527,1502,2008,1000,1505,1000,1505,1010,1746,1000,1991,0.2070,0.0656,-0.1306,-0.0421,-0.0260,0.9903,1.4984,0.0607,-1.4937,-0.0654,1.8393,0.3418,0.2698,1.8393,0.3418,0.2698,0.3000,0.0600,0.0002,0,-0.5000,-100.0000,-0.0500,-0.5000,-100.0000,-0.0500,17.3593,58.3257,-0.0300,0.2700,0.0000,0.0000,0.0000,0.0000,0.0000,0.0000
-34.4884,43.9690,-14.7519,0.0829,-0.0821,-0.1800,1.6200,0.6400,0.0000,0.7162,-0.7789,0.0022,996,1497,1527,1502,2008,1000,1505,1000,1505,1010,1746,1000,1991,0.1165,-0.0103,-0.0989,-0.0430,-0.0256,0.9867,1.4972,0.0605,-1.4928,-0.0649,1.8393,0.3418,0.2698,1.8393,0.3418,0.2698,0.3000,0.0600,0.0002,0,-0.5000,-100.0000,-0.0500,-0.5000,-100.0000,-0.0500,17.3895,58.3569,-0.0300,0.2700,0.0000,0.0000,0.0000,0.0000,0.0000,0.0000
-34.4545,43.9446,-14.7304,0.0829,-0.0000,-0.1800,1.6200,0.6400,0.0000,0.7154,-0.7786,0.0020,996,1497,1527,1502,2008,1000,1505,1000,1505,1010,1746,1000,1991,0.1790,0.0537,-0.0451,-0.0447,-0.0279,0.9884,1.4960,0.0612,-1.4919,-0.0653,1.8393,0.3418,0.2698,1.8393,0.3418,0.2698,0.3000,0.0600,0.0002,0,-0.5000,-100.0000,-0.0500,-0.5000,-100.0000,-0.0500,17.4198,58.3881,-0.0300,0.2700,0.0000,0.0000,0.0000,0.0000,0.0000,0.0000
-34.4200,43.9202,-14.7077,-0.0000,-0.0000,-0.1800,1.6200,0.6400,0.0000,0.7146,-0.7778,0.0020,996,1497,1527,1502,2008,1000,1505,1000,1505,1010,1745,1000,1990,0.1904,-0.0880,-0.0435,-0.0450,-0.0255,0.9903,1.4944,0.0612,-1.4903,-0.0652,1.8393,0.3414,0.2698,1.8393,0.3414,0.2698,0.3000,0.0600,0.0002,0,-0.5000,-100.0000,-0.0500,-0.5000,-100.0000,-0.0500,17.4500,58.4194,-0.0300,0.2700,0.0000,0.0000,0.0000,0.0000,0.0000,0.0000
-34.3846,43.8954,-14.6847,-0.0000,-0.0000,-0.1800,1.6200,0.6400,0.0000,0.7138,-0.7776,0.0020,996,1497,1527,1502,2008,1000,1505,1000,1505,1010,1745,1000,1990,0.2501,0.0154,-0.0077,-0.0429,-0.0255,0.9906,1.4934,0.0618,-1.4894,-0.0658,1.8393,0.3414,0.2698,1.8393,0.3414,0.2698,0.3000,0.0600,0.0002,0,-0.5000,-100.0000,-0.0500,-0.5000,-100.0000,-0.0500,17.4802,58.4506,-0.0300,0.2700,0.0000,0.0000,0.0000,0.0000,0.0000,0.0000
-34.3497,43.8716,-14.6628,0.0829,0.0821,-0.1200,1.6200,0.9600,0.0000,0.7145,-0.7773,0.0019,996,1497,1527,1502,2008,1000,1505,1000,1505,1010,1746,1000,1990,0.1976,0.0818,-0.0002,-0.0447,-0.0263,0.9871,1.4938,0.0609,-1.4899,-0.0648,1.8393,0.3418,0.2698,1.8393,0.3418,0.2698,0.3000,0.0600,0.0002,0,-0.5000,-100.0000,-0.0500,-0.5000,-100.0000,-0.0500,17.5104,58.4819,-0.0200,0.2700,0.0000,0.0000,0.0000,0.0000,0.0000,0.0000
-34.3144,43.8477,-14.6401,0.0829,-0.0000,-0.1800,1.6200,0.6400,0.0000,0.7127,-0.7768,0.0018,996,1497,1527,1502,2008,1000,1505,1000,1505,1010,1745,1000,1991,0.1809,0.0269,0.0506,-0.0444,-0.0273,0.9861,1.4912,0.0623,-1.4876,-0.0659,1.8393,0.3414,0.2698,1.8393,0.3414,0.2698,0.3000,0.0600,0.0002,0,-0.5000,-100.0000,-0.0500,-0.5000,-100.0000,-0.0500,17.5406,58.5131,-0.0300,0.2700,0.0000,0.0000,0.0000,0.0000,0.0000,0.0000
-34.2797,43.8242,-14.6176,0.0829,0.0821,-0.1800,1.6200,0.6400,0.0000,0.7120,-0.7766,0.0019,996,1497,1527,1502,2008,1000,1505,1000,1505,1010,1745,1000,1991,0.1990,0.1398,0.0022,-0.0445,-0.0265,0.9919,1.4906,0.0627,-1.4867,-0.0666,1.8393,0.3414,0.2698,1.8393,0.3414,0.2698,0.3000,0.0600,0.0002,0,-0.5000,-100.0000,-0.0500,-0.5000,-100.0000,-0.0500,17.5707,58.5442,-0.0300,0.2700,0.0000,0.0000,0.0000,0.0000,0.0000,0.0000
-34.2450,43.7999,-14.5956,-0.0000,0.0821,-0.1800,1.6200,0.6400,0.0000,0.7113,-0.7757,0.0024,996,1497,1527,1502,2008,1000,1505,1000,1505,1010,1746,1000,1990,0.2408,-0.0461,-0.1473,-0.0455,-0.0234,0.9900,1.4894,0.0619,-1.4846,-0.0667,1.8393,0.3418,0.2698,1.8393,0.3418,0.2698,0.3000,0.0600,0.0002,0,-0.5000,-100.0000,-0.0500,-0.5000,-100.0000,-0.0500,17.6009,58.5754,-0.0300,0.2700,0.0000,0.0000,0.0000,0.0000,0.0000,0.0000
-34.2104,43.7747,-14.5734,-0.0000,-0.0000,-0.1800,1.6200,0.6400,0.0000,0.7108,-0.7752,0.0022,996,1497,1527,1502,2008,1000,1505,1000,1505,1010,1746,1000,1990,0.1877,-0.0690,-0.0780,-0.0413,-0.0255,0.9911,1.4882,0.0621,-1.4838,-0.0665,1.8393,0.3418,0.2698,1.8393,0.3418,0.2698,0.3000,0.0600,0.0002,0,-0.5000,-100.0000,-0.0500,-0.5000,-100.0000,-0.0500,17.6310,58.6065,-0.0300,0.2700,0.0000,0.0000,0.0000,0.0000,0.0000,0.0000
-34.1761,43.7497,-14.5518,0.0829,-0.0000,-0.1800,1.6200,0.6400,0.0000,0.7102,-0.7751,0.0022,996,1497,1527,1502,2008,1000,1505,1000,1505,1010,1746,1000,1990,0.1810,0.0753,-0.1032,-0.0453,-0.0233,0.9878,1.4876,0.0626,-1.4831,-0.0671,1.8393,0.3418,0.2698,1.8393,0.3418,0.2698,0.3000,0.0600,0.0002,0,-0.5000,-100.0000,-0.0500,-0.5000,-100.0000,-0.0500,17.6611,58.6377,-0.0300,0.2700,0.0000,0.0000,0.0000,0.0000,0.0000,0.0000
-34.1416,43.7254,-14.5294,-0.0000,-0.0000,-0.1200,1.6200,0.9600,0.0000,0.7106,-0.7746,0.0021,996,1497,1527,1502,2008,1000,1505,1000,1505,1010,1746,1000,1991,0.2023,0.0467,-0.0250,-0.0465,-0.0257,0.9927,1.4873,0.0618,-1.4831,-0.0660,1.8393,0.3418,0.2698,1.8393,0.3418,0.2698,0.3000,0.0600,0.0002,0,-0.5000,-100.0000,-0.0500,-0.5000,-100.0000,-0.0500,17.6912,58.6689,-0.0200,0.2700,0.0000,0.0000,0.0000,0.0000,0.0000,0.0000
-34.1066,43.7004,-14.5076,0.1657,-0.0000,-0.1800,1.6200,0.6400,0.0000,0.7088,-0.7739,0.0023,996,1497,1527,1502,2008,1000,1505,1000,1505,1010,1746,1000,1991,0.2511,-0.0198,-0.1128,-0.0448,-0.0266,0.9919,1.4850,0.0628,-1.4804,-0.0674,1.8393,0.3418,0.2698,1.8393,0.3418,0.2698,0.3000,0.0600,0.0002,0,-0.5000,-100.0000,-0.0500,-0.5000,-100.0000,-0.0500,17.7214,58.7001,-0.0300,0.2700,0.0000,0.0000,0.0000,0.0000,0.0000,0.0000
-34.0719,43.6753,-14.4855,0.0829,-0.0000,-0.1800,1.6200,0.6400,0.0000,0.7083,-0.7735,0.0024,996,1497,1527,1502,2008,1000,1505,1000,1505,1010,1746,1000,1991,0.1858,0.0082,-0.1139,-0.0442,-0.0257,0.9879,1.4842,0.0629,-1.4795,-0.0676,1.8393,0.3418,0.2698,1.8393,0.3418,0.2698,0.3000,0.0600,0.0002,0,-0.5000,-100.0000,-0.0500,-0.5000,-100.0000,-0.0500,17.7515,58.7313,-0.0300,0.2700,0.0000,0.0000,0.0000,0.0000,0.0000,0.0000
-34.0378,43.6504,-14.4638,-0.0000,-0.0000,-0.1800,1.6200,0.6400,0.0000,0.7077,-0.7731,0.0019,996,1497,1527,1502,2008,1000,1505,1000,1505,1010,1746,1000,1991,0.1836,0.0298,0.0047,-0.0438,-0.0235,0.9862,1.4828,0.0635,-1.4789,-0.0674,1.8393,0.3418,0.2698,1.8393,0.3418,0.2698,0.3000,0.0600,0.0002,0,-0.5000,-100.0000,-0.0500,-0.5000,-100.0000,-0.0500,17.7816,58.7626,-0.0300,0.2700,0.0000,0.0000,0.0000,0.0000,0.0000,0.0000
-34.0036,43.6259,-14.4421,-0.0000,-0.0000,-0.1800,1.6200,0.6400,0.0000,0.7071,-0.7727,0.0024,996,1497,1527,1502,2008,1000,1505,1000,1505,1010,1745,1000,1991,0.1372,0.0480,-0.1171,-0.0448,-0.0261,0.9839,1.4822,0.0633,-1.4775,-0.0680,1.8393,0.3414,0.2698,1.8393,0.3414,0.2698,0.3000,0.0600,0.0002,0,-0.5000,-100.0000,-0.0500,-0.5000,-100.0000,-0.0500,17.8116,58.7938,-0.0300,0.2700,0.0000,0.0000,0.0000,0.0000,0.0000,0.0000
-33.9695,43.6012,-14.4201,0.0829,-0.0000,-0.1800,1.6200,0.6400,0.0000,0.7063,-0.7722,0.0023,996,1497,1527,1502,2008,1000,1505,1000,1505,1010,1745,1000,1991,0.1796,0.0155,-0.1026,-0.0435,-0.0269,0.9863,1.4809,0.0635,-1.4762,-0.0682,1.8393,0.3414,0.2698,1.8393,0.3414,0.2698,0.3000,0.0600,0.0002,0,-0.5000,-100.0000,-0.0500,-0.5000,-100.0000,-0.0500,17.8417,58.8250,-0.0300,0.2700,0.0000,0.0000,0.0000,0.0000,0.0000,0.0000
-33.9351,43.5763,-14.3982,0.0829,-0.0000,-0.1200,1.6200,0.9600,0.0000,0.7067,-0.7717,0.0021,996,1497,1527,1502,2008,1000,1505,1000,1505,1010,1745,1000,1991,0.2319,-0.0049,-0.0289,-0.0452,-0.0245,0.9890,1.4804,0.0629,-1.4763,-0.0671,1.8393,0.3414,0.2698,1.8393,0.3414,0.2698,0.3000,0.0600,0.0002,0,-0.5000,-100.0000,-0.0500,-0.5000,-100.0000,-0.0500,17.8718,58.8562,-0.0200,0.2700,0.0000,0.0000,0.0000,0.0000,0.0000,0.0000
-33.9003,43.5516,-14.3766,0.0829,-0.0000,-0.1800,1.6200,0.6400,0.0000,0.7049,-0.7713,0.0019,996,1497,1527,1502,2008,1000,1505,1000,1505,1010,1745,1000,1990,0.2318,0.0139,0.0106,-0.0425,-0.0231,0.9867,1.4781,0.0644,-1.4743,-0.0683,1.8393,0.3414,0.2698,1.8393,0.3414,0.2698,0.3000,0.0600,0.0002,0,-0.5000,-100.0000,-0.0500,-0.5000,-100.0000,-0.0500,17.9018,58.8874,-0.0300,0.2700,0.0000,0.0000,0.0000,0.0000,0.0000,0.0000
-33.8653,43.5278,-14.3545,0.0829,0.0821,-0.1800,1.6200,0.6400,0.0000,0.7043,-0.7711,0.0023,996,1497,1527,1502,2008,1000,1505,1000,1505,1010,1745,1000,1990,0.2343,0.1086,-0.0733,-0.0416,-0.0254,0.9860,1.4776,0.0646,-1.4731,-0.0691,1.8393,0.3414,0.2698,1.8393,0.3414,0.2698,0.3000,0.0600,0.0002,0,-0.5000,-100.0000,-0.0500,-0.5000,-100.0000,-0.0500,17.9318,58.9185,-0.0300,0.2700,0.0000,0.0000,0.0000,0.0000,0.0000,0.0000
-33.8305,43.5034,-14.3329,0.0829,-0.0000,-0.1800,1.6200,0.6400,0.0000,0.7037,-0.7706,0.0022,996,1497,1527,1502,2008,1000,1505,1000,1505,1010,1746,1000,1991,0.2536,0.0807,-0.0475,-0.0448,-0.0246,0.9927,1.4764,0.0647,-1.4721,-0.0691,1.8393,0.3418,0.2698,1.8393,0.3418,0.2698,0.3000,0.0600,0.0002,0,-0.5000,-100.0000,-0.0500,-0.5000,-100.0000,-0.0500,17.9618,58.9497,-0.0300,0.2700,0.0000,0.0000,0.0000,0.0000,0.0000,0.0000
-33.7963,43.4790,-14.3116,0.0829,-0.0000,-0.1800,1.6200,0.6400,0.0000,0.7033,-0.7702,0.0021,996,1497,1527,1502,2008,1000,1505,1000,1505,1010,1746,1000,1991,0.1773,0.1138,-0.0485,-0.0447,-0.0274,0.9910,1.4756,0.0648,-1.4713,-0.0691,1.8393,0.3418,0.2698,1.8393,0.3418,0.2698,0.3000,0.0600,0.0002,0,-0.5000,-100.0000,-0.0500,-0.5000,-100.0000,-0.0500,17.9918,58.9809,-0.0300,0.2700,0.0000,0.0000,0.0000,0.0000,0.0000,0.0000
-33.7613,43.4544,-14.2892,0.0829,-0.0000,-0.1800,1.6200,0.6400,0.0000,0.7023,-0.7691,0.0023,996,1497,1527,1502,2008,1000,1505,1000,1505,1010,1745,1000,1991,0.2387,-0.1158,-0.0921,-0.0401,-0.0236,0.9875,1.4738,0.0645,-1.4692,-0.0691,1.8393,0.3414,0.2698,1.8393,0.3414,0.2698,0.3000,0.0600,0.0002,0,-0.5000,-100.0000,-0.0500,-0.5000,-100.0000,-0.0500,18.0217,59.0121,-0.0300,0.2700,0.0000,0.0000,0.0000,0.0000,0.0000,0.0000
-33.7263,43.4286,-14.2670,0.1657,-0.0821,-0.1200,1.6200,0.9600,0.0000,0.7028,-0.7688,0.0022,996,1497,1527,1502,2008,1000,1505,1000,1505,1010,1745,1000,1991,0.2435,-0.0742,-0.0691,-0.0425,-0.0256,0.9860,1.4738,0.0637,-1.4693,-0.0682,1.8393,0.3414,0.2698,1.8393,0.3414,0.2698,0.3000,0.0600,0.0002,0,-0.5000,-100.0000,-0.0500,-0.5000,-100.0000,-0.0500,18.0517,59.0433,-0.0200,0.2700,0.0000,0.0000,0.0000,0.0000,0.0000,0.0000
-33.6916,43.4031,-14.2451,0.0829,0.0821,-0.1800,1.6200,0.6400,0.0000,0.7012,-0.7685,0.0024,996,1497,1527,1502,2008,1000,1505,1000,1505,1010,1745,1000,1991,0.1965,-0.0158,-0.1165,-0.0413,-0.0297,0.9861,1.4720,0.0649,-1.4673,-0.0697,1.8393,0.3414,0.2698,1.8393,0.3414,0.2698,0.3000,0.0600,0.0002,0,-0.5000,-100.0000,-0.0500,-0.5000,-100.0000,-0.0500,18.0816,59.0744,-0.0300,0.2700,0.0000,0.0000,0.0000,0.0000,0.0000,0.0000
-33.6581,43.3778,-14.2243,0.0829,-0.0000,-0.1800,1.6200,0.6400,0.0000,0.7006,-0.7682,0.0026,996,1497,1527,1502,2008,1000,1505,1000,1505,1010,1746,1000,1990,0.2081,0.0549,-0.1827,-0.0416,-0.0232,0.9887,1.4714,0.0649,-1.4662,-0.0702,1.8393,0.3418,0.2698,1.8393,0.3418,0.2698,0.3000,0.0600,0.0002,0,-0.5000,-100.0000,-0.0500,-0.5000,-100.0000,-0.0500,18.1115,59.1056,-0.0300,0.2700,0.0000,0.0000,0.0000,0.0000,0.0000,0.0000
-33.6244,43.3534,-14.2036,0.0829,-0.0000,-0.1800,1.6200,0.6400,0.0000,0.7000,-0.7679,0.0021,996,1497,1527,1502,2008,1000,1505,1000,1505,1010,1746,1000,1990,0.2110,0.1061,-0.0134,-0.0430,-0.0264,0.9929,1.4700,0.0658,-1.4658,-0.0700,1.8393,0.3418,0.2698,1.8393,0.3418,0.2698,0.3000,0.0600,0.0002,0,-0.5000,-100.0000,-0.0500,-0.5000,-100.0000,-0.0500,18.1414,59.1368,-0.0300,0.2700,0.0000,0.0000,0.0000,0.0000,0.0000,0.0000
-33.5905,43.3290,-14.1818,0.1657,0.0821,-0.1800,1.6200,0.6400,0.0000,0.6997,-0.7673,0.0022,996,1497,1527,1502,2008,1000,1505,1000,1505,1010,1746,1000,1991,0.1042,0.0455,-0.0560,-0.0455,-0.0279,0.9875,1.4692,0.0654,-1.4647,-0.0698,1.8393,0.3418,0.2698,1.8393,0.3418,0.2698,0.3000,0.0600,0.0002,0,-0.5000,-100.0000,-0.0500,-0.5000,-100.0000,-0.0500,18.1713,59.1679,-0.0300,0.2700,0.0000,0.0000,0.0000,0.0000,0.0000,0.0000
-33.5571,43.3044,-14.1604,-0.0000,-0.0000,-0.1800,1.6200,0.6400,0.0000,0.6990,-0.7667,0.0022,996,1497,1527,1502,2008,1000,1505,1000,1505,1010,1746,1000,1991,0.1163,0.0144,-0.0526,-0.0438,-0.0246,0.9895,1.4679,0.0655,-1.4636,-0.0699,1.8393,0.3418,0.2698,1.8393,0.3418,0.2698,0.3000,0.0600,0.0002,0,-0.5000,-100.0000,-0.0500,-0.5000,-100.0000,-0.0500,18.2011,59.1991,-0.0300,0.2700,0.0000,0.0000,0.0000,0.0000,0.0000,0.0000
-33.5233,43.2795,-14.1391,0.0829,-0.0000,-0.1200,1.6200,0.9600,0.0000,0.6992,-0.7661,0.0023,996,1497,1527,1502,2008,1000,1505,1000,1505,1010,1746,1000,1990,0.2248,-0.0476,-0.0757,-0.0419,-0.0249,0.9845,1.4676,0.0646,-1.4630,-0.0692,1.8393,0.3418,0.2698,1.8393,0.3418,0.2698,0.3000,0.0600,0.0002,0,-0.5000,-100.0000,-0.0500,-0.5000,-100.0000,-0.0500,18.2310,59.2302,-0.0200,0.2700,0.0000,0.0000,0.0000,0.0000,0.0000,0.0000
-33.4887,43.2539,-14.1170,0.0829,-0.0000,-0.1800,1.6200,0.6400,0.0000,0.6974,-0.7658,0.0021,996,1497,1527,1502,2008,1000,1505,1000,1505,1010,1745,1000,1991,0.2208,0.0043,-0.0275,-0.0404,-0.0277,0.9843,1.4653,0.0663,-1.4610,-0.0705,1.8393,0.3414,0.2698,1.8393,0.3414,0.2698,0.3000,0.0600,0.0002,0,-0.5000,-100.0000,-0.0500,-0.5000,-100.0000,-0.0500,18.2608,59.2614,-0.0300,0.2700,0.0000,0.0000,0.0000,0.0000,0.0000,0.0000
-33.4536,43.2287,-14.0946,0.1657,-0.0000,-0.1800,1.6200,0.6400,0.0000,0.6967,-0.7653,0.0021,996,1497,1527,1502,2008,1000,1505,1000,1505,1010,1745,1000,1991,0.2387,0.0110,-0.0259,-0.0435,-0.0250,0.9879,1.4641,0.0665,-1.4599,-0.0708,1.8393,0.3414,0.2698,1.8393,0.3414,0.2698,0.3000,0.0600,0.0002,0,-0.5000,-100.0000,-0.0500,-0.5000,-100.0000,-0.0500,18.2907,59.2925,-0.0300,0.2700,0.0000,0.0000,0.0000,0.0000,0.0000,0.0000
-33.4188,43.2038,-14.0726,0.0829,-0.0000,-0.1800,1.6200,0.6400,0.0000,0.6962,-0.7648,0.0021,996,1497,1527,1502,2008,1000,1505,1000,1505,1010,1745,1000,1990,0.1902,-0.0204,-0.0317,-0.0430,-0.0245,0.9889,1.4631,0.0665,-1.4588,-0.0707,1.8393,0.3414,0.2698,1.8393,0.3414,0.2698,0.3000,0.0600,0.0002,0,-0.5000,-100.0000,-0.0500,-0.5000,-100.0000,-0.0500,18.3205,59.3237,-0.0300,0.2700,0.0000,0.0000,0.0000,0.0000,0.0000,0.0000
-33.3844,43.1797,-14.0506,0.1657,-0.0000,-0.1800,1.6200,0.6400,0.0000,0.6956,-0.7647,0.0022,996,1497,1527,1502,2008,1000,1505,1000,1505,1010,1745,1000,1990,0.1883,0.1298,-0.0150,-0.0435,-0.0229,0.9867,1.4625,0.0670,-1.4581,-0.0714,1.8393,0.3414,0.2698,1.8393,0.3414,0.2698,0.3000,0.0600,0.0002,0,-0.5000,-100.0000,-0.0500,-0.5000,-100.0000,-0.0500,18.3503,59.3549,-0.0300,0.2700,0.0000,0.0000,0.0000,0.0000,0.0000,0.0000
-33.3505,43.1553,-14.0300,0.0829,-0.0000,-0.1800,1.6200,0.6400,0.0000,0.6949,-0.7642,0.0023,996,1497,1527,1502,2008,1000,1505,1000,1505,1010,1745,1000,1990,0.2074,0.1122,-0.0557,-0.0434,-0.0260,0.9860,1.4614,0.0671,-1.4569,-0.0716,1.8393,0.3414,0.2698,1.8393,0.3414,0.2698,0.3000,0.0600,0.0002,0,-0.5000,-100.0000,-0.0500,-0.5000,-100.0000,-0.0500,18.3801,59.3861,-0.0300,0.2700,0.0000,0.0000,0.0000,0.0000,0.0000,0.0000
-33.3169,43.1308,-14.0090,0.0829,-0.0000,-0.1200,1.6200,0.9600,0.0000,0.6957,-0.7637,0.0025,996,1497,1527,1502,2008,1000,1505,1000,1505,1010,1746,1000,1990,0.1134,0.0621,-0.1059,-0.0436,-0.0271,0.9889,1.4619,0.0655,-1.4569,-0.0704,1.8393,0.3418,0.2698,1.8393,0.3418,0.2698,0.3000,0.0600,0.0002,0,-0.5000,-100.0000,-0.0500,-0.5000,-100.0000,-0.0500,18.4099,59.4173,-0.0200,0.2700,0.0000,0.0000,0.0000,0.0000,0.0000,0.0000
-33.2838,43.1050,-13.9883,0.0829,-0.0000,-0.1800,1.6200,0.6400,0.0000,0.6938,-0.7628,0.0026,996,1497,1527,1502,2008,1000,1505,1000,1505,1010,1746,1000,1990,0.1868,-0.0971,-0.1527,-0.0433,-0.0247,0.9891,1.4592,0.0663,-1.4540,-0.0715,1.8393,0.3418,0.2698,1.8393,0.3418,0.2698,0.3000,0.0600,0.0002,0,-0.5000,-100.0000,-0.0500,-0.5000,-100.0000,-0.0500,18.4396,59.4484,-0.0300,0.2700,0.0000,0.0000,0.0000,0.0000,0.0000,0.0000
-33.2500,43.0792,-13.9664,-0.0000,-0.0000,-0.1800,1.6200,0.6400,0.0000,0.6933,-0.7625,0.0024,996,1497,1527,1502,2008,1000,1505,1000,1505,1010,1745,1000,1991,0.0902,-0.0319,-0.0989,-0.0431,-0.0276,0.9854,1.4582,0.0667,-1.4534,-0.0715,1.8393,0.3414,0.2698,1.8393,0.3414,0.2698,0.3000,0.0600,0.0002,0,-0.5000,-100.0000,-0.0500,-0.5000,-100.0000,-0.0500,18.4694,59.4797,-0.0300,0.2700,0.0000,0.0000,0.0000,0.0000,0.0000,0.0000
-33.2169,43.0537,-13.9454,0.0829,0.0821,-0.1800,1.6200,0.6400,0.0000,0.6926,-0.7619,0.0022,996,1497,1527,1502,2008,1000,1505,1000,1505,1010,1745,1000,1991,0.1417,-0.0580,-0.0413,-0.0422,-0.0263,0.9868,1.4567,0.0671,-1.4523,-0.0715,1.8393,0.3414,0.2698,1.8393,0.3414,0.2698,0.3000,0.0600,0.0002,0,-0.5000,-100.0000,-0.0500,-0.5000,-100.0000,-0.0500,18.4991,59.5108,-0.0300,0.2700,0.0000,0.0000,0.0000,0.0000,0.0000,0.0000
-33.1828,43.0283,-13.9236,0.0829,0.0821,-0.1800,1.6200,0.6400,0.0000,0.6920,-0.7616,0.0023,996,1497,1527,1502,2008,1000,1505,1000,1505,1010,1746,1000,1990,0.1516,-0.0015,-0.0565,-0.0427,-0.0270,0.9874,1.4560,0.0673,-1.4513,-0.0719,1.8393,0.3418,0.2698,1.8393,0.3418,0.2698,0.3000,0.0600,0.0002,0,-0.5000,-100.0000,-0.0500,-0.5000,-100.0000,-0.0500,18.5288,59.5420,-0.0300,0.2700,0.0000,0.0000,0.0000,0.0000,0.0000,0.0000
-33.1491,43.0037,-13.9027,-0.0000,-0.0000,-0.1800,1.6200,0.6400,0.0000,0.6913,-0.7616,0.0023,996,1497,1527,1502,2008,1000,1505,1000,1505,1010,1746,1000,1990,0.1966,0.1555,-0.0438,-0.0432,-0.0271,0.9936,1.4551,0.0680,-1.4506,-0.0725,1.8393,0.3418,0.2698,1.8393,0.3418,0.2698,0.3000,0.0600,0.0002,0,-0.5000,-100.0000,-0.0500,-0.5000,-100.0000,-0.0500,18.5585,59.5731,-0.0300,0.2700,0.0000,0.0000,0.0000,0.0000,0.0000,0.0000
-33.1159,42.9793,-13.8819,0.0829,-0.0000,-0.1200,1.6200,0.9600,0.0000,0.6917,-0.7609,0.0024,996,1497,1527,1502,2008,1000,1505,1000,1505,1010,1745,1000,1991,0.1785,0.0627,-0.0865,-0.0451,-0.0262,0.9902,1.4550,0.0667,-1.4502,-0.0715,1.8393,0.3414,0.2698,1.8393,0.3414,0.2698,0.3000,0.0600,0.0002,0,-0.5000,-100.0000,-0.0500,-0.5000,-100.0000,-0.0500,18.5882,59.6042,-0.0200,0.2700,0.0000,0.0000,0.0000,0.0000,0.0000,0.0000
-33.0821,42.9545,-13.8600,-0.0000,-0.0000,-0.1800,1.6200,0.6400,0.0000,0.6903,-0.7604,0.0019,996,1497,1527,1502,2008,1000,1505,1000,1505,1010,1746,1000,1991,0.0997,0.0392,0.0802,-0.0417,-0.0259,0.9862,1.4526,0.0681,-1.4488,-0.0719,1.8393,0.3418,0.2698,1.8393,0.3418,0.2698,0.3000,0.0600,0.0002,0,-0.5000,-100.0000,-0.0500,-0.5000,-100.0000,-0.0500,18.6178,59.6354,-0.0300,0.2700,0.0000,0.0000,0.0000,0.0000,0.0000,0.0000
-33.0482,42.9292,-13.8380,0.0829,-0.0000,-0.1800,1.6200,0.6400,0.0000,0.6895,-0.7597,0.0024,996,1497,1527,1502,2008,1000,1505,1000,1505,1010,1746,1000,1991,0.1668,-0.0201,-0.0831,-0.0459,-0.0258,0.9881,1.4516,0.0678,-1.4469,-0.0726,1.8393,0.3418,0.2698,1.8393,0.3418,0.2698,0.3000,0.0600,0.0002,0,-0.5000,-100.0000,-0.0500,-0.5000,-100.0000,-0.0500,18.6475,59.6665,-0.0300,0.2700,0.0000,0.0000,0.0000,0.0000,0.0000,0.0000
-33.0142,42.9030,-13.8166,0.0829,-0.0000,-0.1800,1.6200,0.6400,0.0000,0.6886,-0.7590,0.0025,996,1497,1527,1502,2008,1000,1505,1000,1505,1010,1745,1000,1990,0.2257,-0.1117,-0.1172,-0.0450,-0.0251,0.9894,1.4501,0.0679,-1.4451,-0.0729,1.8393,0.3414,0.2698,1.8393,0.3414,0.2698,0.3000,0.0600,0.0002,0,-0.5000,-100.0000,-0.0500,-0.5000,-100.0000,-0.0500,18.6771,59.6976,-0.0300,0.2700,0.0000,0.0000,0.0000,0.0000,0.0000,0.0000
-32.9796,42.8772,-13.7946,0.0829,-0.0000,-0.1800,1.6200,0.6400,0.0000,0.6882,-0.7588,0.0023,996,1497,1527,1502,2008,1000,1505,1000,1505,1010,1745,1000,1990,0.1539,0.0004,-0.0443,-0.0417,-0.0253,0.9838,1.4493,0.0684,-1.4448,-0.0729,1.8393,0.3414,0.2698,1.8393,0.3414,0.2698,0.3000,0.0600,0.0002,0,-0.5000,-100.0000,-0.0500,-0.5000,-100.0000,-0.0500,18.7067,59.7287,-0.0300,0.2700,0.0000,0.0000,0.0000,0.0000,0.0000,0.0000
-32.9464,42.8514,-13.7734,0.0829,-0.0821,-0.1800,1.6200,0.6400,0.0000,0.6878,-0.7582,0.0024,996,1497,1527,1502,2008,1000,1505,1000,1505,1010,1745,1000,1991,0.0855,-0.0610,-0.0940,-0.0422,-0.0288,0.9885,1.4484,0.0680,-1.4436,-0.0728,1.8393,0.3414,0.2698,1.8393,0.3414,0.2698,0.3000,0.0600,0.0002,0,-0.5000,-100.0000,-0.0500,-0.5000,-100.0000,-0.0500,18.7362,59.7599,-0.0300,0.2700,0.0000,0.0000,0.0000,0.0000,0.0000,0.0000
-32.9131,42.8259,-13.7520,0.0829,-0.0000,-0.1200,1.6200,0.9600,0.0000,0.6881,-0.7581,0.0024,996,1497,1527,1502,2008,1000,1505,1000,1505,1010,1746,1000,1990,0.1909,0.0878,-0.0789,-0.0447,-0.0251,0.9869,1.4486,0.0676,-1.4438,-0.0724,1.8393,0.3418,0.2698,1.8393,0.3418,0.2698,0.3000,0.0600,0.0002,0,-0.5000,-100.0000,-0.0500,-0.5000,-100.0000,-0.0500,18.7658,59.7910,-0.0200,0.2700,0.0000,0.0000,0.0000,0.0000,0.0000,0.0000
-32.8795,42.8004,-13.7311,0.0829,-0.0000,-0.1800,1.6200,0.6400,0.0000,0.6862,-0.7575,0.0025,996,1497,1527,1502,2008,1000,1505,1000,1505,1010,1746,1000,1990,0.2443,0.0491,-0.1042,-0.0427,-0.0285,0.9876,1.4463,0.0688,-1.4413,-0.0738,1.8393,0.3418,0.2698,1.8393,0.3418,0.2698,0.3000,0.0600,0.0002,0,-0.5000,-100.0000,-0.0500,-0.5000,-100.0000,-0.0500,18.7954,59.8221,-0.0300,0.2700,0.0000,0.0000,0.0000,0.0000,0.0000,0.0000
-32.8453,42.7755,-13.7103,0.0829,-0.0000,-0.1800,1.6200,0.6400,0.0000,0.6856,-0.7570,0.0022,996,1497,1527,1502,2008,1000,1505,1000,1505,1010,1746,1000,1990,0.2480,0.0265,-0.0308,-0.0425,-0.0255,0.9904,1.4449,0.0692,-1.4404,-0.0737,1.8393,0.3418,0.2698,1.8393,0.3418,0.2698,0.3000,0.0600,0.0002,0,-0.5000,-100.0000,-0.0500,-0.5000,-100.0000,-0.0500,18.8249,59.8532,-0.0300,0.2700,0.0000,0.0000,0.0000,0.0000,0.0000,0.0000
-32.8108,42.7507,-13.6888,0.0829,-0.0000,-0.1800,1.6200,0.6400,0.0000,0.6851,-0.7568,0.0020,996,1497,1527,1502,2008,1000,1505,1000,1505,1010,1746,1000,1990,0.1993,0.1204,0.0476,-0.0452,-0.0268,0.9938,1.4439,0.0698,-1.4399,-0.0737,1.8393,0.3418,0.2698,1.8393,0.3418,0.2698,0.3000,0.0600,0.0002,0,-0.5000,-100.0000,-0.0500,-0.5000,-100.0000,-0.0500,18.8544,59.8844,-0.0300,0.2700,0.0000,0.0000,0.0000,0.0000,0.0000,0.0000
-32.7760,42.7256,-13.6671,0.0829,0.0821,-0.1800,1.6200,0.6400,0.0000,0.6841,-0.7561,0.0024,996,1497,1527,1502,2008,1000,1505,1000,1505,1010,1745,1000,1991,0.2774,0.0228,-0.0575,-0.0453,-0.0281,0.9886,1.4426,0.0696,-1.4379,-0.0743,1.8393,0.3414,0.2698,1.8393,0.3414,0.2698,0.3000,0.0600,0.0002,0,-0.5000,-100.0000,-0.0500,-0.5000,-100.0000,-0.0500,18.8840,59.9156,-0.0300,0.2700,0.0000,0.0000,0.0000,0.0000,0.0000,0.0000
-32.7414,42.7004,-13.6457,0.0829,-0.0000,-0.1800,1.6200,0.6400,0.0000,0.6836,-0.7556,0.0024,996,1497,1527,1502,2008,1000,1505,1000,1505,1010,1745,1000,1991,0.2394,0.0217,-0.0527,-0.0443,-0.0247,0.9910,1.4416,0.0697,-1.4369,-0.0744,1.8393,0.3414,0.2698,1.8393,0.3414,0.2698,0.3000,0.0600,0.0002,0,-0.5000,-100.0000,-0.0500,-0.5000,-100.0000,-0.0500,18.9135,59.9468,-0.0300,0.2700,0.0000,0.0000,0.0000,0.0000,0.0000,0.0000
-32.7073,42.6747,-13.6251,-0.0000,-0.0000,-0.1200,1.6200,0.9600,0.0000,0.6840,-0.7549,0.0024,996,1497,1527,1502,2008,1000,1505,1000,1505,1010,1745,1000,1990,0.2475,-0.0683,-0.0869,-0.0421,-0.0246,0.9886,1.4414,0.0685,-1.4366,-0.0733,1.8393,0.3414,0.2698,1.8393,0.3414,0.2698,0.3000,0.0600,0.0002,0,-0.5000,-100.0000,-0.0500,-0.5000,-100.0000,-0.0500,18.9430,59.9779,-0.0200,0.2700,0.0000,0.0000,0.0000,0.0000,0.0000,0.0000
-32.6740,42.6488,-13.6047,0.0829,-0.0000,-0.1800,1.6200,0.6400,0.0000,0.6826,-0.7547,0.0026,996,1497,1527,1502,2008,1000,1505,1000,1505,1010,1745,1000,1991,0.1503,0.0419,-0.1354,-0.0439,-0.0266,0.9903,1.4399,0.0696,-1.4347,-0.0747,1.8393,0.3414,0.2698,1.8393,0.3414,0.2698,0.3000,0.0600,0.0002,0,-0.5000,-100.0000,-0.0500,-0.5000,-100.0000,-0.0500,18.9724,60.0090,-0.0300,0.2700,0.0000,0.0000,0.0000,0.0000,0.0000,0.0000
-32.6409,42.6227,-13.5845,0.0829,-0.0000,-0.1800,1.6200,0.6400,0.0000,0.6818,-0.7541,0.0027,996,1497,1527,1502,2008,1000,1505,1000,1505,1010,1745,1000,1991,0.2017,-0.0188,-0.1658,-0.0407,-0.0259,0.9863,1.4386,0.0696,-1.4333,-0.0749,1.8393,0.3414,0.2698,1.8393,0.3414,0.2698,0.3000,0.0600,0.0002,0,-0.5000,-100.0000,-0.0500,-0.5000,-100.0000,-0.0500,19.0018,60.0400,-0.0300,0.2700,0.0000,0.0000,0.0000,0.0000,0.0000,0.0000
-32.6075,42.5968,-13.5642,0.1657,-0.0000,-0.1800,1.6200,0.6400,0.0000,0.6814,-0.7538,0.0023,996,1497,1527,1502,2008,1000,1505,1000,1505,1010,1746,1000,1990,0.1938,0.0617,-0.0491,-0.0447,-0.0247,0.9917,1.4375,0.0702,-1.4329,-0.0748,1.8393,0.3418,0.2698,1.8393,0.3418,0.2698,0.3000,0.0600,0.0002,0,-0.5000,-100.0000,-0.0500,-0.5000,-100.0000,-0.0500,19.0312,60.0711,-0.0300,0.2700,0.0000,0.0000,0.0000,0.0000,0.0000,0.0000
-32.5731,42.5714,-13.5431,0.0829,-0.0000,-0.1800,1.6200,0.6400,0.0000,0.6806,-0.7531,0.0024,996,1497,1527,1502,2008,1000,1505,1000,1505,1010,1746,1000,1990,0.2538,-0.0235,-0.0478,-0.0444,-0.0245,0.9883,1.4361,0.0702,-1.4313,-0.0750,1.8393,0.3418,0.2698,1.8393,0.3418,0.2698,0.3000,0.0600,0.0002,0,-0.5000,-100.0000,-0.0500,-0.5000,-100.0000,-0.0500,19.0606,60.1021,-0.0300,0.2700,0.0000,0.0000,0.0000,0.0000,0.0000,0.0000
-32.5391,42.5460,-13.5226,-0.0000,-0.0000,-0.1800,1.6200,0.6400,0.0000,0.6800,-0.7529,0.0023,996,1497,1527,1502,2008,1000,1505,1000,1505,1010,1746,1000,1990,0.2302,0.0753,-0.0427,-0.0439,-0.0248,0.9912,1.4352,0.0707,-1.4307,-0.0752,1.8393,0.3418,0.2698,1.8393,0.3418,0.2698,0.3000,0.0600,0.0002,0,-0.5000,-100.0000,-0.0500,-0.5000,-100.0000,-0.0500,19.0900,60.1332,-0.0300,0.2700,0.0000,0.0000,0.0000,0.0000,0.0000,0.0000
-32.5049,42.5206,-13.5014,0.0829,0.0821,-0.1200,1.6200,0.9600,0.0000,0.6805,-0.7521,0.0022,996,1497,1527,1502,2008,1000,1505,1000,1505,1010,1746,1000,1991,0.2244,-0.0527,-0.0068,-0.0455,-0.0255,0.9900,1.4348,0.0694,-1.4304,-0.0739,1.8393,0.3418,0.2698,1.8393,0.3418,0.2698,0.3000,0.0600,0.0002,0,-0.5000,-100.0000,-0.0500,-0.5000,-100.0000,-0.0500,19.1193,60.1643,-0.0200,0.2700,0.0000,0.0000,0.0000,0.0000,0.0000,0.0000
-32.4707,42.4951,-13.4802,0.0829,0.0821,-0.1800,1.6200,0.6400,0.0000,0.6786,-0.7518,0.0026,996,1497,1527,1502,2008,1000,1505,1000,1505,1010,1746,1000,1991,0.2651,-0.0079,-0.1012,-0.0431,-0.0243,0.9860,1.4330,0.0706,-1.4279,-0.0757,1.8393,0.3418,0.2698,1.8393,0.3418,0.2698,0.3000,0.0600,0.0002,0,-0.5000,-100.0000,-0.0500,-0.5000,-100.0000,-0.0500,19.1486,60.1953,-0.0300,0.2700,0.0000,0.0000,0.0000,0.0000,0.0000,0.0000
-32.4367,42.4693,-13.4593,0.1657,-0.0000,-0.1800,1.6200,0.6400,0.0000,0.6782,-0.7514,0.0024,996,1497,1527,1502,2008,1000,1505,1000,1505,1010,1746,1000,1990,0.2137,0.0233,-0.0652,-0.0458,-0.0274,0.9868,1.4319,0.0709,-1.4272,-0.0756,1.8393,0.3418,0.2698,1.8393,0.3418,0.2698,0.3000,0.0600,0.0002,0,-0.5000,-100.0000,-0.0500,-0.5000,-100.0000,-0.0500,19.1779,60.2264,-0.0300,0.2700,0.0000,0.0000,0.0000,0.0000,0.0000,0.0000
-32.4035,42.4439,-13.4389,0.0829,-0.0000,-0.1800,1.6200,0.6400,0.0000,0.6777,-0.7512,0.0024,996,1497,1527,1502,2008,1000,1505,1000,1505,1010,1746,1000,1990,0.1674,0.1103,-0.0649,-0.0424,-0.0286,0.9885,1.4312,0.0711,-1.4264,-0.0759,1.8393,0.3418,0.2698,1.8393,0.3418,0.2698,0.3000,0.0600,0.0002,0,-0.5000,-100.0000,-0.0500,-0.5000,-100.0000,-0.0500,19.2072,60.2575,-0.0300,0.2700,0.0000,0.0000,0.0000,0.0000,0.0000,0.0000
-32.3707,42.4191,-13.4186,-0.0000,0.0821,-0.1800,1.6200,0.6400,0.0000,0.6771,-0.7505,0.0024,996,1497,1527,1502,2008,1000,1505,1000,1505,1010,1746,1000,1991,0.1694,0.0417,-0.0487,-0.0422,-0.0251,0.9899,1.4300,0.0711,-1.4252,-0.0758,1.8393,0.3418,0.2698,1.8393,0.3418,0.2698,0.3000,0.0600,0.0002,0,-0.5000,-100.0000,-0.0500,-0.5000,-100.0000,-0.0500,19.2365,60.2886,-0.0300,0.2700,0.0000,0.0000,0.0000,0.0000,0.0000,0.0000
-32.3375,42.3934,-13.3982,-0.0000,0.0821,-0.1800,1.6200,0.6400,0.0000,0.6764,-0.7499,0.0027,996,1497,1527,1502,2008,1000,1505,1000,1505,1010,1746,1000,1991,0.1916,0.0020,-0.1585,-0.0468,-0.0261,0.9899,1.4291,0.0708,-1.4236,-0.0763,1.8393,0.3418,0.2698,1.8393,0.3418,0.2698,0.3000,0.0600,0.0002,0,-0.5000,-100.0000,-0.0500,-0.5000,-100.0000,-0.0500,19.2658,60.3197,-0.0300,0.2700,0.0000,0.0000,0.0000,0.0000,0.0000,0.0000
-32.3045,42.3676,-13.3787,0.0829,-0.0000,-0.1200,1.6200,0.9600,0.0000,0.6769,-0.7497,0.0027,996,1497,1527,1502,2008,1000,1505,1000,1505,1010,1746,1000,1991,0.1795,0.0757,-0.1470,-0.0429,-0.0212,0.9853,1.4292,0.0701,-1.4239,-0.0754,1.8393,0.3418,0.2698,1.8393,0.3418,0.2698,0.3000,0.0600,0.0002,0,-0.5000,-100.0000,-0.0500,-0.5000,-100.0000,-0.0500,19.2950,60.3507,-0.0200,0.2700,0.0000,0.0000,0.0000,0.0000,0.0000,0.0000
-32.2701,42.3420,-13.3570,0.0829,-0.0000,-0.1800,1.6200,0.6400,0.0000,0.6752,-0.7490,0.0020,996,1497,1527,1502,2008,1000,1505,1000,1505,1010,1746,1000,1991,0.1811,0.0001,0.0814,-0.0454,-0.0234,0.9891,1.4261,0.0718,-1.4222,-0.0758,1.8393,0.3418,0.2698,1.8393,0.3418,0.2698,0.3000,0.0600,0.0002,0,-0.5000,-100.0000,-0.0500,-0.5000,-100.0000,-0.0500,19.3243,60.3819,-0.0300,0.2700,0.0000,0.0000,0.0000,0.0000,0.0000,0.0000
-32.2360,42.3160,-13.3352,0.0829,-0.0000,-0.1800,1.6200,0.6400,0.0000,0.6745,-0.7484,0.0024,996,1497,1527,1502,2008,1000,1505,1000,1505,1010,1746,1000,1991,0.2049,-0.0350,-0.0610,-0.0448,-0.0284,0.9900,1.4253,0.0715,-1.4205,-0.0763,1.8393,0.3418,0.2698,1.8393,0.3418,0.2698,0.3000,0.0600,0.0002,0,-0.5000,-100.0000,-0.0500,-0.5000,-100.0000,-0.0500,19.3535,60.4130,-0.0300,0.2700,0.0000,0.0000,0.0000,0.0000,0.0000,0.0000
-32.2021,42.2902,-13.3146,0.0829,-0.0000,-0.1800,1.6200,0.6400,0.0000,0.6738,-0.7483,0.0024,996,1497,1527,1502,2008,1000,1505,1000,1505,1010,1746,1000,1991,0.2252,0.0921,-0.0581,-0.0432,-0.0264,0.9896,1.4245,0.0721,-1.4197,-0.0769,1.8393,0.3418,0.2698,1.8393,0.3418,0.2698,0.3000,0.0600,0.0002,0,-0.5000,-100.0000,-0.0500,-0.5000,-100.0000,-0.0500,19.3827,60.4441,-0.0300,0.2700,0.0000,0.0000,0.0000,0.0000,0.0000,0.0000
-32.1685,42.2650,-13.2942,0.0829,0.0821,-0.1800,1.6200,0.6400,0.0000,0.6734,-0.7478,0.0025,996,1497,1527,1502,2008,1000,1505,1000,1505,1010,1746,1000,1991,0.1659,0.0848,-0.0739,-0.0425,-0.0255,0.9900,1.4236,0.0720,-1.4187,-0.0769,1.8393,0.3418,0.2698,1.8393,0.3418,0.2698,0.3000,0.0600,0.0002,0,-0.5000,-100.0000,-0.0500,-0.5000,-100.0000,-0.0500,19.4119,60.4752,-0.0300,0.2700,0.0000,0.0000,0.0000,0.0000,0.0000,0.0000
-32.1350,42.2397,-13.2736,0.0829,-0.0000,-0.1800,1.6200,0.6400,0.0000,0.6725,-0.7473,0.0024,996,1497,1527,1502,2008,1000,1505,1000,1505,1010,1745,1000,1991,0.2156,0.0690,-0.0507,-0.0421,-0.0251,0.9876,1.4222,0.0724,-1.4174,-0.0772,1.8393,0.3414,0.2698,1.8393,0.3414,0.2698,0.3000,0.0600,0.0002,0,-0.5000,-100.0000,-0.0500,-0.5000,-100.0000,-0.0500,19.4410,60.5063,-0.0300,0.2700,0.0000,0.0000,0.0000,0.0000,0.0000,0.0000
-32.1018,42.2145,-13.2529,0.0829,-0.0000,-0.1200,1.6200,0.9600,0.0000,0.6732,-0.7467,0.0023,996,1497,1527,1502,2008,1000,1505,1000,1505,1010,1745,1000,1990,0.1462,0.0087,-0.0304,-0.0441,-0.0266,0.9898,1.4221,0.0712,-1.4176,-0.0758,1.8393,0.3414,0.2698,1.8393,0.3414,0.2698,0.3000,0.0600,0.0002,0,-0.5000,-100.0000,-0.0500,-0.5000,-100.0000,-0.0500,19.4702,60.5375,-0.0200,0.2700,0.0000,0.0000,0.0000,0.0000,0.0000,0.0000
-32.0681,42.1892,-13.2318,0.1657,-0.0000,-0.1800,1.6200,0.6400,0.0000,0.6714,-0.7461,0.0025,996,1497,1527,1502,2008,1000,1505,1000,1505,1010,1745,1000,1990,0.1684,-0.0271,-0.0613,-0.0424,-0.0250,0.9891,1.4200,0.0723,-1.4150,-0.0772,1.8393,0.3414,0.2698,1.8393,0.3414,0.2698,0.3000,0.0600,0.0002,0,-0.5000,-100.0000,-0.0500,-0.5000,-100.0000,-0.0500,19.4994,60.5687,-0.0300,0.2700,0.0000,0.0000,0.0000,0.0000,0.0000,0.0000
-32.0347,42.1637,-13.2111,0.0829,-0.0000,-0.1800,1.6200,0.6400,0.0000,0.6709,-0.7457,0.0024,996,1497,1527,1502,2008,1000,1505,1000,1505,1010,1745,1000,1991,0.1416,-0.0082,-0.0441,-0.0435,-0.0236,0.9872,1.4189,0.0724,-1.4141,-0.0772,1.8393,0.3414,0.2698,1.8393,0.3414,0.2698,0.3000,0.0600,0.0002,0,-0.5000,-100.0000,-0.0500,-0.5000,-100.0000,-0.0500,19.5286,60.5999,-0.0300,0.2700,0.0000,0.0000,0.0000,0.0000,0.0000,0.0000
-32.0016,42.1380,-13.1902,0.1657,-0.0000,-0.1800,1.6200,0.6400,0.0000,0.6702,-0.7453,0.0023,996,1497,1527,1502,2008,1000,1505,1000,1505,1010,1745,1000,1991,0.1453,0.0113,0.0020,-0.0415,-0.0253,0.9906,1.4178,0.0728,-1.4132,-0.0773,1.8393,0.3414,0.2698,1.8393,0.3414,0.2698,0.3000,0.0600,0.0002,0,-0.5000,-100.0000,-0.0500,-0.5000,-100.0000,-0.0500,19.5577,60.6310,-0.0300,0.2700,0.0000,0.0000,0.0000,0.0000,0.0000,0.0000
-31.9685,42.1119,-13.1701,0.0829,0.0821,-0.1800,1.6200,0.6400,0.0000,0.6695,-0.7447,0.0026,996,1497,1527,1502,2008,1000,1505,1000,1505,1010,1746,1000,1991,0.2335,-0.0227,-0.1219,-0.0419,-0.0263,0.9867,1.4168,0.0726,-1.4116,-0.0778,1.8393,0.3418,0.2698,1.8393,0.3418,0.2698,0.3000,0.0600,0.0002,0,-0.5000,-100.0000,-0.0500,-0.5000,-100.0000,-0.0500,19.5868,60.6621,-0.0300,0.2700,0.0000,0.0000,0.0000,0.0000,0.0000,0.0000
-31.9352,42.0853,-13.1500,0.1657,-0.0000,-0.1800,1.6200,0.6400,0.0000,0.6689,-0.7444,0.0027,996,1497,1527,1502,2008,1000,1505,1000,1505,1010,1746,1000,1991,0.2148,0.0533,-0.1312,-0.0438,-0.0277,0.9854,1.4160,0.0728,-1.4106,-0.0782,1.8393,0.3418,0.2698,1.8393,0.3418,0.2698,0.3000,0.0600,0.0002,0,-0.5000,-100.0000,-0.0500,-0.5000,-100.0000,-0.0500,19.6159,60.6932,-0.0300,0.2700,0.0000,0.0000,0.0000,0.0000,0.0000,0.0000
-31.9026,42.0591,-13.1302,0.1657,-0.0000,-0.1200,1.6200,0.9600,0.0000,0.6698,-0.7438,0.0026,996,1497,1527,1502,2008,1000,1505,1000,1505,1010,1745,1000,1991,0.0490,0.0199,-0.1122,-0.0430,-0.0259,0.9887,1.4162,0.0714,-1.4110,-0.0767,1.8393,0.3414,0.2698,1.8393,0.3414,0.2698,0.3000,0.0600,0.0002,0,-0.5000,-100.0000,-0.0500,-0.5000,-100.0000,-0.0500,19.6449,60.7243,-0.0200,0.2700,0.0000,0.0000,0.0000,0.0000,0.0000,0.0000
-31.8694,42.0331,-13.1094,0.0829,-0.0000,-0.1800,1.6200,0.6400,0.0000,0.6678,-0.7431,0.0023,996,1497,1527,1502,2008,1000,1505,1000,1505,1010,1746,1000,1991,0.1786,-0.0682,-0.0040,-0.0451,-0.0253,0.9858,1.4133,0.0730,-1.4086,-0.0776,1.8393,0.3418,0.2698,1.8393,0.3418,0.2698,0.3000,0.0600,0.0002,0,-0.5000,-100.0000,-0.0500,-0.5000,-100.0000,-0.0500,19.6739,60.7554,-0.0300,0.2700,0.0000,0.0000,0.0000,0.0000,0.0000,0.0000
-31.8352,42.0067,-13.0880,-0.0000,-0.0000,-0.1800,1.6200,0.6400,0.0000,0.6671,-0.7428,0.0025,996,1497,1527,1502,2008,1000,1505,1000,1505,1010,1746,1000,1991,0.1973,0.0059,-0.0513,-0.0438,-0.0261,0.9864,1.4124,0.0732,-1.4075,-0.0782,1.8393,0.3418,0.2698,1.8393,0.3418,0.2698,0.3000,0.0600,0.0002,0,-0.5000,-100.0000,-0.0500,-0.5000,-100.0000,-0.0500,19.7029,60.7864,-0.0300,0.2700,0.0000,0.0000,0.0000,0.0000,0.0000,0.0000
-31.8015,41.9804,-13.0678,0.0829,-0.0000,-0.1800,1.6200,0.6400,0.0000,0.6665,-0.7424,0.0026,996,1497,1527,1502,2008,1000,1505,1000,1505,1010,1746,1000,1991,0.2070,0.0224,-0.1088,-0.0447,-0.0227,0.9902,1.4115,0.0733,-1.4063,-0.0785,1.8393,0.3418,0.2698,1.8393,0.3418,0.2698,0.3000,0.0600,0.0002,0,-0.5000,-100.0000,-0.0500,-0.5000,-100.0000,-0.0500,19.7319,60.8175,-0.0300,0.2700,0.0000,0.0000,0.0000,0.0000,0.0000,0.0000
-31.7678,41.9546,-13.0471,0.0829,0.0821,-0.1800,1.6200,0.6400,0.0000,0.6660,-0.7420,0.0025,996,1497,1527,1502,2008,1000,1505,1000,1505,1010,1746,1000,1991,0.1754,0.0568,-0.0662,-0.0448,-0.0266,0.9904,1.4105,0.0736,-1.4055,-0.0786,1.8393,0.3418,0.2698,1.8393,0.3418,0.2698,0.3000,0.0600,0.0002,0,-0.5000,-100.0000,-0.0500,-0.5000,-100.0000,-0.0500,19.7609,60.8486,-0.0300,0.2700,0.0000,0.0000,0.0000,0.0000,0.0000,0.0000
-31.7349,41.9285,-13.0268,0.0829,-0.0000,-0.1800,1.6200,0.6400,0.0000,0.6654,-0.7416,0.0024,996,1497,1527,1502,2008,1000,1505,1000,1505,1010,1746,1000,1991,0.1693,0.0815,-0.0184,-0.0430,-0.0263,0.9894,1.4093,0.0739,-1.4046,-0.0786,1.8393,0.3418,0.2698,1.8393,0.3418,0.2698,0.3000,0.0600,0.0002,0,-0.5000,-100.0000,-0.0500,-0.5000,-100.0000,-0.0500,19.7898,60.8797,-0.0300,0.2700,0.0000,0.0000,0.0000,0.0000,0.0000,0.0000
-31.7008,41.9028,-13.0060,0.0829,0.0821,-0.1200,1.6200,0.9600,0.0000,0.6658,-0.7411,0.0024,996,1497,1527,1502,2008,1000,1505,1000,1505,1010,1746,1000,1991,0.1925,0.0622,-0.0310,-0.0449,-0.0261,0.9858,1.4092,0.0729,-1.4045,-0.0777,1.8393,0.3418,0.2698,1.8393,0.3418,0.2698,0.3000,0.0600,0.0002,0,-0.5000,-100.0000,-0.0500,-0.5000,-100.0000,-0.0500,19.8187,60.9108,-0.0200,0.2700,0.0000,0.0000,0.0000,0.0000,0.0000,0.0000
-31.6678,41.8773,-12.9855,0.0829,0.0821,-0.1800,1.6200,0.6400,0.0000,0.6640,-0.7404,0.0025,996,1497,1527,1502,2008,1000,1505,1000,1505,1010,1746,1000,1991,0.2069,-0.0055,-0.0544,-0.0412,-0.0271,0.9909,1.4070,0.0739,-1.4019,-0.0789,1.8393,0.3418,0.2698,1.8393,0.3418,0.2698,0.3000,0.0600,0.0002,0,-0.5000,-100.0000,-0.0500,-0.5000,-100.0000,-0.0500,19.8476,60.9419,-0.0300,0.2700,0.0000,0.0000,0.0000,0.0000,0.0000,0.0000
-31.6343,41.8512,-12.9655,0.0829,-0.0000,-0.1800,1.6200,0.6400,0.0000,0.6633,-0.7402,0.0026,996,1497,1527,1502,2008,1000,1505,1000,1505,1010,1745,1000,1991,0.2252,0.0971,-0.0862,-0.0457,-0.0236,0.9882,1.4061,0.0744,-1.4009,-0.0795,1.8393,0.3414,0.2698,1.8393,0.3414,0.2698,0.3000,0.0600,0.0002,0,-0.5000,-100.0000,-0.0500,-0.5000,-100.0000,-0.0500,19.8765,60.9730,-0.0300,0.2700,0.0000,0.0000,0.0000,0.0000,0.0000,0.0000
-31.6014,41.8259,-12.9463,0.0829,-0.0000,-0.1800,1.6200,0.6400,0.0000,0.6627,-0.7398,0.0025,996,1497,1527,1502,2008,1000,1505,1000,1505,1010,1745,1000,1991,0.2092,0.1034,-0.0682,-0.0449,-0.0277,0.9854,1.4050,0.0745,-1.3999,-0.0796,1.8393,0.3414,0.2698,1.8393,0.3414,0.2698,0.3000,0.0600,0.0002,0,-0.5000,-100.0000,-0.0500,-0.5000,-100.0000,-0.0500,19.9053,61.0041,-0.0300,0.2700,0.0000,0.0000,0.0000,0.0000,0.0000,0.0000
-31.5684,41.8006,-12.9264,0.1657,-0.0000,-0.1800,1.6200,0.6400,0.0000,0.6622,-0.7394,0.0026,996,1497,1527,1502,2008,1000,1505,1000,1505,1010,1745,1000,1991,0.1617,0.1216,-0.0738,-0.0429,-0.0240,0.9871,1.4041,0.0746,-1.3990,-0.0797,1.8393,0.3414,0.2698,1.8393,0.3414,0.2698,0.3000,0.0600,0.0002,0,-0.5000,-100.0000,-0.0500,-0.5000,-100.0000,-0.0500,19.9342,61.0352,-0.0300,0.2700,0.0000,0.0000,0.0000,0.0000,0.0000,0.0000
-31.5347,41.7751,-12.9064,0.0829,-0.0000,-0.1800,1.6200,0.6400,0.0000,0.6613,-0.7388,0.0024,996,1497,1527,1502,2008,1000,1505,1000,1505,1010,1745,1000,1991,0.2833,0.0768,-0.0171,-0.0434,-0.0244,0.9874,1.4024,0.0751,-1.3977,-0.0798,1.8393,0.3414,0.2698,1.8393,0.3414,0.2698,0.3000,0.0600,0.0002,0,-0.5000,-100.0000,-0.0500,-0.5000,-100.0000,-0.0500,19.9630,61.0662,-0.0300,0.2700,0.0000,0.0000,0.0000,0.0000,0.0000,0.0000
-31.5005,41.7493,-12.8860,0.0829,0.0821,-0.1200,1.6200,0.9600,0.0000,0.6618,-0.7380,0.0023,996,1497,1527,1502,2008,1000,1505,1000,1505,1010,1745,1000,1990,0.2636,-0.0405,-0.0028,-0.0411,-0.0247,0.9883,1.4021,0.0738,-1.3974,-0.0785,1.8393,0.3414,0.2698,1.8393,0.3414,0.2698,0.3000,0.0600,0.0002,0,-0.5000,-100.0000,-0.0500,-0.5000,-100.0000,-0.0500,19.9918,61.0974,-0.0200,0.2700,0.0000,0.0000,0.0000,0.0000,0.0000,0.0000
-31.4661,41.7234,-12.8647,0.0829,0.0821,-0.1800,1.6200,0.6400,0.0000,0.6603,-0.7377,0.0023,996,1497,1527,1502,2008,1000,1505,1000,1505,1010,1746,1000,1990,0.2136,0.0417,0.0083,-0.0433,-0.0220,0.9882,1.4003,0.0751,-1.3957,-0.0797,1.8393,0.3418,0.2698,1.8393,0.3418,0.2698,0.3000,0.0600,0.0002,0,-0.5000,-100.0000,-0.0500,-0.5000,-100.0000,-0.0500,20.0206,61.1285,-0.0300,0.2700,0.0000,0.0000,0.0000,0.0000,0.0000,0.0000
-31.4322,41.6979,-12.8434,0.0829,0.0821,-0.1800,1.6200,0.6400,0.0000,0.6599,-0.7373,0.0025,996,1497,1527,1502,2008,1000,1505,1000,1505,1010,1746,1000,1990,0.1469,0.0769,-0.0470,-0.0461,-0.0245,0.9889,1.3997,0.0750,-1.3947,-0.0800,1.8393,0.3418,0.2698,1.8393,0.3418,0.2698,0.3000,0.0600,0.0002,0,-0.5000,-100.0000,-0.0500,-0.5000,-100.0000,-0.0500,20.0494,61.1596,-0.0300,0.2700,0.0000,0.0000,0.0000,0.0000,0.0000,0.0000
-31.3989,41.6726,-12.8231,0.0829,-0.0000,-0.1800,1.6200,0.6400,0.0000,0.6591,-0.7368,0.0023,996,1497,1527,1502,2008,1000,1505,1000,1505,1010,1746,1000,1991,0.2193,0.0541,0.0144,-0.0457,-0.0268,0.9871,1.3982,0.0755,-1.3936,-0.0801,1.8393,0.3418,0.2698,1.8393,0.3418,0.2698,0.3000,0.0600,0.0002,0,-0.5000,-100.0000,-0.0500,-0.5000,-100.0000,-0.0500,20.0781,61.1907,-0.0300,0.2700,0.0000,0.0000,0.0000,0.0000,0.0000,0.0000
-31.3653,41.6466,-12.8026,0.0829,-0.0000,-0.1800,1.6200,0.6400,0.0000,0.6585,-0.7362,0.0026,996,1497,1527,1502,2008,1000,1505,1000,1505,1010,1746,1000,1991,0.1935,0.0171,-0.0651,-0.0406,-0.0286,0.9911,1.3973,0.0752,-1.3922,-0.0803,1.8393,0.3418,0.2698,1.8393,0.3418,0.2698,0.3000,0.0600,0.0002,0,-0.5000,-100.0000,-0.0500,-0.5000,-100.0000,-0.0500,20.1068,61.2217,-0.0300,0.2700,0.0000,0.0000,0.0000,0.0000,0.0000,0.0000
-31.3325,41.6210,-12.7825,0.0829,-0.0000,-0.1800,1.6200,0.6400,0.0000,0.6579,-0.7358,0.0026,996,1497,1527,1502,2008,1000,1505,1000,1505,1010,1745,1000,1990,0.1461,0.0156,-0.0711,-0.0443,-0.0254,0.9887,1.3963,0.0752,-1.3911,-0.0804,1.8393,0.3414,0.2698,1.8393,0.3414,0.2698,0.3000,0.0600,0.0002,0,-0.5000,-100.0000,-0.0500,-0.5000,-100.0000,-0.0500,20.1355,61.2528,-0.0300,0.2700,0.0000,0.0000,0.0000,0.0000,0.0000,0.0000
-31.2996,41.5946,-12.7622,0.0829,0.0821,-0.1200,1.6200,0.9600,0.0000,0.6583,-0.7352,0.0026,996,1497,1527,1502,2008,1000,1505,1000,1505,1010,1746,1000,1991,0.2259,0.0036,-0.0829,-0.0405,-0.0258,0.9876,1.3962,0.0743,-1.3909,-0.0796,1.8393,0.3418,0.2698,1.8393,0.3418,0.2698,0.3000,0.0600,0.0002,0,-0.5000,-100.0000,-0.0500,-0.5000,-100.0000,-0.0500,20.1642,61.2838,-0.0200,0.2700,0.0000,0.0000,0.0000,0.0000,0.0000,0.0000
-31.2662,41.5687,-12.7420,0.0829,-0.0000,-0.1800,1.6200,0.6400,0.0000,0.6565,-0.7350,0.0024,996,1497,1527,1502,2008,1000,1505,1000,1505,1010,1746,1000,1991,0.2513,0.0925,-0.0018,-0.0431,-0.0250,0.9874,1.3939,0.0761,-1.3891,-0.0809,1.8393,0.3418,0.2698,1.8393,0.3418,0.2698,0.3000,0.0600,0.0002,0,-0.5000,-100.0000,-0.0500,-0.5000,-100.0000,-0.0500,20.1928,61.3147,-0.0300,0.2700,0.0000,0.0000,0.0000,0.0000,0.0000,0.0000
-31.2326,41.5427,-12.7215,0.0829,-0.0000,-0.1800,1.6200,0.6400,0.0000,0.6560,-0.7343,0.0025,996,1497,1527,1502,2008,1000,1505,1000,1505,1010,1745,1000,1991,0.1721,-0.0071,-0.0295,-0.0432,-0.0269,0.9895,1.3927,0.0758,-1.3878,-0.0807,1.8393,0.3414,0.2698,1.8393,0.3414,0.2698,0.3000,0.0600,0.0002,0,-0.5000,-100.0000,-0.0500,-0.5000,-100.0000,-0.0500,20.2214,61.3457,-0.0300,0.2700,0.0000,0.0000,0.0000,0.0000,0.0000,0.0000
-31.1991,41.5168,-12.7010,0.0829,-0.0000,-0.1800,1.6200,0.6400,0.0000,0.6554,-0.7339,0.0025,996,1497,1527,1502,2008,1000,1505,1000,1505,1010,1745,1000,1991,0.1711,0.0414,-0.0470,-0.0393,-0.0257,0.9879,1.3919,0.0760,-1.3868,-0.0811,1.8393,0.3414,0.2698,1.8393,0.3414,0.2698,0.3000,0.0600,0.0002,0,-0.5000,-100.0000,-0.0500,-0.5000,-100.0000,-0.0500,20.2500,61.3767,-0.0300,0.2700,0.0000,0.0000,0.0000,0.0000,0.0000,0.0000
-31.1659,41.4906,-12.6811,0.0829,-0.0000,-0.1800,1.6200,0.6400,0.0000,0.6548,-0.7333,0.0026,996,1497,1527,1502,2008,1000,1505,1000,1505,1010,1745,1000,1991,0.1859,-0.0243,-0.0737,-0.0450,-0.0256,0.9880,1.3906,0.0759,-1.3854,-0.0811,1.8393,0.3414,0.2698,1.8393,0.3414,0.2698,0.3000,0.0600,0.0002,0,-0.5000,-100.0000,-0.0500,-0.5000,-100.0000,-0.0500,20.2785,61.4076,-0.0300,0.2700,0.0000,0.0000,0.0000,0.0000,0.0000,0.0000
-31.1325,41.4641,-12.6605,0.0829,-0.0000,-0.1800,1.6200,0.6400,0.0000,0.6541,-0.7330,0.0024,996,1497,1527,1502,2008,1000,1505,1000,1505,1010,1745,1000,1991,0.1908,0.0457,0.0124,-0.0429,-0.0245,0.9867,1.3894,0.0765,-1.3847,-0.0812,1.8393,0.3414,0.2698,1.8393,0.3414,0.2698,0.3000,0.0600,0.0002,0,-0.5000,-100.0000,-0.0500,-0.5000,-100.0000,-0.0500,20.3071,61.4386,-0.0300,0.2700,0.0000,0.0000,0.0000,0.0000,0.0000,0.0000
-31.0990,41.4378,-12.6404,0.0829,-0.0000,-0.1200,1.6200,0.9600,0.0000,0.6547,-0.7324,0.0026,996,1497,1527,1502,2008,1000,1505,1000,1505,1010,1746,1000,1990,0.1990,0.0297,-0.0648,-0.0449,-0.0259,0.9889,1.3898,0.0751,-1.3845,-0.0804,1.8393,0.3418,0.2698,1.8393,0.3418,0.2698,0.3000,0.0600,0.0002,0,-0.5000,-100.0000,-0.0500,-0.5000,-100.0000,-0.0500,20.3356,61.4696,-0.0200,0.2700,0.0000,0.0000,0.0000,0.0000,0.0000,0.0000
-31.0662,41.4116,-12.6210,0.0829,-0.0000,-0.1800,1.6200,0.6400,0.0000,0.6529,-0.7321,0.0028,996,1497,1527,1502,2008,1000,1505,1000,1505,1010,1745,1000,1991,0.1845,0.1016,-0.1161,-0.0444,-0.0258,0.9866,1.3878,0.0765,-1.3823,-0.0820,1.8393,0.3414,0.2698,1.8393,0.3414,0.2698,0.3000,0.0600,0.0002,0,-0.5000,-100.0000,-0.0500,-0.5000,-100.0000,-0.0500,20.3641,61.5006,-0.0300,0.2700,0.0000,0.0000,0.0000,0.0000,0.0000,0.0000
-31.0340,41.3851,-12.6021,0.0829,0.0821,-0.1800,1.6200,0.6400,0.0000,0.6522,-0.7316,0.0028,996,1497,1527,1502,2008,1000,1505,1000,1505,1010,1745,1000,1991,0.2210,0.0756,-0.1131,-0.0449,-0.0251,0.9927,1.3866,0.0766,-1.3811,-0.0821,1.8393,0.3414,0.2698,1.8393,0.3414,0.2698,0.3000,0.0600,0.0002,0,-0.5000,-100.0000,-0.0500,-0.5000,-100.0000,-0.0500,20.3926,61.5316,-0.0300,0.2700,0.0000,0.0000,0.0000,0.0000,0.0000,0.0000
-31.0017,41.3589,-12.5831,0.0829,-0.0000,-0.1800,1.6200,0.6400,0.0000,0.6519,-0.7309,0.0027,996,1497,1527,1502,2008,1000,1505,1000,1505,1010,1746,1000,1990,0.1511,0.0105,-0.0863,-0.0433,-0.0271,0.9872,1.3855,0.0763,-1.3802,-0.0817,1.8393,0.3418,0.2698,1.8393,0.3418,0.2698,0.3000,0.0600,0.0002,0,-0.5000,-100.0000,-0.0500,-0.5000,-100.0000,-0.0500,20.4210,61.5626,-0.0300,0.2700,0.0000,0.0000,0.0000,0.0000,0.0000,0.0000
-30.9688,41.3328,-12.5630,0.0829,0.0821,-0.1800,1.6200,0.6400,0.0000,0.6513,-0.7305,0.0026,996,1497,1527,1502,2008,1000,1505,1000,1505,1010,1746,1000,1990,0.1618,0.0136,-0.0497,-0.0418,-0.0273,0.9845,1.3844,0.0765,-1.3791,-0.0818,1.8393,0.3418,0.2698,1.8393,0.3418,0.2698,0.3000,0.0600,0.0002,0,-0.5000,-100.0000,-0.0500,-0.5000,-100.0000,-0.0500,20.4495,61.5936,-0.0300,0.2700,0.0000,0.0000,0.0000,0.0000,0.0000,0.0000
-30.9360,41.3062,-12.5430,-0.0000,-0.0000,-0.1800,1.6200,0.6400,0.0000,0.6507,-0.7298,0.0026,996,1497,1527,1502,2008,1000,1505,1000,1505,1010,1746,1000,1991,0.1468,-0.0649,-0.0572,-0.0472,-0.0267,0.9885,1.3831,0.0765,-1.3779,-0.0816,1.8393,0.3418,0.2698,1.8393,0.3418,0.2698,0.3000,0.0600,0.0002,0,-0.5000,-100.0000,-0.0500,-0.5000,-100.0000,-0.0500,20.4778,61.6245,-0.0300,0.2700,0.0000,0.0000,0.0000,0.0000,0.0000,0.0000
-30.9024,41.2796,-12.5229,0.0829,0.0821,-0.1200,1.6200,0.9600,0.0000,0.6509,-0.7296,0.0025,996,1497,1527,1502,2008,1000,1505,1000,1505,1010,1746,1000,1990,0.2564,0.0509,-0.0016,-0.0412,-0.0265,0.9909,1.3830,0.0762,-1.3781,-0.0811,1.8393,0.3418,0.2698,1.8393,0.3418,0.2698,0.3000,0.0600,0.0002,0,-0.5000,-100.0000,-0.0500,-0.5000,-100.0000,-0.0500,20.5062,61.6555,-0.0200,0.2700,0.0000,0.0000,0.0000,0.0000,0.0000,0.0000
-30.8693,41.2538,-12.5034,0.0829,-0.0000,-0.1800,1.6200,0.6400,0.0000,0.6492,-0.7293,0.0028,996,1497,1527,1502,2008,1000,1505,1000,1505,1010,1746,1000,1990,0.2495,0.1216,-0.1019,-0.0439,-0.0248,0.9898,1.3813,0.0773,-1.3757,-0.0829,1.8393,0.3418,0.2698,1.8393,0.3418,0.2698,0.3000,0.0600,0.0002,0,-0.5000,-100.0000,-0.0500,-0.5000,-100.0000,-0.0500,20.5345,61.6865,-0.0300,0.2700,0.0000,0.0000,0.0000,0.0000,0.0000,0.0000
-30.8364,41.2279,-12.4845,0.1657,0.0821,-0.1800,1.6200,0.6400,0.0000,0.6486,-0.7287,0.0028,996,1497,1527,1502,2008,1000,1505,1000,1505,1010,1745,1000,1991,0.2123,0.0830,-0.1292,-0.0427,-0.0273,0.9896,1.3802,0.0773,-1.3745,-0.0829,1.8393,0.3414,0.2698,1.8393,0.3414,0.2698,0.3000,0.0600,0.0002,0,-0.5000,-100.0000,-0.0500,-0.5000,-100.0000,-0.0500,20.5629,61.7175,-0.0300,0.2700,0.0000,0.0000,0.0000,0.0000,0.0000,0.0000
-30.8032,41.2017,-12.4649,0.0829,-0.0000,-0.1800,1.6200,0.6400,0.0000,0.6478,-0.7280,0.0027,996,1497,1527,1502,2008,1000,1505,1000,1505,1010,1745,1000,1991,0.2876,0.0054,-0.0733,-0.0415,-0.0282,0.9887,1.3785,0.0775,-1.3732,-0.0829,1.8393,0.3414,0.2698,1.8393,0.3414,0.2698,0.3000,0.0600,0.0002,0,-0.5000,-100.0000,-0.0500,-0.5000,-100.0000,-0.0500,20.5913,61.7486,-0.0300,0.2700,0.0000,0.0000,0.0000,0.0000,0.0000,0.0000
-30.7698,41.1751,-12.4449,0.0829,-0.0000,-0.1800,1.6200,0.6400,0.0000,0.6475,-0.7274,0.0025,996,1497,1527,1502,2008,1000,1505,1000,1505,1010,1746,1000,1991,0.2004,-0.0556,-0.0294,-0.0439,-0.0253,0.9866,1.3774,0.0773,-1.3724,-0.0823,1.8393,0.3418,0.2698,1.8393,0.3418,0.2698,0.3000,0.0600,0.0002,0,-0.5000,-100.0000,-0.0500,-0.5000,-100.0000,-0.0500,20.6196,61.7797,-0.0300,0.2700,0.0000,0.0000,0.0000,0.0000,0.0000,0.0000
-30.7365,41.1482,-12.4242,-0.0000,-0.0000,-0.1800,1.6200,0.6400,0.0000,0.6468,-0.7271,0.0029,996,1497,1527,1502,2008,1000,1505,1000,1505,1010,1746,1000,1991,0.2287,0.0092,-0.1296,-0.0448,-0.0249,0.9857,1.3768,0.0773,-1.3710,-0.0831,1.8393,0.3418,0.2698,1.8393,0.3418,0.2698,0.3000,0.0600,0.0002,0,-0.5000,-100.0000,-0.0500,-0.5000,-100.0000,-0.0500,20.6479,61.8107,-0.0300,0.2700,0.0000,0.0000,0.0000,0.0000,0.0000,0.0000
-30.7039,41.1217,-12.4052,0.0829,-0.0000,-0.1200,1.6200,0.9600,0.0000,0.6475,-0.7266,0.0027,996,1497,1527,1502,2008,1000,1505,1000,1505,1010,1746,1000,1990,0.1908,0.0324,-0.0906,-0.0451,-0.0268,0.9878,1.3768,0.0765,-1.3714,-0.0819,1.8393,0.3418,0.2698,1.8393,0.3418,0.2698,0.3000,0.0600,0.0002,0,-0.5000,-100.0000,-0.0500,-0.5000,-100.0000,-0.0500,20.6762,61.8418,-0.0200,0.2700,0.0000,0.0000,0.0000,0.0000,0.0000,0.0000
-30.6704,41.0958,-12.3852,-0.0000,-0.0000,-0.1800,1.6200,0.6400,0.0000,0.6456,-0.7262,0.0026,996,1497,1527,1502,2008,1000,1505,1000,1505,1010,1746,1000,1990,0.2524,0.0458,-0.0447,-0.0451,-0.0259,0.9857,1.3744,0.0780,-1.3691,-0.0832,1.8393,0.3418,0.2698,1.8393,0.3418,0.2698,0.3000,0.0600,0.0002,0,-0.5000,-100.0000,-0.0500,-0.5000,-100.0000,-0.0500,20.7045,61.8729,-0.0300,0.2700,0.0000,0.0000,0.0000,0.0000,0.0000,0.0000
-30.6370,41.0692,-12.3653,0.1657,-0.0000,-0.1800,1.6200,0.6400,0.0000,0.6451,-0.7255,0.0025,996,1497,1527,1502,2008,1000,1505,1000,1505,1010,1746,1000,1990,0.1944,-0.0113,-0.0330,-0.0422,-0.0254,0.9874,1.3732,0.0779,-1.3681,-0.0830,1.8393,0.3418,0.2698,1.8393,0.3418,0.2698,0.3000,0.0600,0.0002,0,-0.5000,-100.0000,-0.0500,-0.5000,-100.0000,-0.0500,20.7328,61.9039,-0.0300,0.2700,0.0000,0.0000,0.0000,0.0000,0.0000,0.0000
-30.6045,41.0429,-12.3456,0.0829,-0.0000,-0.1800,1.6200,0.6400,0.0000,0.6446,-0.7254,0.0028,996,1497,1527,1502,2008,1000,1505,1000,1505,1010,1746,1000,1991,0.1653,0.0988,-0.1066,-0.0419,-0.0251,0.9917,1.3728,0.0779,-1.3671,-0.0836,1.8393,0.3418,0.2698,1.8393,0.3418,0.2698,0.3000,0.0600,0.0002,0,-0.5000,-100.0000,-0.0500,-0.5000,-100.0000,-0.0500,20.7609,61.9349,-0.0300,0.2700,0.0000,0.0000,0.0000,0.0000,0.0000,0.0000
-30.5721,41.0168,-12.3264,0.0829,-0.0000,-0.1800,1.6200,0.6400,0.0000,0.6440,-0.7246,0.0027,996,1497,1527,1502,2008,1000,1505,1000,1505,1010,1746,1000,1991,0.1774,-0.0025,-0.0683,-0.0434,-0.0261,0.9819,1.3712,0.0780,-1.3659,-0.0833,1.8393,0.3418,0.2698,1.8393,0.3418,0.2698,0.3000,0.0600,0.0002,0,-0.5000,-100.0000,-0.0500,-0.5000,-100.0000,-0.0500,20.7891,61.9659,-0.0300,0.2700,0.0000,0.0000,0.0000,0.0000,0.0000,0.0000
-30.5389,40.9895,-12.3064,0.0829,-0.0000,-0.1800,1.6200,0.6400,0.0000,0.6432,-0.7237,0.0030,996,1497,1527,1502,2008,1000,1505,1000,1505,1010,1745,1000,1990,0.2066,-0.1404,-0.1626,-0.0450,-0.0264,0.9870,1.3699,0.0776,-1.3639,-0.0836,1.8393,0.3414,0.2698,1.8393,0.3414,0.2698,0.3000,0.0600,0.0002,0,-0.5000,-100.0000,-0.0500,-0.5000,-100.0000,-0.0500,20.8172,61.9968,-0.0300,0.2700,0.0000,0.0000,0.0000,0.0000,0.0000,0.0000
-30.5053,40.9620,-12.2859,-0.0000,-0.0000,-0.1200,1.6200,0.9600,0.0000,0.6437,-0.7236,0.0027,996,1497,1527,1502,2008,1000,1505,1000,1505,1010,1746,1000,1991,0.2145,0.0094,-0.0418,-0.0438,-0.0258,0.9878,1.3700,0.0772,-1.3647,-0.0826,1.8393,0.3418,0.2698,1.8393,0.3418,0.2698,0.3000,0.0600,0.0002,0,-0.5000,-100.0000,-0.0500,-0.5000,-100.0000,-0.0500,20.8453,62.0278,-0.0200,0.2700,0.0000,0.0000,0.0000,0.0000,0.0000,0.0000
-30.4726,40.9357,-12.2662,-0.0000,-0.0000,-0.1800,1.6200,0.6400,0.0000,0.6421,-0.7232,0.0028,996,1497,1527,1502,2008,1000,1505,1000,1505,1010,1746,1000,1991,0.1735,0.0149,-0.0810,-0.0457,-0.0270,0.9850,1.3681,0.0782,-1.3625,-0.0838,1.8393,0.3418,0.2698,1.8393,0.3418,0.2698,0.3000,0.0600,0.0002,0,-0.5000,-100.0000,-0.0500,-0.5000,-100.0000,-0.0500,20.8734,62.0588,-0.0300,0.2700,0.0000,0.0000,0.0000,0.0000,0.0000,0.0000
-30.4399,40.9090,-12.2466,0.1657,0.0821,-0.1800,1.6200,0.6400,0.0000,0.6415,-0.7228,0.0027,996,1497,1527,1502,2008,1000,1505,1000,1505,1010,1746,1000,1991,0.1799,0.0695,-0.0805,-0.0394,-0.0261,0.9911,1.3671,0.0786,-1.3616,-0.0840,1.8393,0.3418,0.2698,1.8393,0.3418,0.2698,0.3000,0.0600,0.0002,0,-0.5000,-100.0000,-0.0500,-0.5000,-100.0000,-0.0500,20.9015,62.0898,-0.0300,0.2700,0.0000,0.0000,0.0000,0.0000,0.0000,0.0000
-30.4069,40.8827,-12.2270,0.0829,-0.0000,-0.1800,1.6200,0.6400,0.0000,0.6408,-0.7225,0.0027,996,1497,1527,1502,2008,1000,1505,1000,1505,1010,1746,1000,1991,0.2270,0.1324,-0.0738,-0.0415,-0.0250,0.9906,1.3660,0.0790,-1.3606,-0.0844,1.8393,0.3418,0.2698,1.8393,0.3418,0.2698,0.3000,0.0600,0.0002,0,-0.5000,-100.0000,-0.0500,-0.5000,-100.0000,-0.0500,20.9295,62.1208,-0.0300,0.2700,0.0000,0.0000,0.0000,0.0000,0.0000,0.0000
-30.3738,40.8562,-12.2073,0.0829,-0.0000,-0.1800,1.6200,0.6400,0.0000,0.6401,-0.7217,0.0026,996,1497,1527,1502,2008,1000,1505,1000,1505,1010,1745,1000,1990,0.2229,0.0220,-0.0377,-0.0433,-0.0273,0.9884,1.3644,0.0791,-1.3592,-0.0842,1.8393,0.3414,0.2698,1.8393,0.3414,0.2698,0.3000,0.0600,0.0002,0,-0.5000,-100.0000,-0.0500,-0.5000,-100.0000,-0.0500,20.9576,62.1518,-0.0300,0.2700,0.0000,0.0000,0.0000,0.0000,0.0000,0.0000
-30.3401,40.8294,-12.1869,0.1657,-0.0000,-0.1800,1.6200,0.6400,0.0000,0.6395,-0.7213,0.0027,996,1497,1527,1502,2008,1000,1505,1000,1505,1010,1745,1000,1990,0.2108,0.0592,-0.0712,-0.0441,-0.0255,0.9924,1.3636,0.0791,-1.3581,-0.0846,1.8393,0.3414,0.2698,1.8393,0.3414,0.2698,0.3000,0.0600,0.0002,0,-0.5000,-100.0000,-0.0500,-0.5000,-100.0000,-0.0500,20.9855,62.1828,-0.0300,0.2700,0.0000,0.0000,0.0000,0.0000,0.0000,0.0000
-30.3073,40.8031,-12.1670,-0.0000,-0.0000,-0.1200,1.6200,0.9600,0.0000,0.6402,-0.7207,0.0028,996,1497,1527,1502,2008,1000,1505,1000,1505,1010,1746,1000,1991,0.1836,0.0080,-0.0836,-0.0458,-0.0189,0.9840,1.3637,0.0777,-1.3581,-0.0833,1.8393,0.3418,0.2698,1.8393,0.3418,0.2698,0.3000,0.0600,0.0002,0,-0.5000,-100.0000,-0.0500,-0.5000,-100.0000,-0.0500,21.0135,62.2138,-0.0200,0.2700,0.0000,0.0000,0.0000,0.0000,0.0000,0.0000
-30.2740,40.7762,-12.1471,0.0829,0.0821,-0.1800,1.6200,0.6400,0.0000,0.6384,-0.7200,0.0025,996,1497,1527,1502,2008,1000,1505,1000,1505,1010,1746,1000,1990,0.1949,-0.0696,0.0009,-0.0422,-0.0256,0.9875,1.3610,0.0790,-1.3559,-0.0841,1.8393,0.3418,0.2698,1.8393,0.3418,0.2698,0.3000,0.0600,0.0002,0,-0.5000,-100.0000,-0.0500,-0.5000,-100.0000,-0.0500,21.0415,62.2448,-0.0300,0.2700,0.0000,0.0000,0.0000,0.0000,0.0000,0.0000
-30.2408,40.7494,-12.1276,0.0829,-0.0000,-0.1800,1.6200,0.6400,0.0000,0.6377,-0.7198,0.0026,996,1497,1527,1502,2008,1000,1505,1000,1505,1010,1746,1000,1990,0.2488,0.0214,-0.0004,-0.0418,-0.0273,0.9889,1.3600,0.0795,-1.3549,-0.0846,1.8393,0.3418,0.2698,1.8393,0.3418,0.2698,0.3000,0.0600,0.0002,0,-0.5000,-100.0000,-0.0500,-0.5000,-100.0000,-0.0500,21.0694,62.2759,-0.0300,0.2700,0.0000,0.0000,0.0000,0.0000,0.0000,0.0000
-30.2075,40.7227,-12.1078,-0.0000,-0.0000,-0.1800,1.6200,0.6400,0.0000,0.6370,-0.7195,0.0027,996,1497,1527,1502,2008,1000,1505,1000,1505,1010,1745,1000,1990,0.2196,0.1127,-0.0470,-0.0430,-0.0266,0.9866,1.3592,0.0798,-1.3539,-0.0851,1.8393,0.3414,0.2698,1.8393,0.3414,0.2698,0.3000,0.0600,0.0002,0,-0.5000,-100.0000,-0.0500,-0.5000,-100.0000,-0.0500,21.0974,62.3070,-0.0300,0.2700,0.0000,0.0000,0.0000,0.0000,0.0000,0.0000
-30.1756,40.6967,-12.0891,0.0829,-0.0000,-0.1800,1.6200,0.6400,0.0000,0.6366,-0.7190,0.0028,996,1497,1527,1502,2008,1000,1505,1000,1505,1010,1745,1000,1990,0.1591,0.0916,-0.0759,-0.0449,-0.0260,0.9886,1.3584,0.0796,-1.3528,-0.0851,1.8393,0.3414,0.2698,1.8393,0.3414,0.2698,0.3000,0.0600,0.0002,0,-0.5000,-100.0000,-0.0500,-0.5000,-100.0000,-0.0500,21.1253,62.3381,-0.0300,0.2700,0.0000,0.0000,0.0000,0.0000,0.0000,0.0000
-30.1427,40.6701,-12.0695,-0.0000,-0.0000,-0.1800,1.6200,0.6400,0.0000,0.6359,-0.7183,0.0028,996,1497,1527,1502,2008,1000,1505,1000,1505,1010,1745,1000,1991,0.1875,0.0361,-0.0674,-0.0449,-0.0238,0.9891,1.3570,0.0796,-1.3515,-0.0852,1.8393,0.3414,0.2698,1.8393,0.3414,0.2698,0.3000,0.0600,0.0002,0,-0.5000,-100.0000,-0.0500,-0.5000,-100.0000,-0.0500,21.1533,62.3692,-0.0300,0.2700,0.0000,0.0000,0.0000,0.0000,0.0000,0.0000
-30.1100,40.6432,-12.0498,0.0829,-0.0000,-0.1200,1.6200,0.9600,0.0000,0.6365,-0.7180,0.0027,996,1497,1527,1502,2008,1000,1505,1000,1505,1010,1745,1000,1991,0.1813,0.0836,-0.0546,-0.0454,-0.0237,0.9897,1.3572,0.0788,-1.3517,-0.0843,1.8393,0.3414,0.2698,1.8393,0.3414,0.2698,0.3000,0.0600,0.0002,0,-0.5000,-100.0000,-0.0500,-0.5000,-100.0000,-0.0500,21.1812,62.4003,-0.0200,0.2700,0.0000,0.0000,0.0000,0.0000,0.0000,0.0000
-30.0769,40.6169,-12.0302,0.0829,0.0821,-0.1800,1.6200,0.6400,0.0000,0.6347,-0.7174,0.0026,996,1497,1527,1502,2008,1000,1505,1000,1505,1010,1745,1000,1991,0.1878,0.0437,-0.0298,-0.0449,-0.0244,0.9854,1.3547,0.0800,-1.3495,-0.0853,1.8393,0.3414,0.2698,1.8393,0.3414,0.2698,0.3000,0.0600,0.0002,0,-0.5000,-100.0000,-0.0500,-0.5000,-100.0000,-0.0500,21.2090,62.4314,-0.0300,0.2700,0.0000,0.0000,0.0000,0.0000,0.0000,0.0000
-30.0443,40.5902,-12.0105,-0.0000,-0.0821,-0.1800,1.6200,0.6400,0.0000,0.6342,-0.7169,0.0027,996,1497,1527,1502,2008,1000,1505,1000,1505,1010,1746,1000,1991,0.1822,0.0437,-0.0611,-0.0425,-0.0231,0.9848,1.3539,0.0799,-1.3484,-0.0854,1.8393,0.3418,0.2698,1.8393,0.3418,0.2698,0.3000,0.0600,0.0002,0,-0.5000,-100.0000,-0.0500,-0.5000,-100.0000,-0.0500,21.2369,62.4625,-0.0300,0.2700,0.0000,0.0000,0.0000,0.0000,0.0000,0.0000
-30.0109,40.5637,-11.9902,0.0829,-0.0821,-0.1800,1.6200,0.6400,0.0000,0.6337,-0.7164,0.0025,996,1497,1527,1502,2008,1000,1505,1000,1505,1010,1746,1000,1991,0.1629,0.0485,0.0257,-0.0457,-0.0240,0.9916,1.3526,0.0802,-1.3476,-0.0852,1.8393,0.3418,0.2698,1.8393,0.3418,0.2698,0.3000,0.0600,0.0002,0,-0.5000,-100.0000,-0.0500,-0.5000,-100.0000,-0.0500,21.2647,62.4937,-0.0300,0.2700,0.0000,0.0000,0.0000,0.0000,0.0000,0.0000
-29.9782,40.5377,-11.9709,0.0829,-0.0000,-0.1800,1.6200,0.6400,0.0000,0.6328,-0.7162,0.0027,996,1497,1527,1502,2008,1000,1505,1000,1505,1010,1745,1000,1991,0.2145,0.1497,-0.0280,-0.0455,-0.0245,0.9850,1.3517,0.0807,-1.3463,-0.0861,1.8393,0.3414,0.2698,1.8393,0.3414,0.2698,0.3000,0.0600,0.0002,0,-0.5000,-100.0000,-0.0500,-0.5000,-100.0000,-0.0500,21.2925,62.5248,-0.0300,0.2700,0.0000,0.0000,0.0000,0.0000,0.0000,0.0000
-29.9457,40.5113,-11.9513,0.0829,-0.0000,-0.1800,1.6200,0.6400,0.0000,0.6325,-0.7153,0.0026,996,1497,1527,1502,2008,1000,1505,1000,1505,1010,1745,1000,1991,0.1258,-0.0106,-0.0181,-0.0431,-0.0235,0.9900,1.3504,0.0802,-1.3452,-0.0854,1.8393,0.3414,0.2698,1.8393,0.3414,0.2698,0.3000,0.0600,0.0002,0,-0.5000,-100.0000,-0.0500,-0.5000,-100.0000,-0.0500,21.3202,62.5558,-0.0300,0.2700,0.0000,0.0000,0.0000,0.0000,0.0000,0.0000
-29.9132,40.4845,-11.9316,0.0829,-0.0000,-0.1200,1.6200,0.9600,0.0000,0.6328,-0.7150,0.0029,996,1497,1527,1502,2008,1000,1505,1000,1505,1010,1745,1000,1990,0.1905,0.0848,-0.1029,-0.0449,-0.0253,0.9888,1.3508,0.0793,-1.3449,-0.0852,1.8393,0.3414,0.2698,1.8393,0.3414,0.2698,0.3000,0.0600,0.0002,0,-0.5000,-100.0000,-0.0500,-0.5000,-100.0000,-0.0500,21.3479,62.5868,-0.0200,0.2700,0.0000,0.0000,0.0000,0.0000,0.0000,0.0000
-29.8809,40.4578,-11.9126,0.0829,-0.0000,-0.1800,1.6200,0.6400,0.0000,0.6311,-0.7146,0.0028,996,1497,1527,1502,2008,1000,1505,1000,1505,1010,1745,1000,1991,0.2108,0.1002,-0.0673,-0.0423,-0.0272,0.9884,1.3484,0.0808,-1.3429,-0.0863,1.8393,0.3414,0.2698,1.8393,0.3414,0.2698,0.3000,0.0600,0.0002,0,-0.5000,-100.0000,-0.0500,-0.5000,-100.0000,-0.0500,21.3755,62.6178,-0.0300,0.2700,0.0000,0.0000,0.0000,0.0000,0.0000,0.0000
-29.8479,40.4307,-11.8933,0.1657,-0.0000,-0.1800,1.6200,0.6400,0.0000,0.6305,-0.7136,0.0027,996,1497,1527,1502,2008,1000,1505,1000,1505,1010,1745,1000,1991,0.1975,-0.0858,-0.0446,-0.0477,-0.0266,0.9871,1.3468,0.0804,-1.3413,-0.0859,1.8393,0.3414,0.2698,1.8393,0.3414,0.2698,0.3000,0.0600,0.0002,0,-0.5000,-100.0000,-0.0500,-0.5000,-100.0000,-0.0500,21.4031,62.6488,-0.0300,0.2700,0.0000,0.0000,0.0000,0.0000,0.0000,0.0000
-29.8149,40.4036,-11.8733,0.0829,-0.0000,-0.1800,1.6200,0.6400,0.0000,0.6299,-0.7134,0.0028,996,1497,1527,1502,2008,1000,1505,1000,1505,1010,1746,1000,1990,0.2126,0.0183,-0.0538,-0.0441,-0.0252,0.9887,1.3461,0.0807,-1.3406,-0.0862,1.8393,0.3418,0.2698,1.8393,0.3418,0.2698,0.3000,0.0600,0.0002,0,-0.5000,-100.0000,-0.0500,-0.5000,-100.0000,-0.0500,21.4307,62.6798,-0.0300,0.2700,0.0000,0.0000,0.0000,0.0000,0.0000,0.0000
-29.7822,40.3763,-11.8542,0.1657,0.0821,-0.1800,1.6200,0.6400,0.0000,0.6294,-0.7129,0.0030,996,1497,1527,1502,2008,1000,1505,1000,1505,1010,1746,1000,1990,0.1720,0.0109,-0.1357,-0.0424,-0.0240,0.9866,1.3453,0.0804,-1.3393,-0.0864,1.8393,0.3418,0.2698,1.8393,0.3418,0.2698,0.3000,0.0600,0.0002,0,-0.5000,-100.0000,-0.0500,-0.5000,-100.0000,-0.0500,21.4583,62.7106,-0.0300,0.2700,0.0000,0.0000,0.0000,0.0000,0.0000,0.0000
-29.7500,40.3492,-11.8351,0.0829,-0.0000,-0.1800,1.6200,0.6400,0.0000,0.6290,-0.7124,0.0027,996,1497,1527,1502,2008,1000,1505,1000,1505,1010,1746,1000,1990,0.1222,0.0103,-0.0330,-0.0423,-0.0246,0.9909,1.3441,0.0807,-1.3386,-0.0861,1.8393,0.3418,0.2698,1.8393,0.3418,0.2698,0.3000,0.0600,0.0002,0,-0.5000,-100.0000,-0.0500,-0.5000,-100.0000,-0.0500,21.4857,62.7415,-0.0300,0.2700,0.0000,0.0000,0.0000,0.0000,0.0000,0.0000
-29.7174,40.3223,-11.8149,0.0829,-0.0000,-0.1200,1.6200,0.9600,0.0000,0.6292,-0.7118,0.0027,996,1497,1527,1502,2008,1000,1505,1000,1505,1010,1745,1000,1991,0.1761,-0.0001,-0.0390,-0.0429,-0.0245,0.9872,1.3438,0.0799,-1.3383,-0.0853,1.8393,0.3414,0.2698,1.8393,0.3414,0.2698,0.3000,0.0600,0.0002,0,-0.5000,-100.0000,-0.0500,-0.5000,-100.0000,-0.0500,21.5132,62.7724,-0.0200,0.2700,0.0000,0.0000,0.0000,0.0000,0.0000,0.0000
-29.6848,40.2956,-11.7955,0.0829,-0.0000,-0.1800,1.6200,0.6400,0.0000,0.6275,-0.7114,0.0026,996,1497,1527,1502,2008,1000,1505,1000,1505,1010,1745,1000,1991,0.2040,0.0046,0.0007,-0.0412,-0.0259,0.9904,1.3414,0.0813,-1.3362,-0.0865,1.8393,0.3414,0.2698,1.8393,0.3414,0.2698,0.3000,0.0600,0.0002,0,-0.5000,-100.0000,-0.0500,-0.5000,-100.0000,-0.0500,21.5406,62.8033,-0.0300,0.2700,0.0000,0.0000,0.0000,0.0000,0.0000,0.0000
-29.6511,40.2690,-11.7748,0.0829,-0.0000,-0.1800,1.6200,0.6400,0.0000,0.6267,-0.7110,0.0027,996,1497,1527,1502,2008,1000,1505,1000,1505,1010,1746,1000,1991,0.2969,0.0521,0.0055,-0.0448,-0.0242,0.9859,1.3404,0.0816,-1.3350,-0.0870,1.8393,0.3418,0.2698,1.8393,0.3418,0.2698,0.3000,0.0600,0.0002,0,-0.5000,-100.0000,-0.0500,-0.5000,-100.0000,-0.0500,21.5681,62.8342,-0.0300,0.2700,0.0000,0.0000,0.0000,0.0000,0.0000,0.0000
-29.6183,40.2429,-11.7557,0.0829,-0.0000,-0.1800,1.6200,0.6400,0.0000,0.6264,-0.7107,0.0026,996,1497,1527,1502,2008,1000,1505,1000,1505,1010,1746,1000,1991,0.1726,0.1212,0.0190,-0.0447,-0.0280,0.9880,1.3397,0.0817,-1.3346,-0.0868,1.8393,0.3418,0.2698,1.8393,0.3418,0.2698,0.3000,0.0600,0.0002,0,-0.5000,-100.0000,-0.0500,-0.5000,-100.0000,-0.0500,21.5955,62.8652,-0.0300,0.2700,0.0000,0.0000,0.0000,0.0000,0.0000,0.0000
-29.5865,40.2167,-11.7369,0.0829,0.0821,-0.1800,1.6200,0.6400,0.0000,0.6259,-0.7100,0.0028,996,1497,1527,1502,2008,1000,1505,1000,1505,1010,1746,1000,1990,0.1342,0.0451,-0.0642,-0.0433,-0.0253,0.9822,1.3388,0.0812,-1.3331,-0.0869,1.8393,0.3418,0.2698,1.8393,0.3418,0.2698,0.3000,0.0600,0.0002,0,-0.5000,-100.0000,-0.0500,-0.5000,-100.0000,-0.0500,21.6229,62.8962,-0.0300,0.2700,0.0000,0.0000,0.0000,0.0000,0.0000,0.0000
-29.5542,40.1902,-11.7181,0.0829,-0.0000,-0.1800,1.6200,0.6400,0.0000,0.6252,-0.7096,0.0028,996,1497,1527,1502,2008,1000,1505,1000,1505,1010,1746,1000,1990,0.1974,0.0711,-0.0487,-0.0450,-0.0273,0.9911,1.3375,0.0817,-1.3320,-0.0872,1.8393,0.3418,0.2698,1.8393,0.3418,0.2698,0.3000,0.0600,0.0002,0,-0.5000,-100.0000,-0.0500,-0.5000,-100.0000,-0.0500,21.6503,62.9272,-0.0300,0.2700,0.0000,0.0000,0.0000,0.0000,0.0000,0.0000
-29.5228,40.1633,-11.6995,0.1657,-0.0000,-0.1200,1.6200,0.9600,0.0000,0.6258,-0.7091,0.0030,996,1497,1527,1502,2008,1000,1505,1000,1505,1010,1745,1000,1990,0.1079,0.0869,-0.1272,-0.0441,-0.0248,0.9900,1.3380,0.0803,-1.3320,-0.0863,1.8393,0.3414,0.2698,1.8393,0.3414,0.2698,0.3000,0.0600,0.0002,0,-0.5000,-100.0000,-0.0500,-0.5000,-100.0000,-0.0500,21.6777,62.9582,-0.0200,0.2700,0.0000,0.0000,0.0000,0.0000,0.0000,0.0000
-29.4905,40.1370,-11.6807,0.0829,-0.0000,-0.1800,1.6200,0.6400,0.0000,0.6239,-0.7087,0.0027,996,1497,1527,1502,2008,1000,1505,1000,1505,1010,1746,1000,1991,0.2546,0.1057,-0.0175,-0.0420,-0.0262,0.9859,1.3353,0.0821,-1.3298,-0.0876,1.8393,0.3418,0.2698,1.8393,0.3418,0.2698,0.3000,0.0600,0.0002,0,-0.5000,-100.0000,-0.0500,-0.5000,-100.0000,-0.0500,21.7050,62.9892,-0.0300,0.2700,0.0000,0.0000,0.0000,0.0000,0.0000,0.0000
-29.4577,40.1100,-11.6619,0.0829,-0.0000,-0.1800,1.6200,0.6400,0.0000,0.6233,-0.7080,0.0029,996,1497,1527,1502,2008,1000,1505,1000,1505,1010,1746,1000,1991,0.2250,0.0137,-0.1055,-0.0437,-0.0269,0.9916,1.3342,0.0817,-1.3284,-0.0876,1.8393,0.3418,0.2698,1.8393,0.3418,0.2698,0.3000,0.0600,0.0002,0,-0.5000,-100.0000,-0.0500,-0.5000,-100.0000,-0.0500,21.7324,63.0202,-0.0300,0.2700,0.0000,0.0000,0.0000,0.0000,0.0000,0.0000
-29.4250,40.0822,-11.6426,0.0829,-0.0821,-0.1800,1.6200,0.6400,0.0000,0.6228,-0.7073,0.0028,996,1497,1527,1502,2008,1000,1505,1000,1505,1010,1745,1000,1990,0.1684,-0.0316,-0.0639,-0.0445,-0.0245,0.9873,1.3330,0.0817,-1.3273,-0.0874,1.8393,0.3414,0.2698,1.8393,0.3414,0.2698,0.3000,0.0600,0.0002,0,-0.5000,-100.0000,-0.0500,-0.5000,-100.0000,-0.0500,21.7597,63.0512,-0.0300,0.2700,0.0000,0.0000,0.0000,0.0000,0.0000,0.0000
-29.3924,40.0549,-11.6233,0.0829,-0.0000,-0.1800,1.6200,0.6400,0.0000,0.6221,-0.7071,0.0027,996,1497,1527,1502,2008,1000,1505,1000,1505,1010,1745,1000,1990,0.1927,0.0773,-0.0327,-0.0435,-0.0236,0.9846,1.3320,0.0823,-1.3265,-0.0877,1.8393,0.3414,0.2698,1.8393,0.3414,0.2698,0.3000,0.0600,0.0002,0,-0.5000,-100.0000,-0.0500,-0.5000,-100.0000,-0.0500,21.7870,63.0822,-0.0300,0.2700,0.0000,0.0000,0.0000,0.0000,0.0000,0.0000
-29.3599,40.0279,-11.6035,0.0829,-0.0000,-0.1800,1.6200,0.6400,0.0000,0.6216,-0.7064,0.0029,996,1497,1527,1502,2008,1000,1505,1000,1505,1010,1746,1000,1991,0.1843,-0.0190,-0.0714,-0.0434,-0.0238,0.9913,1.3310,0.0818,-1.3251,-0.0877,1.8393,0.3418,0.2698,1.8393,0.3418,0.2698,0.3000,0.0600,0.0002,0,-0.5000,-100.0000,-0.0500,-0.5000,-100.0000,-0.0500,21.8142,63.1133,-0.0300,0.2700,0.0000,0.0000,0.0000,0.0000,0.0000,0.0000
-29.3272,40.0006,-11.5842,0.0829,-0.0000,-0.1200,1.6200,0.9600,0.0000,0.6220,-0.7061,0.0027,996,1497,1527,1502,2008,1000,1505,1000,1505,1010,1745,1000,1991,0.1908,0.0535,-0.0161,-0.0443,-0.0251,0.9911,1.3308,0.0814,-1.3254,-0.0867,1.8393,0.3414,0.2698,1.8393,0.3414,0.2698,0.3000,0.0600,0.0002,0,-0.5000,-100.0000,-0.0500,-0.5000,-100.0000,-0.0500,21.8414,63.1443,-0.0200,0.2700,0.0000,0.0000,0.0000,0.0000,0.0000,0.0000
-29.2949,39.9735,-11.5650,-0.0000,0.0821,-0.1800,1.6200,0.6400,0.0000,0.6205,-0.7054,0.0029,996,1497,1527,1502,2008,1000,1505,1000,1505,1010,1745,1000,1991,0.1299,0.0006,-0.0727,-0.0437,-0.0264,0.9889,1.3288,0.0820,-1.3230,-0.0878,1.8393,0.3414,0.2698,1.8393,0.3414,0.2698,0.3000,0.0600,0.0002,0,-0.5000,-100.0000,-0.0500,-0.5000,-100.0000,-0.0500,21.8686,63.1753,-0.0300,0.2700,0.0000,0.0000,0.0000,0.0000,0.0000,0.0000
-29.2634,39.9465,-11.5463,0.0829,-0.0000,-0.1800,1.6200,0.6400,0.0000,0.6199,-0.7051,0.0029,996,1497,1527,1502,2008,1000,1505,1000,1505,1010,1745,1000,1990,0.1384,0.0687,-0.0669,-0.0431,-0.0251,0.9853,1.3279,0.0824,-1.3221,-0.0881,1.8393,0.3414,0.2698,1.8393,0.3414,0.2698,0.3000,0.0600,0.0002,0,-0.5000,-100.0000,-0.0500,-0.5000,-100.0000,-0.0500,21.8957,63.2063,-0.0300,0.2700,0.0000,0.0000,0.0000,0.0000,0.0000,0.0000
-29.2310,39.9194,-11.5271,0.0829,-0.0000,-0.1800,1.6200,0.6400,0.0000,0.6193,-0.7044,0.0028,996,1497,1527,1502,2008,1000,1505,1000,1505,1010,1745,1000,1990,0.1236,0.0051,-0.0291,-0.0447,-0.0285,0.9919,1.3265,0.0823,-1.3210,-0.0879,1.8393,0.3414,0.2698,1.8393,0.3414,0.2698,0.3000,0.0600,0.0002,0,-0.5000,-100.0000,-0.0500,-0.5000,-100.0000,-0.0500,21.9228,63.2372,-0.0300,0.2700,0.0000,0.0000,0.0000,0.0000,0.0000,0.0000
-29.1988,39.8918,-11.5078,0.0829,-0.0000,-0.1800,1.6200,0.6400,0.0000,0.6187,-0.7041,0.0029,996,1497,1527,1502,2008,1000,1505,1000,1505,1010,1745,1000,1990,0.1562,0.0567,-0.0854,-0.0429,-0.0260,0.9883,1.3257,0.0825,-1.3198,-0.0884,1.8393,0.3414,0.2698,1.8393,0.3414,0.2698,0.3000,0.0600,0.0002,0,-0.5000,-100.0000,-0.0500,-0.5000,-100.0000,-0.0500,21.9498,63.2682,-0.0300,0.2700,0.0000,0.0000,0.0000,0.0000,0.0000,0.0000
-29.1666,39.8645,-11.4887,0.0829,-0.0000,-0.1800,1.6200,0.6400,0.0000,0.6180,-0.7035,0.0029,996,1497,1527,1502,2008,1000,1505,1000,1505,1010,1745,1000,1990,0.1631,0.0193,-0.0489,-0.0448,-0.0233,0.9893,1.3244,0.0825,-1.3186,-0.0883,1.8393,0.3414,0.2698,1.8393,0.3414,0.2698,0.3000,0.0600,0.0002,0,-0.5000,-100.0000,-0.0500,-0.5000,-100.0000,-0.0500,21.9768,63.2991,-0.0300,0.2700,0.0000,0.0000,0.0000,0.0000,0.0000,0.0000
-29.1341,39.8368,-11.4694,-0.0000,-0.0000,-0.1200,1.6200,0.9600,0.0000,0.6186,-0.7029,0.0029,996,1497,1527,1502,2008,1000,1505,1000,1505,1010,1746,1000,1990,0.1735,-0.0069,-0.0585,-0.0439,-0.0247,0.9856,1.3244,0.0814,-1.3186,-0.0871,1.8393,0.3418,0.2698,1.8393,0.3418,0.2698,0.3000,0.0600,0.0002,0,-0.5000,-100.0000,-0.0500,-0.5000,-100.0000,-0.0500,22.0038,63.3300,-0.0200,0.2700,0.0000,0.0000,0.0000,0.0000,0.0000,0.0000
-29.1015,39.8091,-11.4504,0.0829,0.0821,-0.1800,1.6200,0.6400,0.0000,0.6166,-0.7023,0.0028,996,1497,1527,1502,2008,1000,1505,1000,1505,1010,1745,1000,1990,0.2456,-0.0290,-0.0370,-0.0448,-0.0284,0.9865,1.3217,0.0829,-1.3162,-0.0885,1.8393,0.3414,0.2698,1.8393,0.3414,0.2698,0.3000,0.0600,0.0002,0,-0.5000,-100.0000,-0.0500,-0.5000,-100.0000,-0.0500,22.0308,63.3610,-0.0300,0.2700,0.0000,0.0000,0.0000,0.0000,0.0000,0.0000
-29.0681,39.7823,-11.4303,0.0829,-0.0000,-0.1800,1.6200,0.6400,0.0000,0.6161,-0.7019,0.0026,996,1497,1527,1502,2008,1000,1505,1000,1505,1010,1745,1000,1990,0.2033,-0.0083,0.0447,-0.0416,-0.0264,0.9883,1.3206,0.0832,-1.3155,-0.0883,1.8393,0.3414,0.2698,1.8393,0.3414,0.2698,0.3000,0.0600,0.0002,0,-0.5000,-100.0000,-0.0500,-0.5000,-100.0000,-0.0500,22.0577,63.3919,-0.0300,0.2700,0.0000,0.0000,0.0000,0.0000,0.0000,0.0000
-29.0359,39.7551,-11.4111,0.0829,-0.0000,-0.1800,1.6200,0.6400,0.0000,0.6158,-0.7016,0.0029,996,1497,1527,1502,2008,1000,1505,1000,1505,1010,1745,1000,1991,0.1169,0.0847,-0.0671,-0.0453,-0.0254,0.9896,1.3203,0.0830,-1.3145,-0.0888,1.8393,0.3414,0.2698,1.8393,0.3414,0.2698,0.3000,0.0600,0.0002,0,-0.5000,-100.0000,-0.0500,-0.5000,-100.0000,-0.0500,22.0847,63.4229,-0.0300,0.2700,0.0000,0.0000,0.0000,0.0000,0.0000,0.0000
-29.0049,39.7279,-11.3935,0.0829,-0.0821,-0.1800,1.6200,0.6400,0.0000,0.6150,-0.7011,0.0032,996,1497,1527,1502,2008,1000,1505,1000,1505,1010,1745,1000,1991,0.1847,0.0724,-0.1430,-0.0442,-0.0267,0.9853,1.3193,0.0829,-1.3130,-0.0892,1.8393,0.3414,0.2698,1.8393,0.3414,0.2698,0.3000,0.0600,0.0002,0,-0.5000,-100.0000,-0.0500,-0.5000,-100.0000,-0.0500,22.1116,63.4539,-0.0300,0.2700,0.0000,0.0000,0.0000,0.0000,0.0000,0.0000
-28.9732,39.7002,-11.3755,0.0829,-0.0000,-0.1800,1.6200,0.6400,0.0000,0.6146,-0.7007,0.0032,996,1497,1527,1502,2008,1000,1505,1000,1505,1010,1746,1000,1991,0.1740,0.0968,-0.1527,-0.0440,-0.0249,0.9853,1.3184,0.0829,-1.3121,-0.0893,1.8393,0.3418,0.2698,1.8393,0.3418,0.2698,0.3000,0.0600,0.0002,0,-0.5000,-100.0000,-0.0500,-0.5000,-100.0000,-0.0500,22.1385,63.4849,-0.0300,0.2700,0.0000,0.0000,0.0000,0.0000,0.0000,0.0000
-28.9412,39.6727,-11.3567,0.0829,-0.0000,-0.1200,1.6200,0.9600,0.0000,0.6151,-0.6999,0.0028,996,1497,1527,1502,2008,1000,1505,1000,1505,1010,1746,1000,1990,0.1770,-0.0095,-0.0183,-0.0424,-0.0281,0.9876,1.3177,0.0820,-1.3121,-0.0876,1.8393,0.3418,0.2698,1.8393,0.3418,0.2698,0.3000,0.0600,0.0002,0,-0.5000,-100.0000,-0.0500,-0.5000,-100.0000,-0.0500,22.1654,63.5159,-0.0200,0.2700,0.0000,0.0000,0.0000,0.0000,0.0000,0.0000
-28.9086,39.6451,-11.3372,-0.0000,-0.0000,-0.1800,1.6200,0.6400,0.0000,0.6133,-0.6993,0.0027,996,1497,1527,1502,2008,1000,1505,1000,1505,1010,1746,1000,1990,0.1876,-0.0417,-0.0145,-0.0446,-0.0252,0.9890,1.3153,0.0832,-1.3099,-0.0887,1.8393,0.3418,0.2698,1.8393,0.3418,0.2698,0.3000,0.0600,0.0002,0,-0.5000,-100.0000,-0.0500,-0.5000,-100.0000,-0.0500,22.1922,63.5470,-0.0300,0.2700,0.0000,0.0000,0.0000,0.0000,0.0000,0.0000
-28.8758,39.6172,-11.3181,0.0829,-0.0000,-0.1800,1.6200,0.6400,0.0000,0.6126,-0.6990,0.0030,996,1497,1527,1502,2008,1000,1505,1000,1505,1010,1746,1000,1990,0.2354,0.0383,-0.0643,-0.0442,-0.0248,0.9898,1.3146,0.0834,-1.3086,-0.0894,1.8393,0.3418,0.2698,1.8393,0.3418,0.2698,0.3000,0.0600,0.0002,0,-0.5000,-100.0000,-0.0500,-0.5000,-100.0000,-0.0500,22.2190,63.5780,-0.0300,0.2700,0.0000,0.0000,0.0000,0.0000,0.0000,0.0000
-28.8437,39.5899,-11.2998,0.0829,-0.0000,-0.1800,1.6200,0.6400,0.0000,0.6121,-0.6985,0.0032,996,1497,1527,1502,2008,1000,1505,1000,1505,1010,1746,1000,1990,0.1970,0.0603,-0.1242,-0.0443,-0.0245,0.9926,1.3138,0.0833,-1.3075,-0.0896,1.8393,0.3418,0.2698,1.8393,0.3418,0.2698,0.3000,0.0600,0.0002,0,-0.5000,-100.0000,-0.0500,-0.5000,-100.0000,-0.0500,22.2457,63.6090,-0.0300,0.2700,0.0000,0.0000,0.0000,0.0000,0.0000,0.0000
-28.8117,39.5626,-11.2815,0.0829,-0.0000,-0.1800,1.6200,0.6400,0.0000,0.6114,-0.6980,0.0030,996,1497,1527,1502,2008,1000,1505,1000,1505,1010,1745,1000,1991,0.2226,0.0388,-0.0890,-0.0437,-0.0265,0.9908,1.3123,0.0836,-1.3063,-0.0896,1.8393,0.3414,0.2698,1.8393,0.3414,0.2698,0.3000,0.0600,0.0002,0,-0.5000,-100.0000,-0.0500,-0.5000,-100.0000,-0.0500,22.2725,63.6400,-0.0300,0.2700,0.0000,0.0000,0.0000,0.0000,0.0000,0.0000
-28.7800,39.5356,-11.2633,0.0829,-0.0000,-0.1800,1.6200,0.6400,0.0000,0.6109,-0.6977,0.0028,996,1497,1527,1502,2008,1000,1505,1000,1505,1010,1745,1000,1991,0.1583,0.1143,-0.0376,-0.0427,-0.0254,0.9883,1.3115,0.0839,-1.3058,-0.0896,1.8393,0.3414,0.2698,1.8393,0.3414,0.2698,0.3000,0.0600,0.0002,0,-0.5000,-100.0000,-0.0500,-0.5000,-100.0000,-0.0500,22.2992,63.6711,-0.0300,0.2700,0.0000,0.0000,0.0000,0.0000,0.0000,0.0000
-28.7483,39.5085,-11.2452,0.0829,0.0821,-0.1200,1.6200,0.9600,0.0000,0.6114,-0.6971,0.0030,996,1497,1527,1502,2008,1000,1505,1000,1505,1010,1746,1000,1990,0.2265,0.0998,-0.0940,-0.0427,-0.0254,0.9919,1.3116,0.0827,-1.3055,-0.0888,1.8393,0.3418,0.2698,1.8393,0.3418,0.2698,0.3000,0.0600,0.0002,0,-0.5000,-100.0000,-0.0500,-0.5000,-100.0000,-0.0500,22.3259,63.7021,-0.0200,0.2700,0.0000,0.0000,0.0000,0.0000,0.0000,0.0000
-28.7163,39.4812,-11.2274,0.0829,0.0821,-0.1800,1.6200,0.6400,0.0000,0.6096,-0.6964,0.0029,996,1497,1527,1502,2008,1000,1505,1000,1505,1010,1745,1000,1990,0.2369,0.0198,-0.0391,-0.0430,-0.0267,0.9873,1.3089,0.0840,-1.3031,-0.0897,1.8393,0.3414,0.2698,1.8393,0.3414,0.2698,0.3000,0.0600,0.0002,0,-0.5000,-100.0000,-0.0500,-0.5000,-100.0000,-0.0500,22.3525,63.7332,-0.0300,0.2700,0.0000,0.0000,0.0000,0.0000,0.0000,0.0000
-28.6838,39.4537,-11.2093,0.0829,-0.0000,-0.1800,1.6200,0.6400,0.0000,0.6090,-0.6958,0.0030,996,1497,1527,1502,2008,1000,1505,1000,1505,1010,1745,1000,1990,0.2235,-0.0094,-0.0783,-0.0451,-0.0252,0.9921,1.3078,0.0839,-1.3019,-0.0898,1.8393,0.3414,0.2698,1.8393,0.3414,0.2698,0.3000,0.0600,0.0002,0,-0.5000,-100.0000,-0.0500,-0.5000,-100.0000,-0.0500,22.3792,63.7643,-0.0300,0.2700,0.0000,0.0000,0.0000,0.0000,0.0000,0.0000
-28.6511,39.4255,-11.1900,0.0829,-0.0000,-0.1800,1.6200,0.6400,0.0000,0.6085,-0.6952,0.0027,996,1497,1527,1502,2008,1000,1505,1000,1505,1010,1745,1000,1991,0.1828,-0.0608,0.0082,-0.0439,-0.0249,0.9929,1.3064,0.0839,-1.3009,-0.0894,1.8393,0.3414,0.2698,1.8393,0.3414,0.2698,0.3000,0.0600,0.0002,0,-0.5000,-100.0000,-0.0500,-0.5000,-100.0000,-0.0500,22.4058,63.7953,-0.0300,0.2700,0.0000,0.0000,0.0000,0.0000,0.0000,0.0000
-28.6191,39.3978,-11.1710,0.0829,-0.0000,-0.1800,1.6200,0.6400,0.0000,0.6081,-0.6949,0.0029,996,1497,1527,1502,2008,1000,1505,1000,1505,1010,1745,1000,1991,0.1121,0.0112,-0.0472,-0.0474,-0.0268,0.9855,1.3059,0.0839,-1.3001,-0.0896,1.8393,0.3414,0.2698,1.8393,0.3414,0.2698,0.3000,0.0600,0.0002,0,-0.5000,-100.0000,-0.0500,-0.5000,-100.0000,-0.0500,22.4323,63.8264,-0.0300,0.2700,0.0000,0.0000,0.0000,0.0000,0.0000,0.0000
-28.5880,39.3702,-11.1527,0.0829,-0.0000,-0.1800,1.6200,0.6400,0.0000,0.6076,-0.6945,0.0030,996,1497,1527,1502,2008,1000,1505,1000,1505,1010,1745,1000,1990,0.1019,0.0512,-0.0997,-0.0427,-0.0263,0.9904,1.3051,0.0839,-1.2990,-0.0899,1.8393,0.3414,0.2698,1.8393,0.3414,0.2698,0.3000,0.0600,0.0002,0,-0.5000,-100.0000,-0.0500,-0.5000,-100.0000,-0.0500,22.4589,63.8575,-0.0300,0.2700,0.0000,0.0000,0.0000,0.0000,0.0000,0.0000
-28.5565,39.3426,-11.1352,0.0829,-0.0000,-0.1200,1.6200,0.9600,0.0000,0.6079,-0.6937,0.0030,996,1497,1527,1502,2008,1000,1505,1000,1505,1010,1746,1000,1990,0.2118,-0.0285,-0.0741,-0.0410,-0.0267,0.9908,1.3046,0.0829,-1.2987,-0.0888,1.8393,0.3418,0.2698,1.8393,0.3418,0.2698,0.3000,0.0600,0.0002,0,-0.5000,-100.0000,-0.0500,-0.5000,-100.0000,-0.0500,22.4854,63.8885,-0.0200,0.2700,0.0000,0.0000,0.0000,0.0000,0.0000,0.0000
-28.5244,39.3147,-11.1171,0.0829,-0.0000,-0.1800,1.6200,0.6400,0.0000,0.6061,-0.6933,0.0032,996,1497,1527,1502,2008,1000,1505,1000,1505,1010,1746,1000,1990,0.2327,0.0070,-0.1221,-0.0449,-0.0261,0.9889,1.3027,0.0840,-1.2963,-0.0904,1.8393,0.3418,0.2698,1.8393,0.3418,0.2698,0.3000,0.0600,0.0002,0,-0.5000,-100.0000,-0.0500,-0.5000,-100.0000,-0.0500,22.5118,63.9195,-0.0300,0.2700,0.0000,0.0000,0.0000,0.0000,0.0000,0.0000
-28.4923,39.2866,-11.0989,0.0829,0.0821,-0.1800,1.6200,0.6400,0.0000,0.6056,-0.6928,0.0030,996,1497,1527,1502,2008,1000,1505,1000,1505,1010,1745,1000,1990,0.1962,0.0045,-0.0728,-0.0475,-0.0238,0.9866,1.3014,0.0842,-1.2953,-0.0903,1.8393,0.3414,0.2698,1.8393,0.3414,0.2698,0.3000,0.0600,0.0002,0,-0.5000,-100.0000,-0.0500,-0.5000,-100.0000,-0.0500,22.5382,63.9505,-0.0300,0.2700,0.0000,0.0000,0.0000,0.0000,0.0000,0.0000
-28.4603,39.2581,-11.0810,0.0829,-0.0821,-0.1800,1.6200,0.6400,0.0000,0.6049,-0.6923,0.0031,996,1497,1527,1502,2008,1000,1505,1000,1505,1010,1745,1000,1990,0.2305,0.0094,-0.1267,-0.0444,-0.0269,0.9883,1.3003,0.0843,-1.2940,-0.0906,1.8393,0.3414,0.2698,1.8393,0.3414,0.2698,0.3000,0.0600,0.0002,0,-0.5000,-100.0000,-0.0500,-0.5000,-100.0000,-0.0500,22.5646,63.9815,-0.0300,0.2700,0.0000,0.0000,0.0000,0.0000,0.0000,0.0000
-28.4284,39.2298,-11.0627,0.0829,-0.0000,-0.1800,1.6200,0.6400,0.0000,0.6043,-0.6917,0.0032,996,1497,1527,1502,2008,1000,1505,1000,1505,1010,1745,1000,1991,0.2233,-0.0100,-0.1317,-0.0439,-0.0240,0.9914,1.2992,0.0842,-1.2928,-0.0906,1.8393,0.3414,0.2698,1.8393,0.3414,0.2698,0.3000,0.0600,0.0002,0,-0.5000,-100.0000,-0.0500,-0.5000,-100.0000,-0.0500,22.5909,64.0124,-0.0300,0.2700,0.0000,0.0000,0.0000,0.0000,0.0000,0.0000
-28.3961,39.2010,-11.0448,0.0829,0.0821,-0.1800,1.6200,0.6400,0.0000,0.6037,-0.6911,0.0031,996,1497,1527,1502,2008,1000,1505,1000,1505,1010,1745,1000,1991,0.2199,-0.0347,-0.0930,-0.0417,-0.0260,0.9878,1.2979,0.0843,-1.2918,-0.0905,1.8393,0.3414,0.2698,1.8393,0.3414,0.2698,0.3000,0.0600,0.0002,0,-0.5000,-100.0000,-0.0500,-0.5000,-100.0000,-0.0500,22.6172,64.0434,-0.0300,0.2700,0.0000,0.0000,0.0000,0.0000,0.0000,0.0000
-28.3636,39.1734,-11.0259,0.0829,-0.0000,-0.1200,1.6200,0.9600,0.0000,0.6044,-0.6908,0.0027,996,1497,1527,1502,2008,1000,1505,1000,1505,1010,1746,1000,1990,0.1913,0.0406,0.0314,-0.0448,-0.0270,0.9876,1.2979,0.0837,-1.2925,-0.0891,1.8393,0.3418,0.2698,1.8393,0.3418,0.2698,0.3000,0.0600,0.0002,0,-0.5000,-100.0000,-0.0500,-0.5000,-100.0000,-0.0500,22.6435,64.0743,-0.0200,0.2700,0.0000,0.0000,0.0000,0.0000,0.0000,0.0000
-28.3316,39.1461,-11.0078,0.0829,0.0821,-0.1800,1.6200,0.6400,0.0000,0.6026,-0.6902,0.0030,996,1497,1527,1502,2008,1000,1505,1000,1505,1010,1745,1000,1991,0.1936,0.0157,-0.0777,-0.0406,-0.0234,0.9877,1.2959,0.0846,-1.2898,-0.0907,1.8393,0.3414,0.2698,1.8393,0.3414,0.2698,0.3000,0.0600,0.0002,0,-0.5000,-100.0000,-0.0500,-0.5000,-100.0000,-0.0500,22.6697,64.1052,-0.0300,0.2700,0.0000,0.0000,0.0000,0.0000,0.0000,0.0000
-28.2995,39.1185,-10.9897,0.0829,-0.0000,-0.1800,1.6200,0.6400,0.0000,0.6020,-0.6897,0.0029,996,1497,1527,1502,2008,1000,1505,1000,1505,1010,1745,1000,1991,0.1821,-0.0069,-0.0480,-0.0436,-0.0284,0.9860,1.2947,0.0847,-1.2888,-0.0906,1.8393,0.3414,0.2698,1.8393,0.3414,0.2698,0.3000,0.0600,0.0002,0,-0.5000,-100.0000,-0.0500,-0.5000,-100.0000,-0.0500,22.6959,64.1362,-0.0300,0.2700,0.0000,0.0000,0.0000,0.0000,0.0000,0.0000
-28.2680,39.0907,-10.9718,-0.0000,-0.0000,-0.1800,1.6200,0.6400,0.0000,0.6017,-0.6893,0.0033,996,1497,1527,1502,2008,1000,1505,1000,1505,1010,1746,1000,1990,0.1451,0.0344,-0.1435,-0.0452,-0.0229,0.9857,1.2942,0.0844,-1.2877,-0.0909,1.8393,0.3418,0.2698,1.8393,0.3418,0.2698,0.3000,0.0600,0.0002,0,-0.5000,-100.0000,-0.0500,-0.5000,-100.0000,-0.0500,22.7220,64.1671,-0.0300,0.2700,0.0000,0.0000,0.0000,0.0000,0.0000,0.0000
-28.2361,39.0622,-10.9538,-0.0000,-0.0000,-0.1800,1.6200,0.6400,0.0000,0.6007,-0.6886,0.0032,996,1497,1527,1502,2008,1000,1505,1000,1505,1010,1746,1000,1990,0.2883,-0.0232,-0.1057,-0.0441,-0.0245,0.9812,1.2925,0.0847,-1.2861,-0.0911,1.8393,0.3418,0.2698,1.8393,0.3418,0.2698,0.3000,0.0600,0.0002,0,-0.5000,-100.0000,-0.0500,-0.5000,-100.0000,-0.0500,22.7481,64.1981,-0.0300,0.2700,0.0000,0.0000,0.0000,0.0000,0.0000,0.0000
-28.2039,39.0337,-10.9359,0.0829,-0.0000,-0.1800,1.6200,0.6400,0.0000,0.6002,-0.6882,0.0030,996,1497,1527,1502,2008,1000,1505,1000,1505,1010,1745,1000,1991,0.2190,0.0171,-0.0624,-0.0427,-0.0279,0.9885,1.2913,0.0850,-1.2854,-0.0910,1.8393,0.3414,0.2698,1.8393,0.3414,0.2698,0.3000,0.0600,0.0002,0,-0.5000,-100.0000,-0.0500,-0.5000,-100.0000,-0.0500,22.7742,64.2290,-0.0300,0.2700,0.0000,0.0000,0.0000,0.0000,0.0000,0.0000
-28.1723,39.0057,-10.9176,0.0829,-0.0000,-0.1200,1.6200,0.9600,0.0000,0.6011,-0.6879,0.0029,996,1497,1527,1502,2008,1000,1505,1000,1505,1010,1746,1000,1991,0.1199,0.0859,-0.0380,-0.0428,-0.0272,0.9863,1.2918,0.0839,-1.2860,-0.0897,1.8393,0.3418,0.2698,1.8393,0.3418,0.2698,0.3000,0.0600,0.0002,0,-0.5000,-100.0000,-0.0500,-0.5000,-100.0000,-0.0500,22.8003,64.2600,-0.0200,0.2700,0.0000,0.0000,0.0000,0.0000,0.0000,0.0000
-28.1410,38.9781,-10.8994,0.1657,-0.0000,-0.1800,1.6200,0.6400,0.0000,0.5994,-0.6873,0.0029,996,1497,1527,1502,2008,1000,1505,1000,1505,1010,1746,1000,1991,0.1338,0.0852,-0.0328,-0.0405,-0.0261,0.9889,1.2896,0.0850,-1.2838,-0.0909,1.8393,0.3418,0.2698,1.8393,0.3418,0.2698,0.3000,0.0600,0.0002,0,-0.5000,-100.0000,-0.0500,-0.5000,-100.0000,-0.0500,22.8263,64.2910,-0.0300,0.2700,0.0000,0.0000,0.0000,0.0000,0.0000,0.0000
-28.1096,38.9507,-10.8816,0.0829,0.0821,-0.1800,1.6200,0.6400,0.0000,0.5985,-0.6869,0.0031,996,1497,1527,1502,2008,1000,1505,1000,1505,1010,1745,1000,1991,0.1996,0.1216,-0.0752,-0.0446,-0.0276,0.9891,1.2885,0.0854,-1.2824,-0.0915,1.8393,0.3414,0.2698,1.8393,0.3414,0.2698,0.3000,0.0600,0.0002,0,-0.5000,-100.0000,-0.0500,-0.5000,-100.0000,-0.0500,22.8523,64.3220,-0.0300,0.2700,0.0000,0.0000,0.0000,0.0000,0.0000,0.0000
-28.0781,38.9232,-10.8639,0.0829,0.0821,-0.1800,1.6200,0.6400,0.0000,0.5979,-0.6863,0.0031,996,1497,1527,1502,2008,1000,1505,1000,1505,1010,1745,1000,1991,0.1972,0.0672,-0.0887,-0.0429,-0.0241,0.9895,1.2873,0.0852,-1.2811,-0.0915,1.8393,0.3414,0.2698,1.8393,0.3414,0.2698,0.3000,0.0600,0.0002,0,-0.5000,-100.0000,-0.0500,-0.5000,-100.0000,-0.0500,22.8782,64.3529,-0.0300,0.2700,0.0000,0.0000,0.0000,0.0000,0.0000,0.0000
-28.0468,38.8954,-10.8462,0.0829,0.0821,-0.1800,1.6200,0.6400,0.0000,0.5975,-0.6857,0.0032,996,1497,1527,1502,2008,1000,1505,1000,1505,1010,1746,1000,1991,0.1629,0.0400,-0.1000,-0.0423,-0.0244,0.9904,1.2864,0.0850,-1.2801,-0.0913,1.8393,0.3418,0.2698,1.8393,0.3418,0.2698,0.3000,0.0600,0.0002,0,-0.5000,-100.0000,-0.0500,-0.5000,-100.0000,-0.0500,22.9041,64.3839,-0.0300,0.2700,0.0000,0.0000,0.0000,0.0000,0.0000,0.0000
-28.0151,38.8667,-10.8286,0.0829,-0.0000,-0.1800,1.6200,0.6400,0.0000,0.5970,-0.6849,0.0031,996,1497,1527,1502,2008,1000,1505,1000,1505,1010,1746,1000,1991,0.1599,-0.0700,-0.0871,-0.0458,-0.0252,0.9873,1.2849,0.0848,-1.2788,-0.0910,1.8393,0.3418,0.2698,1.8393,0.3418,0.2698,0.3000,0.0600,0.0002,0,-0.5000,-100.0000,-0.0500,-0.5000,-100.0000,-0.0500,22.9300,64.4149,-0.0300,0.2700,0.0000,0.0000,0.0000,0.0000,0.0000,0.0000
-27.9829,38.8382,-10.8095,0.0829,-0.0000,-0.1200,1.6200,0.9600,0.0000,0.5976,-0.6844,0.0028,996,1497,1527,1502,2008,1000,1505,1000,1505,1010,1746,1000,1991,0.1320,-0.0550,0.0407,-0.0419,-0.0255,0.9855,1.2847,0.0841,-1.2792,-0.0896,1.8393,0.3418,0.2698,1.8393,0.3418,0.2698,0.3000,0.0600,0.0002,0,-0.5000,-100.0000,-0.0500,-0.5000,-100.0000,-0.0500,22.9558,64.4459,-0.0200,0.2700,0.0000,0.0000,0.0000,0.0000,0.0000,0.0000
-27.9509,38.8098,-10.7910,0.0829,-0.0000,-0.1800,1.6200,0.6400,0.0000,0.5955,-0.6840,0.0033,996,1497,1527,1502,2008,1000,1505,1000,1505,1010,1745,1000,1991,0.2233,-0.0193,-0.1279,-0.0415,-0.0263,0.9825,1.2828,0.0852,-1.2762,-0.0917,1.8393,0.3414,0.2698,1.8393,0.3414,0.2698,0.3000,0.0600,0.0002,0,-0.5000,-100.0000,-0.0500,-0.5000,-100.0000,-0.0500,22.9817,64.4769,-0.0300,0.2700,0.0000,0.0000,0.0000,0.0000,0.0000,0.0000
