roll_imu,pitch_imu,yaw_imu,alpha,beta,roll_des,pitch_des,yaw_des,throttle_des,roll_pid,pitch_pid,yaw_pid,radio_ch1,radio_ch2,radio_ch3,radio_ch4,radio_ch5,radio_ch6,radio_ch7,radio_ch8,radio_ch9,radio_ch10,radio_ch11,radio_ch12,radio_ch13,GyroX,GyroY,GyroZ,AccX,AccY,AccZ,s1_command,s2_command,s3_command,s4_command,kp_roll,ki_roll,kd_roll,kp_pitch,ki_pitch,kd_pitch,kp_yaw,ki_yaw,kd_yaw,failsafeTriggered,kp_alphaRoll,ki_alphaRoll,kd_alphaRoll,kp_betaPitch,ki_betaPitch,kd_betaPitch,ripIMU_roll,ripIMU_pitch,ripRoll_des,ripPitch_des,error_alphaRoll,integral_alphaRoll,derivative_alphaRoll,error_betaPitch,integral_betaPitch,derivative_betaPitch
0.0000,0.0000,0.0000,-7.6243,2.8317,0.0000,0.0000,0.0000,0.0000,0.0000,0.0000,0.0000,1000,1500,1500,1500,2000,1000,1000,1000,1500,1500,1500,1500,1500,0.0000,0.0000,0.0000,0.0000,0.0000,0.0000,0.0000,0.0000,0.0000,0.0000,0.8627,0.2400,0.1321,0.8627,0.2400,0.1321,0.3000,0.0600,0.0002,0,-4.9280,-256.2000,-0.5040,-4.9280,-256.2000,-0.5040,0.0000,0.0000,0.0000,0.0000,0.0000,0.0000,0.0000,0.0000,0.0000,0.0000
-44.6751,32.2863,-13.6163,-0.0829,0.0821,-7.8600,-6.5400,-41.9200,0.0000,0.3776,-0.3349,-0.1259,910,1369,1391,1369,2008,1000,1505,1000,1000,1002,1005,1000,1013,-0.0147,-0.0137,0.0142,-0.0057,-0.0095,0.8617,0.5866,0.0832,-0.8385,0.1686,0.8627,0.2400,0.1321,0.8627,0.2400,0.1321,0.3000,0.0600,0.0002,0,-4.8590,-254.6628,-0.4748,-4.8590,-254.6628,-0.4748,13.3524,51.8149,-1.3100,-1.0900,0.0000,0.0000,0.0000,0.0000,0.0000,0.0000
-44.6398,32.2694,-13.5973,-0.1657,-0.0000,-2.3400,-0.7800,-12.4800,0.0000,0.4249,-0.2851,-0.0376,971,1461,1487,1461,2008,1000,1505,1000,1000,1001,1005,1000,1013,0.0224,-0.0439,-0.0468,-0.0006,-0.0085,0.9947,0.6723,-0.1022,-0.7476,0.1775,0.8627,0.2400,0.1321,0.8627,0.2400,0.1321,0.3000,0.0600,0.0002,0,-4.8393,-254.6628,-0.4748,-4.8393,-254.6628,-0.4748,13.3362,51.7824,-0.3900,-0.1300,0.0000,0.0000,0.0000,0.0000,0.0000,0.0000
-44.6046,32.2528,-13.5783,-0.0829,-0.0000,-0.6000,0.9000,-3.2000,0.0000,0.4397,-0.2705,-0.0099,991,1490,1515,1490,2008,1000,1505,1000,1000,1001,1005,1000,1013,-0.0356,-0.0079,-0.0287,-0.0064,-0.0112,1.0021,0.7003,-0.1593,-0.7200,0.1791,0.8627,0.2400,0.1321,0.8627,0.2400,0.1321,0.3000,0.0600,0.0002,0,-4.8393,-254.6628,-0.4748,-4.8393,-254.6628,-0.4748,13.3189,51.7497,-0.1000,0.1500,0.0000,0.0000,0.0000,0.0000,0.0000,0.0000
-44.5693,32.2360,-13.5595,-0.0829,-0.0000,0.0000,1.3200,0.0000,0.0000,0.4445,-0.2666,-0.0004,996,1500,1522,1500,2008,1000,1505,1000,1000,1002,1005,1000,1013,-0.0127,-0.0597,0.0082,-0.0024,-0.0107,1.0046,0.7108,-0.1775,-0.7115,0.1783,0.8627,0.2400,0.1321,0.8627,0.2400,0.1321,0.3000,0.0600,0.0002,0,-4.8590,-254.6628,-0.4748,-4.8590,-254.6628,-0.4748,13.3022,51.7171,0.0000,0.2200,0.0000,0.0000,0.0000,0.0000,0.0000,0.0000
-44.5340,32.2194,-13.5402,-0.0829,-0.0000,0.1200,1.5000,0.6400,0.0000,0.4453,-0.2650,0.0016,996,1502,1525,1502,2008,1000,1505,1000,1000,1002,1005,1000,1013,-0.0312,-0.0321,0.0042,-0.0006,-0.0076,1.0021,0.7118,-0.1819,-0.7087,0.1787,0.8627,0.2400,0.1321,0.8627,0.2400,0.1321,0.3000,0.0600,0.0002,0,-4.8590,-254.6628,-0.4748,-4.8590,-254.6628,-0.4748,13.2864,51.6842,0.0200,0.2500,0.0000,0.0000,0.0000,0.0000,0.0000,0.0000
-44.4989,32.2028,-13.5213,-0.0829,-0.0000,0.2400,1.6800,1.2800,0.0000,0.4460,-0.2633,0.0053,997,1503,1527,1503,2008,1000,1505,1000,1000,1001,1005,1000,1013,-0.0280,-0.0021,0.0229,-0.0058,-0.0089,1.0006,0.7146,-0.1880,-0.7040,0.1774,0.8627,0.2400,0.1321,0.8627,0.2400,0.1321,0.3000,0.0600,0.0002,0,-4.8393,-254.6628,-0.4748,-4.8393,-254.6628,-0.4748,13.2697,51.6515,0.0400,0.2800,0.0000,0.0000,0.0000,0.0000,0.0000,0.0000
-44.4638,32.1865,-13.5021,-0.1657,-0.0000,0.1200,1.6200,0.6400,0.0000,0.4447,-0.2637,0.0015,996,1502,1527,1502,2008,1000,1505,1000,1000,1001,1005,1000,1013,-0.0280,-0.0142,0.0131,-0.0047,-0.0080,1.0028,0.7098,-0.1825,-0.7068,0.1795,0.8627,0.2400,0.1321,0.8627,0.2400,0.1321,0.3000,0.0600,0.0002,0,-4.8393,-254.6628,-0.4748,-4.8393,-254.6628,-0.4748,13.2533,51.6189,0.0200,0.2700,0.0000,0.0000,0.0000,0.0000,0.0000,0.0000
-44.4286,32.1700,-13.4836,-0.1657,-0.0000,0.1200,1.6200,0.6400,0.0000,0.4443,-0.2636,0.0018,996,1502,1527,1502,2008,1000,1505,1000,1000,1001,1005,1000,1013,-0.0172,0.0271,-0.0697,-0.0021,-0.0100,1.0046,0.7097,-0.1825,-0.7061,0.1790,0.8627,0.2400,0.1321,0.8627,0.2400,0.1321,0.3000,0.0600,0.0002,0,-4.8393,-254.6628,-0.4748,-4.8393,-254.6628,-0.4748,13.2370,51.5867,0.0200,0.2700,0.0000,0.0000,0.0000,0.0000,0.0000,0.0000
-44.3932,32.1536,-13.4651,-0.0829,-0.0000,0.1200,1.6200,0.6400,0.0000,0.4441,-0.2635,0.0015,996,1502,1527,1502,2008,1000,1505,1000,1000,1001,1005,1000,1013,-0.0325,0.0699,0.0045,-0.0052,-0.0092,1.0020,0.7091,-0.1821,-0.7060,0.1790,0.8627,0.2400,0.1321,0.8627,0.2400,0.1321,0.3000,0.0600,0.0002,0,-4.8393,-254.6628,-0.4748,-4.8393,-254.6628,-0.4748,13.2215,51.5538,0.0200,0.2700,0.0000,0.0000,0.0000,0.0000,0.0000,0.0000
-44.3580,32.1368,-13.4466,-0.0000,0.0821,0.1200,1.6200,0.6400,0.0000,0.4437,-0.2632,0.0017,996,1502,1527,1502,2008,1000,1505,1000,1000,1001,1005,1000,1013,0.0171,-0.0853,-0.0584,-0.0023,-0.0106,1.0021,0.7086,-0.1822,-0.7051,0.1788,0.8627,0.2400,0.1321,0.8627,0.2400,0.1321,0.3000,0.0600,0.0002,0,-4.8393,-254.6628,-0.4748,-4.8393,-254.6628,-0.4748,13.2056,51.5209,0.0200,0.2700,0.0000,0.0000,0.0000,0.0000,0.0000,0.0000
-44.3219,32.1197,-13.4274,-0.0829,-0.0000,0.1200,1.6200,0.6400,0.0000,0.4434,-0.2630,0.0016,996,1502,1527,1502,2008,1000,1505,1000,1000,1002,1005,1000,1013,0.0338,-0.0539,-0.0193,-0.0054,-0.0095,0.9974,0.7080,-0.1819,-0.7048,0.1787,0.8627,0.2400,0.1321,0.8627,0.2400,0.1321,0.3000,0.0600,0.0002,0,-4.8590,-254.6628,-0.4748,-4.8590,-254.6628,-0.4748,13.1896,51.4879,0.0200,0.2700,0.0000,0.0000,0.0000,0.0000,0.0000,0.0000
-44.2857,32.1034,-13.4082,-0.0829,-0.0000,0.2400,1.6800,1.2800,0.0000,0.4441,-0.2625,0.0053,997,1503,1527,1503,2008,1000,1505,1000,1000,1002,1005,1000,1013,0.0296,0.0082,0.0298,-0.0051,-0.0077,1.0047,0.7119,-0.1869,-0.7012,0.1763,0.8627,0.2400,0.1321,0.8627,0.2400,0.1321,0.3000,0.0600,0.0002,0,-4.8590,-254.6628,-0.4748,-4.8590,-254.6628,-0.4748,13.1736,51.4555,0.0400,0.2800,0.0000,0.0000,0.0000,0.0000,0.0000,0.0000
-44.2495,32.0866,-13.3888,-0.1657,-0.0000,0.1200,1.6200,0.6400,0.0000,0.4428,-0.2627,0.0015,996,1502,1527,1502,2008,1000,1505,1000,1000,1002,1005,1000,1013,0.0099,-0.0686,0.0342,0.0013,-0.0070,1.0004,0.7070,-0.1815,-0.7040,0.1785,0.8627,0.2400,0.1321,0.8627,0.2400,0.1321,0.3000,0.0600,0.0002,0,-4.8590,-254.6628,-0.4748,-4.8590,-254.6628,-0.4748,13.1574,51.4227,0.0200,0.2700,0.0000,0.0000,0.0000,0.0000,0.0000,0.0000
-44.2140,32.0699,-13.3697,-0.0829,-0.0000,0.1200,1.6200,0.6400,0.0000,0.4425,-0.2627,0.0018,996,1502,1527,1502,2008,1000,1505,1000,1000,1002,1005,1000,1013,0.0057,0.0093,-0.0600,-0.0045,-0.0078,1.0047,0.7070,-0.1816,-0.7034,0.1779,0.8627,0.2400,0.1321,0.8627,0.2400,0.1321,0.3000,0.0600,0.0002,0,-4.8590,-254.6628,-0.4748,-4.8590,-254.6628,-0.4748,13.1410,51.3898,0.0200,0.2700,0.0000,0.0000,0.0000,0.0000,0.0000,0.0000
-44.1782,32.0530,-13.3508,-0.0829,0.0821,0.1200,1.6200,0.6400,0.0000,0.4421,-0.2626,0.0017,996,1502,1527,1502,2008,1000,1505,1000,1000,1002,1005,1000,1013,0.0462,0.0234,-0.0316,-0.0033,-0.0065,1.0031,0.7064,-0.1813,-0.7029,0.1778,0.8627,0.2400,0.1321,0.8627,0.2400,0.1321,0.3000,0.0600,0.0002,0,-4.8590,-254.6628,-0.4748,-4.8590,-254.6628,-0.4748,13.1245,51.3570,0.0200,0.2700,0.0000,0.0000,0.0000,0.0000,0.0000,0.0000
-44.1429,32.0366,-13.3322,-0.1657,-0.0821,0.1200,1.6200,0.6400,0.0000,0.4418,-0.2624,0.0015,996,1502,1527,1502,2008,1000,1505,1000,1000,1002,1005,1000,1013,0.0222,-0.0033,0.0215,-0.0059,-0.0085,1.0034,0.7058,-0.1810,-0.7027,0.1779,0.8627,0.2400,0.1321,0.8627,0.2400,0.1321,0.3000,0.0600,0.0002,0,-4.8590,-254.6628,-0.4748,-4.8590,-254.6628,-0.4748,13.1080,51.3240,0.0200,0.2700,0.0000,0.0000,0.0000,0.0000,0.0000,0.0000
-44.1074,32.0202,-13.3129,-0.0829,0.0821,0.1200,1.6200,0.6400,0.0000,0.4416,-0.2623,0.0014,996,1502,1527,1502,2008,1000,1505,1000,1000,1002,1005,1000,1013,-0.0633,-0.0016,0.0532,-0.0050,-0.0067,1.0014,0.7053,-0.1808,-0.7025,0.1779,0.8627,0.2400,0.1321,0.8627,0.2400,0.1321,0.3000,0.0600,0.0002,0,-4.8590,-254.6628,-0.4748,-4.8590,-254.6628,-0.4748,13.0911,51.2909,0.0200,0.2700,0.0000,0.0000,0.0000,0.0000,0.0000,0.0000
-44.0726,32.0039,-13.2937,-0.1657,-0.0000,0.2400,1.6800,1.2800,0.0000,0.4423,-0.2616,0.0054,997,1503,1527,1503,2008,1000,1505,1000,1000,1002,1005,1000,1013,-0.0333,-0.0129,0.0200,-0.0040,-0.0096,1.0015,0.7093,-0.1862,-0.6985,0.1753,0.8627,0.2400,0.1321,0.8627,0.2400,0.1321,0.3000,0.0600,0.0002,0,-4.8590,-254.6628,-0.4748,-4.8590,-254.6628,-0.4748,13.0740,51.2580,0.0400,0.2800,0.0000,0.0000,0.0000,0.0000,0.0000,0.0000
-44.0374,31.9869,-13.2748,-0.1657,0.0821,0.1200,1.6200,0.6400,0.0000,0.4410,-0.2619,0.0014,996,1502,1527,1502,2008,1000,1505,1000,1000,1002,1005,1000,1013,-0.0276,-0.0500,0.0478,-0.0004,-0.0087,1.0010,0.7043,-0.1805,-0.7015,0.1776,0.8627,0.2400,0.1321,0.8627,0.2400,0.1321,0.3000,0.0600,0.0002,0,-4.8590,-254.6628,-0.4748,-4.8590,-254.6628,-0.4748,13.0566,51.2253,0.0200,0.2700,0.0000,0.0000,0.0000,0.0000,0.0000,0.0000
-44.0013,31.9705,-13.2555,-0.1657,-0.0821,0.1200,1.6200,0.6400,0.0000,0.4406,-0.2618,0.0017,996,1502,1527,1502,2008,1000,1505,1000,1000,1002,1005,1000,1013,0.0290,-0.0021,-0.0221,-0.0049,-0.0083,1.0028,0.7041,-0.1804,-0.7007,0.1771,0.8627,0.2400,0.1321,0.8627,0.2400,0.1321,0.3000,0.0600,0.0002,0,-4.8590,-254.6628,-0.4748,-4.8590,-254.6628,-0.4748,13.0407,51.1926,0.0200,0.2700,0.0000,0.0000,0.0000,0.0000,0.0000,0.0000
-43.9656,31.9536,-13.2369,-0.0829,-0.0000,0.1200,1.6200,0.6400,0.0000,0.4403,-0.2617,0.0016,996,1502,1527,1502,2008,1000,1505,1000,1000,1002,1005,1000,1013,0.0207,0.0404,-0.0015,-0.0015,-0.0064,1.0022,0.7037,-0.1802,-0.7004,0.1769,0.8627,0.2400,0.1321,0.8627,0.2400,0.1321,0.3000,0.0600,0.0002,0,-4.8590,-254.6628,-0.4748,-4.8590,-254.6628,-0.4748,13.0245,51.1597,0.0200,0.2700,0.0000,0.0000,0.0000,0.0000,0.0000,0.0000
-43.9306,31.9367,-13.2186,-0.1657,-0.0000,0.1200,1.6200,0.6400,0.0000,0.4401,-0.2615,0.0016,996,1502,1527,1502,2008,1000,1505,1000,1000,1002,1005,1000,1013,-0.0578,-0.0448,-0.0123,-0.0054,-0.0089,1.0029,0.7032,-0.1802,-0.7000,0.1770,0.8627,0.2400,0.1321,0.8627,0.2400,0.1321,0.3000,0.0600,0.0002,0,-4.8590,-254.6628,-0.4748,-4.8590,-254.6628,-0.4748,13.0068,51.1268,0.0200,0.2700,0.0000,0.0000,0.0000,0.0000,0.0000,0.0000
-43.8952,31.9196,-13.2001,-0.0829,-0.0000,0.1200,1.6200,0.6400,0.0000,0.4397,-0.2614,0.0017,996,1502,1527,1502,2008,1000,1505,1000,1000,1002,1005,1000,1013,0.0236,-0.0110,-0.0263,-0.0029,-0.0104,1.0003,0.7028,-0.1800,-0.6994,0.1766,0.8627,0.2400,0.1321,0.8627,0.2400,0.1321,0.3000,0.0600,0.0002,0,-4.8590,-254.6628,-0.4748,-4.8590,-254.6628,-0.4748,12.9911,51.0943,0.0200,0.2700,0.0000,0.0000,0.0000,0.0000,0.0000,0.0000
-43.8597,31.9029,-13.1814,-0.1657,-0.0000,0.2400,1.6800,1.2800,0.0000,0.4405,-0.2608,0.0053,997,1503,1527,1503,2008,1000,1505,1000,1000,1002,1005,1000,1013,-0.0060,0.0634,0.0438,-0.0024,-0.0074,1.0031,0.7066,-0.1850,-0.6959,0.1743,0.8627,0.2400,0.1321,0.8627,0.2400,0.1321,0.3000,0.0600,0.0002,0,-4.8590,-254.6628,-0.4748,-4.8590,-254.6628,-0.4748,12.9759,51.0621,0.0400,0.2800,0.0000,0.0000,0.0000,0.0000,0.0000,0.0000
-43.8247,31.8864,-13.1628,-0.1657,-0.0821,0.1200,1.6200,0.6400,0.0000,0.4392,-0.2611,0.0017,996,1502,1527,1502,2008,1000,1505,1000,1000,1002,1005,1000,1013,-0.0464,-0.0081,-0.0130,-0.0086,-0.0102,1.0026,0.7020,-0.1798,-0.6986,0.1764,0.8627,0.2400,0.1321,0.8627,0.2400,0.1321,0.3000,0.0600,0.0002,0,-4.8590,-254.6628,-0.4748,-4.8590,-254.6628,-0.4748,12.9594,51.0298,0.0200,0.2700,0.0000,0.0000,0.0000,0.0000,0.0000,0.0000
-43.7892,31.8692,-13.1439,-0.0829,-0.0000,0.1200,1.6200,0.6400,0.0000,0.4389,-0.2609,0.0016,996,1502,1527,1502,2008,1000,1505,1000,1000,1002,1005,1000,1013,-0.0571,-0.0269,0.0181,-0.0052,-0.0083,0.9978,0.7014,-0.1796,-0.6982,0.1764,0.8627,0.2400,0.1321,0.8627,0.2400,0.1321,0.3000,0.0600,0.0002,0,-4.8590,-254.6628,-0.4748,-4.8590,-254.6628,-0.4748,12.9434,50.9968,0.0200,0.2700,0.0000,0.0000,0.0000,0.0000,0.0000,0.0000
-43.7539,31.8525,-13.1248,-0.0829,0.0821,0.1200,1.6200,0.6400,0.0000,0.4385,-0.2608,0.0017,996,1502,1527,1502,2008,1000,1505,1000,1000,1002,1005,1000,1013,0.0031,0.0120,-0.0077,-0.0057,-0.0096,0.9999,0.7011,-0.1794,-0.6976,0.1759,0.8627,0.2400,0.1321,0.8627,0.2400,0.1321,0.3000,0.0600,0.0002,0,-4.8590,-254.6628,-0.4748,-4.8590,-254.6628,-0.4748,12.9257,50.9636,0.0200,0.2700,0.0000,0.0000,0.0000,0.0000,0.0000,0.0000
-43.7181,31.8357,-13.1060,0.0829,-0.0000,0.1200,1.6200,0.6400,0.0000,0.4382,-0.2606,0.0017,996,1502,1527,1502,2008,1000,1505,1000,1000,1002,1005,1000,1013,0.0159,-0.0222,0.0019,-0.0046,-0.0101,1.0032,0.7005,-0.1792,-0.6972,0.1759,0.8627,0.2400,0.1321,0.8627,0.2400,0.1321,0.3000,0.0600,0.0002,0,-4.8590,-254.6628,-0.4748,-4.8590,-254.6628,-0.4748,12.9087,50.9313,0.0200,0.2700,0.0000,0.0000,0.0000,0.0000,0.0000,0.0000
-43.6824,31.8185,-13.0867,-0.0829,-0.0000,0.1200,1.6200,0.6400,0.0000,0.4379,-0.2605,0.0017,996,1502,1527,1502,2008,1000,1505,1000,1000,1002,1005,1000,1013,0.0051,-0.0347,0.0031,-0.0012,-0.0115,1.0015,0.7000,-0.1791,-0.6967,0.1757,0.8627,0.2400,0.1321,0.8627,0.2400,0.1321,0.3000,0.0600,0.0002,0,-4.8590,-254.6628,-0.4748,-4.8590,-254.6628,-0.4748,12.8927,50.8987,0.0200,0.2700,0.0000,0.0000,0.0000,0.0000,0.0000,0.0000
-43.6466,31.8020,-13.0677,-0.1657,-0.0000,0.2400,1.6800,1.2800,0.0000,0.4386,-0.2599,0.0054,997,1503,1527,1503,2008,1000,1505,1000,1000,1001,1005,1000,1013,-0.0030,0.0581,0.0458,-0.0065,-0.0114,0.9997,0.7039,-0.1840,-0.6932,0.1733,0.8627,0.2400,0.1321,0.8627,0.2400,0.1321,0.3000,0.0600,0.0002,0,-4.8393,-254.6628,-0.4748,-4.8393,-254.6628,-0.4748,12.8766,50.8659,0.0400,0.2800,0.0000,0.0000,0.0000,0.0000,0.0000,0.0000
-43.6112,31.7859,-13.0492,-0.0829,-0.0000,0.1200,1.6200,0.6400,0.0000,0.4372,-0.2603,0.0016,996,1502,1527,1502,2008,1000,1505,1000,1000,1002,1005,1000,1013,0.0504,0.0654,0.0238,-0.0041,-0.0104,1.0026,0.6992,-0.1785,-0.6959,0.1753,0.8627,0.2400,0.1321,0.8627,0.2400,0.1321,0.3000,0.0600,0.0002,0,-4.8590,-254.6628,-0.4748,-4.8590,-254.6628,-0.4748,12.8607,50.8328,0.0200,0.2700,0.0000,0.0000,0.0000,0.0000,0.0000,0.0000
-43.5754,31.7690,-13.0303,-0.1657,-0.0000,0.1200,1.6200,0.6400,0.0000,0.4369,-0.2601,0.0016,996,1502,1527,1502,2008,1000,1505,1000,1000,1002,1005,1000,1013,0.0417,-0.0035,0.0103,-0.0011,-0.0101,1.0046,0.6986,-0.1784,-0.6954,0.1752,0.8627,0.2400,0.1321,0.8627,0.2400,0.1321,0.3000,0.0600,0.0002,0,-4.8590,-254.6628,-0.4748,-4.8590,-254.6628,-0.4748,12.8445,50.7994,0.0200,0.2700,0.0000,0.0000,0.0000,0.0000,0.0000,0.0000
-43.5399,31.7518,-13.0115,-0.1657,0.0821,0.1200,1.6200,0.6400,0.0000,0.4366,-0.2599,0.0018,996,1502,1527,1502,2008,1000,1505,1000,1000,1002,1005,1000,1013,0.0037,-0.0703,-0.0487,-0.0079,-0.0115,1.0022,0.6983,-0.1786,-0.6947,0.1750,0.8627,0.2400,0.1321,0.8627,0.2400,0.1321,0.3000,0.0600,0.0002,0,-4.8590,-254.6628,-0.4748,-4.8590,-254.6628,-0.4748,12.8285,50.7659,0.0200,0.2700,0.0000,0.0000,0.0000,0.0000,0.0000,0.0000
-43.5049,31.7344,-12.9932,-0.1657,-0.0000,0.1200,1.6200,0.6400,0.0000,0.4363,-0.2598,0.0020,996,1502,1527,1502,2008,1000,1505,1000,1000,1002,1005,1000,1013,0.0393,0.0029,-0.0916,-0.0043,-0.0078,1.0033,0.6981,-0.1785,-0.6941,0.1745,0.8627,0.2400,0.1321,0.8627,0.2400,0.1321,0.3000,0.0600,0.0002,0,-4.8590,-254.6628,-0.4748,-4.8590,-254.6628,-0.4748,12.8121,50.7331,0.0200,0.2700,0.0000,0.0000,0.0000,0.0000,0.0000,0.0000
-43.4696,31.7172,-12.9752,-0.0829,-0.0000,0.1200,1.6200,0.6400,0.0000,0.4359,-0.2597,0.0020,996,1502,1527,1502,2008,1000,1505,1000,1000,1001,1005,1000,1013,0.0776,0.0065,-0.1117,-0.0035,-0.0120,1.0034,0.6976,-0.1783,-0.6936,0.1742,0.8627,0.2400,0.1321,0.8627,0.2400,0.1321,0.3000,0.0600,0.0002,0,-4.8393,-254.6628,-0.4748,-4.8393,-254.6628,-0.4748,12.7955,50.6997,0.0200,0.2700,0.0000,0.0000,0.0000,0.0000,0.0000,0.0000
-43.4346,31.6997,-12.9570,-0.0829,-0.0000,0.2400,1.6800,1.2800,0.0000,0.4368,-0.2589,0.0056,997,1503,1527,1503,2008,1000,1505,1000,1000,1002,1005,1000,1013,-0.0417,-0.0307,-0.0309,-0.0073,-0.0095,0.9993,0.7014,-0.1835,-0.6901,0.1723,0.8627,0.2400,0.1321,0.8627,0.2400,0.1321,0.3000,0.0600,0.0002,0,-4.8590,-254.6628,-0.4748,-4.8590,-254.6628,-0.4748,12.7786,50.6666,0.0400,0.2800,0.0000,0.0000,0.0000,0.0000,0.0000,0.0000
-43.3989,31.6825,-12.9381,-0.2486,-0.1642,0.1200,1.6200,0.6400,0.0000,0.4354,-0.2593,0.0018,996,1502,1527,1502,2008,1000,1505,1000,1000,1002,1005,1000,1013,0.0393,-0.0497,-0.0095,-0.0034,-0.0073,1.0048,0.6964,-0.1779,-0.6929,0.1744,0.8627,0.2400,0.1321,0.8627,0.2400,0.1321,0.3000,0.0600,0.0002,0,-4.8590,-254.6628,-0.4748,-4.8590,-254.6628,-0.4748,12.7615,50.6338,0.0200,0.2700,0.0000,0.0000,0.0000,0.0000,0.0000,0.0000
-43.3634,31.6652,-12.9199,-0.1657,-0.0000,0.1200,1.6200,0.6400,0.0000,0.4351,-0.2593,0.0019,996,1502,1527,1502,2008,1000,1505,1000,1000,1001,1005,1000,1013,0.0411,0.0836,-0.0654,-0.0016,-0.0114,1.0050,0.6963,-0.1776,-0.6925,0.1739,0.8627,0.2400,0.1321,0.8627,0.2400,0.1321,0.3000,0.0600,0.0002,0,-4.8393,-254.6628,-0.4748,-4.8393,-254.6628,-0.4748,12.7458,50.6008,0.0200,0.2700,0.0000,0.0000,0.0000,0.0000,0.0000,0.0000
-43.3277,31.6487,-12.9014,-0.2486,-0.1642,0.1200,1.6200,0.6400,0.0000,0.4348,-0.2591,0.0015,996,1502,1527,1502,2008,1000,1505,1000,1000,1001,1005,1000,1013,0.0007,0.0110,0.0620,-0.0026,-0.0093,1.0012,0.6954,-0.1773,-0.6924,0.1742,0.8627,0.2400,0.1321,0.8627,0.2400,0.1321,0.3000,0.0600,0.0002,0,-4.8393,-254.6628,-0.4748,-4.8393,-254.6628,-0.4748,12.7297,50.5666,0.0200,0.2700,0.0000,0.0000,0.0000,0.0000,0.0000,0.0000
-43.2919,31.6321,-12.8829,-0.1657,-0.0000,0.1200,1.6200,0.6400,0.0000,0.4345,-0.2589,0.0016,996,1502,1527,1502,2008,1000,1505,1000,1000,1002,1005,1000,1013,0.0095,0.0258,0.0212,-0.0020,-0.0097,1.0066,0.6951,-0.1772,-0.6918,0.1739,0.8627,0.2400,0.1321,0.8627,0.2400,0.1321,0.3000,0.0600,0.0002,0,-4.8590,-254.6628,-0.4748,-4.8590,-254.6628,-0.4748,12.7135,50.5325,0.0200,0.2700,0.0000,0.0000,0.0000,0.0000,0.0000,0.0000
-43.2565,31.6154,-12.8642,-0.2486,-0.0821,0.1200,1.6200,0.6400,0.0000,0.4342,-0.2588,0.0016,996,1502,1527,1502,2008,1000,1505,1000,1000,1002,1005,1000,1013,-0.0238,0.0266,0.0511,-0.0049,-0.0114,0.9992,0.6946,-0.1770,-0.6915,0.1739,0.8627,0.2400,0.1321,0.8627,0.2400,0.1321,0.3000,0.0600,0.0002,0,-4.8590,-254.6628,-0.4748,-4.8590,-254.6628,-0.4748,12.6979,50.4985,0.0200,0.2700,0.0000,0.0000,0.0000,0.0000,0.0000,0.0000
-43.2213,31.5988,-12.8452,-0.0829,-0.0000,0.2400,1.6800,1.2800,0.0000,0.4350,-0.2581,0.0054,997,1503,1527,1503,2008,1000,1505,1000,1000,1002,1005,1000,1013,-0.0641,0.0024,0.0494,0.0008,-0.0124,1.0007,0.6986,-0.1823,-0.6877,0.1715,0.8627,0.2400,0.1321,0.8627,0.2400,0.1321,0.3000,0.0600,0.0002,0,-4.8590,-254.6628,-0.4748,-4.8590,-254.6628,-0.4748,12.6827,50.4648,0.0400,0.2800,0.0000,0.0000,0.0000,0.0000,0.0000,0.0000
-43.1859,31.5820,-12.8257,-0.0829,-0.0000,0.1200,1.6200,0.6400,0.0000,0.4337,-0.2585,0.0016,996,1502,1527,1502,2008,1000,1505,1000,1000,1001,1005,1000,1013,-0.0390,0.0177,0.0389,-0.0059,-0.0065,0.9971,0.6938,-0.1768,-0.6905,0.1735,0.8627,0.2400,0.1321,0.8627,0.2400,0.1321,0.3000,0.0600,0.0002,0,-4.8393,-254.6628,-0.4748,-4.8393,-254.6628,-0.4748,12.6673,50.4309,0.0200,0.2700,0.0000,0.0000,0.0000,0.0000,0.0000,0.0000
-43.1508,31.5653,-12.8068,-0.1657,-0.0000,0.1200,1.6200,0.6400,0.0000,0.4334,-0.2583,0.0016,996,1502,1527,1502,2008,1000,1505,1000,1000,1001,1005,1000,1013,-0.0961,-0.0298,0.0303,-0.0075,-0.0102,1.0002,0.6934,-0.1768,-0.6901,0.1735,0.8627,0.2400,0.1321,0.8627,0.2400,0.1321,0.3000,0.0600,0.0002,0,-4.8393,-254.6628,-0.4748,-4.8393,-254.6628,-0.4748,12.6517,50.3972,0.0200,0.2700,0.0000,0.0000,0.0000,0.0000,0.0000,0.0000
-43.1152,31.5475,-12.7878,-0.0829,0.0821,0.1200,1.6200,0.6400,0.0000,0.4329,-0.2582,0.0019,996,1502,1527,1502,2008,1000,1505,1000,1000,1002,1005,1000,1013,0.0423,-0.0028,-0.0583,-0.0038,-0.0108,1.0071,0.6930,-0.1767,-0.6892,0.1728,0.8627,0.2400,0.1321,0.8627,0.2400,0.1321,0.3000,0.0600,0.0002,0,-4.8590,-254.6628,-0.4748,-4.8590,-254.6628,-0.4748,12.6364,50.3640,0.0200,0.2700,0.0000,0.0000,0.0000,0.0000,0.0000,0.0000
-43.0793,31.5302,-12.7688,-0.0829,-0.0000,0.1200,1.6200,0.6400,0.0000,0.4326,-0.2580,0.0015,996,1502,1527,1502,2008,1000,1505,1000,1000,1002,1005,1000,1013,0.0420,-0.0617,0.0898,-0.0061,-0.0097,1.0021,0.6921,-0.1761,-0.6891,0.1732,0.8627,0.2400,0.1321,0.8627,0.2400,0.1321,0.3000,0.0600,0.0002,0,-4.8590,-254.6628,-0.4748,-4.8590,-254.6628,-0.4748,12.6210,50.3308,0.0200,0.2700,0.0000,0.0000,0.0000,0.0000,0.0000,0.0000
-43.0430,31.5135,-12.7499,-0.2486,0.0821,0.1200,1.6200,0.6400,0.0000,0.4323,-0.2579,0.0016,996,1502,1527,1502,2008,1000,1505,1000,1000,1002,1005,1000,1013,0.0429,-0.0195,0.0432,-0.0041,-0.0090,1.0046,0.6918,-0.1761,-0.6886,0.1728,0.8627,0.2400,0.1321,0.8627,0.2400,0.1321,0.3000,0.0600,0.0002,0,-4.8590,-254.6628,-0.4748,-4.8590,-254.6628,-0.4748,12.6054,50.2973,0.0200,0.2700,0.0000,0.0000,0.0000,0.0000,0.0000,0.0000
-43.0071,31.4965,-12.7310,-0.0829,-0.0821,0.2400,1.6800,1.2800,0.0000,0.4331,-0.2572,0.0054,997,1503,1527,1503,2008,1000,1505,1000,1000,1001,1005,1000,1013,0.0260,-0.0182,0.0530,-0.0066,-0.0105,1.0002,0.6957,-0.1813,-0.6848,0.1704,0.8627,0.2400,0.1321,0.8627,0.2400,0.1321,0.3000,0.0600,0.0002,0,-4.8393,-254.6628,-0.4748,-4.8393,-254.6628,-0.4748,12.5898,50.2640,0.0400,0.2800,0.0000,0.0000,0.0000,0.0000,0.0000,0.0000
-42.9713,31.4795,-12.7121,-0.1657,-0.0000,0.1200,1.6200,0.6400,0.0000,0.4319,-0.2576,0.0018,996,1502,1527,1502,2008,1000,1505,1000,1000,1001,1005,1000,1013,-0.0823,0.0334,0.0064,-0.0064,-0.0109,1.0018,0.6913,-0.1760,-0.6877,0.1724,0.8627,0.2400,0.1321,0.8627,0.2400,0.1321,0.3000,0.0600,0.0002,0,-4.8393,-254.6628,-0.4748,-4.8393,-254.6628,-0.4748,12.5743,50.2307,0.0200,0.2700,0.0000,0.0000,0.0000,0.0000,0.0000,0.0000
-42.9364,31.4624,-12.6940,-0.0829,0.0821,0.1200,1.6200,0.6400,0.0000,0.4314,-0.2575,0.0020,996,1502,1527,1502,2008,1000,1505,1000,1000,1001,1005,1000,1013,0.0224,0.0644,-0.0525,-0.0028,-0.0096,0.9974,0.6909,-0.1758,-0.6870,0.1719,0.8627,0.2400,0.1321,0.8627,0.2400,0.1321,0.3000,0.0600,0.0002,0,-4.8393,-254.6628,-0.4748,-4.8393,-254.6628,-0.4748,12.5588,50.1970,0.0200,0.2700,0.0000,0.0000,0.0000,0.0000,0.0000,0.0000
-42.9018,31.4453,-12.6762,-0.1657,-0.0000,0.1200,1.6200,0.6400,0.0000,0.4312,-0.2573,0.0019,996,1502,1527,1502,2008,1000,1505,1000,1000,1001,1005,1000,1013,-0.0595,-0.0280,-0.0486,-0.0064,-0.0106,0.9986,0.6903,-0.1758,-0.6866,0.1721,0.8627,0.2400,0.1321,0.8627,0.2400,0.1321,0.3000,0.0600,0.0002,0,-4.8393,-254.6628,-0.4748,-4.8393,-254.6628,-0.4748,12.5431,50.1639,0.0200,0.2700,0.0000,0.0000,0.0000,0.0000,0.0000,0.0000
-42.8670,31.4276,-12.6583,-0.1657,-0.0000,0.1200,1.6200,0.6400,0.0000,0.4308,-0.2571,0.0018,996,1502,1527,1502,2008,1000,1505,1000,1000,1001,1005,1000,1013,0.0076,-0.0175,-0.0298,-0.0062,-0.0075,0.9994,0.6898,-0.1755,-0.6861,0.1719,0.8627,0.2400,0.1321,0.8627,0.2400,0.1321,0.3000,0.0600,0.0002,0,-4.8393,-254.6628,-0.4748,-4.8393,-254.6628,-0.4748,12.5260,50.1305,0.0200,0.2700,0.0000,0.0000,0.0000,0.0000,0.0000,0.0000
-42.8319,31.4104,-12.6406,-0.1657,0.0821,0.1200,1.6200,0.6400,0.0000,0.4305,-0.2570,0.0019,996,1502,1527,1502,2008,1000,1505,1000,1000,1001,1005,1000,1013,0.0038,0.0321,-0.0518,-0.0003,-0.0098,1.0010,0.6895,-0.1754,-0.6857,0.1716,0.8627,0.2400,0.1321,0.8627,0.2400,0.1321,0.3000,0.0600,0.0002,0,-4.8393,-254.6628,-0.4748,-4.8393,-254.6628,-0.4748,12.5099,50.0977,0.0200,0.2700,0.0000,0.0000,0.0000,0.0000,0.0000,0.0000
-42.7963,31.3931,-12.6225,-0.0829,-0.0000,0.2400,1.6800,1.2800,0.0000,0.4312,-0.2564,0.0058,997,1503,1527,1503,2008,1000,1505,1000,1000,1002,1005,1000,1013,0.0276,0.0444,-0.0548,-0.0100,-0.0107,1.0026,0.6934,-0.1806,-0.6818,0.1691,0.8627,0.2400,0.1321,0.8627,0.2400,0.1321,0.3000,0.0600,0.0002,0,-4.8590,-254.6628,-0.4748,-4.8590,-254.6628,-0.4748,12.4936,50.0642,0.0400,0.2800,0.0000,0.0000,0.0000,0.0000,0.0000,0.0000
-42.7611,31.3759,-12.6047,-0.1657,-0.0821,0.1200,1.6200,0.6400,0.0000,0.4299,-0.2568,0.0018,996,1502,1527,1502,2008,1000,1505,1000,1000,1002,1005,1000,1013,0.0256,0.0388,-0.0083,-0.0062,-0.0106,0.9999,0.6885,-0.1749,-0.6849,0.1713,0.8627,0.2400,0.1321,0.8627,0.2400,0.1321,0.3000,0.0600,0.0002,0,-4.8590,-254.6628,-0.4748,-4.8590,-254.6628,-0.4748,12.4776,50.0308,0.0200,0.2700,0.0000,0.0000,0.0000,0.0000,0.0000,0.0000
-42.7260,31.3590,-12.5871,-0.0829,-0.0000,0.1200,1.6200,0.6400,0.0000,0.4296,-0.2565,0.0019,996,1502,1527,1502,2008,1000,1505,1000,1000,1002,1005,1000,1013,-0.0054,-0.0170,-0.0328,-0.0025,-0.0105,1.0019,0.6881,-0.1750,-0.6843,0.1712,0.8627,0.2400,0.1321,0.8627,0.2400,0.1321,0.3000,0.0600,0.0002,0,-4.8590,-254.6628,-0.4748,-4.8590,-254.6628,-0.4748,12.4612,49.9973,0.0200,0.2700,0.0000,0.0000,0.0000,0.0000,0.0000,0.0000
-42.6908,31.3414,-12.5690,-0.1657,0.0821,0.1200,1.6200,0.6400,0.0000,0.4293,-0.2564,0.0018,996,1502,1527,1502,2008,1000,1505,1000,1000,1002,1005,1000,1013,0.0017,0.0117,-0.0205,-0.0077,-0.0096,1.0017,0.6875,-0.1747,-0.6839,0.1711,0.8627,0.2400,0.1321,0.8627,0.2400,0.1321,0.3000,0.0600,0.0002,0,-4.8590,-254.6628,-0.4748,-4.8590,-254.6628,-0.4748,12.4456,49.9638,0.0200,0.2700,0.0000,0.0000,0.0000,0.0000,0.0000,0.0000
-42.6554,31.3240,-12.5499,-0.1657,-0.0821,0.1200,1.6200,0.6400,0.0000,0.4291,-0.2562,0.0016,996,1502,1527,1502,2008,1000,1505,1000,1000,1002,1005,1000,1013,-0.0456,-0.0717,0.0444,-0.0027,-0.0089,1.0047,0.6869,-0.1745,-0.6836,0.1713,0.8627,0.2400,0.1321,0.8627,0.2400,0.1321,0.3000,0.0600,0.0002,0,-4.8590,-254.6628,-0.4748,-4.8590,-254.6628,-0.4748,12.4309,49.9302,0.0200,0.2700,0.0000,0.0000,0.0000,0.0000,0.0000,0.0000
-42.6201,31.3068,-12.5310,-0.0829,0.0821,0.1200,1.6200,0.6400,0.0000,0.4287,-0.2561,0.0016,996,1502,1527,1502,2008,1000,1505,1000,1000,1002,1005,1000,1013,-0.0017,-0.0115,0.0499,-0.0024,-0.0061,1.0024,0.6865,-0.1743,-0.6832,0.1710,0.8627,0.2400,0.1321,0.8627,0.2400,0.1321,0.3000,0.0600,0.0002,0,-4.8590,-254.6628,-0.4748,-4.8590,-254.6628,-0.4748,12.4155,49.8961,0.0200,0.2700,0.0000,0.0000,0.0000,0.0000,0.0000,0.0000
-42.5850,31.2900,-12.5122,-0.1657,-0.0821,0.2400,1.6800,1.2800,0.0000,0.4295,-0.2554,0.0054,997,1503,1527,1503,2008,1000,1505,1000,1000,1002,1005,1000,1013,-0.0236,-0.0004,0.0671,-0.0060,-0.0102,1.0015,0.6903,-0.1795,-0.6795,0.1686,0.8627,0.2400,0.1321,0.8627,0.2400,0.1321,0.3000,0.0600,0.0002,0,-4.8590,-254.6628,-0.4748,-4.8590,-254.6628,-0.4748,12.3996,49.8619,0.0400,0.2800,0.0000,0.0000,0.0000,0.0000,0.0000,0.0000
-42.5496,31.2731,-12.4936,-0.0829,-0.0000,0.1200,1.6200,0.6400,0.0000,0.4281,-0.2558,0.0017,996,1502,1527,1502,2008,1000,1505,1000,1000,1002,1005,1000,1013,-0.0150,-0.0041,0.0277,-0.0050,-0.0071,1.0021,0.6856,-0.1740,-0.6822,0.1706,0.8627,0.2400,0.1321,0.8627,0.2400,0.1321,0.3000,0.0600,0.0002,0,-4.8590,-254.6628,-0.4748,-4.8590,-254.6628,-0.4748,12.3836,49.8288,0.0200,0.2700,0.0000,0.0000,0.0000,0.0000,0.0000,0.0000
-42.5135,31.2561,-12.4747,-0.0829,-0.0000,0.1200,1.6200,0.6400,0.0000,0.4278,-0.2557,0.0017,996,1502,1527,1502,2008,1000,1505,1000,1000,1002,1005,1000,1013,0.0220,-0.0044,0.0500,-0.0062,-0.0089,1.0012,0.6851,-0.1738,-0.6818,0.1704,0.8627,0.2400,0.1321,0.8627,0.2400,0.1321,0.3000,0.0600,0.0002,0,-4.8590,-254.6628,-0.4748,-4.8590,-254.6628,-0.4748,12.3684,49.7950,0.0200,0.2700,0.0000,0.0000,0.0000,0.0000,0.0000,0.0000
-42.4777,31.2390,-12.4558,-0.0829,-0.0000,0.1200,1.6200,0.6400,0.0000,0.4275,-0.2556,0.0017,996,1502,1527,1502,2008,1000,1505,1000,1000,1002,1005,1000,1013,0.0175,0.0235,0.0311,-0.0054,-0.0095,1.0033,0.6847,-0.1736,-0.6813,0.1702,0.8627,0.2400,0.1321,0.8627,0.2400,0.1321,0.3000,0.0600,0.0002,0,-4.8590,-254.6628,-0.4748,-4.8590,-254.6628,-0.4748,12.3534,49.7613,0.0200,0.2700,0.0000,0.0000,0.0000,0.0000,0.0000,0.0000
-42.4417,31.2218,-12.4366,-0.0829,-0.0000,0.1200,1.6200,0.6400,0.0000,0.4272,-0.2553,0.0017,996,1502,1527,1502,2008,1000,1505,1000,1000,1002,1005,1000,1013,-0.0046,-0.0761,0.0371,-0.0017,-0.0106,1.0017,0.6842,-0.1736,-0.6808,0.1702,0.8627,0.2400,0.1321,0.8627,0.2400,0.1321,0.3000,0.0600,0.0002,0,-4.8590,-254.6628,-0.4748,-4.8590,-254.6628,-0.4748,12.3381,49.7280,0.0200,0.2700,0.0000,0.0000,0.0000,0.0000,0.0000,0.0000
-42.4055,31.2040,-12.4173,-0.0829,-0.0000,0.1200,1.6200,0.6400,0.0000,0.4268,-0.2552,0.0019,996,1502,1527,1502,2008,1000,1505,1000,1000,1002,1005,1000,1013,0.0659,0.0205,-0.0082,-0.0052,-0.0118,1.0031,0.6839,-0.1734,-0.6802,0.1697,0.8627,0.2400,0.1321,0.8627,0.2400,0.1321,0.3000,0.0600,0.0002,0,-4.8590,-254.6628,-0.4748,-4.8590,-254.6628,-0.4748,12.3228,49.6950,0.0200,0.2700,0.0000,0.0000,0.0000,0.0000,0.0000,0.0000
-42.3695,31.1871,-12.3986,-0.0829,-0.0000,0.2400,1.6800,1.2800,0.0000,0.4276,-0.2546,0.0053,997,1503,1527,1503,2008,1000,1505,1000,1000,1002,1005,1000,1013,-0.0426,0.0242,0.1124,-0.0047,-0.0103,1.0014,0.6876,-0.1784,-0.6769,0.1677,0.8627,0.2400,0.1321,0.8627,0.2400,0.1321,0.3000,0.0600,0.0002,0,-4.8590,-254.6628,-0.4748,-4.8590,-254.6628,-0.4748,12.3078,49.6614,0.0400,0.2800,0.0000,0.0000,0.0000,0.0000,0.0000,0.0000
-42.3340,31.1699,-12.3797,-0.0829,-0.0000,0.1200,1.6200,0.6400,0.0000,0.4262,-0.2549,0.0017,996,1502,1527,1502,2008,1000,1505,1000,1000,1002,1005,1000,1013,0.0063,-0.0530,0.0552,-0.0023,-0.0071,0.9985,0.6828,-0.1731,-0.6794,0.1697,0.8627,0.2400,0.1321,0.8627,0.2400,0.1321,0.3000,0.0600,0.0002,0,-4.8590,-254.6628,-0.4748,-4.8590,-254.6628,-0.4748,12.2933,49.6287,0.0200,0.2700,0.0000,0.0000,0.0000,0.0000,0.0000,0.0000
-42.2988,31.1524,-12.3612,-0.1657,0.0821,0.1200,1.6200,0.6400,0.0000,0.4260,-0.2548,0.0018,996,1502,1527,1502,2008,1000,1505,1000,1000,1002,1005,1000,1013,-0.0462,-0.0068,0.0104,-0.0055,-0.0112,1.0002,0.6826,-0.1730,-0.6790,0.1695,0.8627,0.2400,0.1321,0.8627,0.2400,0.1321,0.3000,0.0600,0.0002,0,-4.8590,-254.6628,-0.4748,-4.8590,-254.6628,-0.4748,12.2785,49.5953,0.0200,0.2700,0.0000,0.0000,0.0000,0.0000,0.0000,0.0000
-42.2636,31.1347,-12.3427,-0.0829,-0.0821,0.1200,1.6200,0.6400,0.0000,0.4257,-0.2546,0.0018,996,1502,1527,1502,2008,1000,1505,1000,1000,1001,1005,1000,1013,-0.0137,-0.0513,-0.0100,-0.0021,-0.0109,1.0037,0.6820,-0.1729,-0.6784,0.1693,0.8627,0.2400,0.1321,0.8627,0.2400,0.1321,0.3000,0.0600,0.0002,0,-4.8393,-254.6628,-0.4748,-4.8393,-254.6628,-0.4748,12.2630,49.5615,0.0200,0.2700,0.0000,0.0000,0.0000,0.0000,0.0000,0.0000
-42.2283,31.1169,-12.3242,-0.1657,-0.0000,0.1200,1.6200,0.6400,0.0000,0.4253,-0.2544,0.0020,996,1502,1527,1502,2008,1000,1505,1000,1000,1001,1005,1000,1013,0.0032,-0.0448,-0.0628,-0.0046,-0.0117,1.0045,0.6818,-0.1729,-0.6777,0.1689,0.8627,0.2400,0.1321,0.8627,0.2400,0.1321,0.3000,0.0600,0.0002,0,-4.8393,-254.6628,-0.4748,-4.8393,-254.6628,-0.4748,12.2477,49.5284,0.0200,0.2700,0.0000,0.0000,0.0000,0.0000,0.0000,0.0000
-42.1929,31.0990,-12.3065,-0.0829,-0.0000,0.1200,1.6200,0.6400,0.0000,0.4250,-0.2543,0.0020,996,1502,1527,1502,2008,1000,1505,1000,1000,1001,1005,1000,1013,0.0018,0.0215,-0.0538,-0.0048,-0.0109,1.0050,0.6814,-0.1727,-0.6774,0.1687,0.8627,0.2400,0.1321,0.8627,0.2400,0.1321,0.3000,0.0600,0.0002,0,-4.8393,-254.6628,-0.4748,-4.8393,-254.6628,-0.4748,12.2320,49.4952,0.0200,0.2700,0.0000,0.0000,0.0000,0.0000,0.0000,0.0000
-42.1577,31.0815,-12.2890,-0.0829,-0.0000,0.2400,1.6800,1.2800,0.0000,0.4257,-0.2536,0.0058,997,1503,1527,1503,2008,1000,1505,1000,1000,1002,1005,1000,1013,0.0123,0.0017,-0.0377,-0.0043,-0.0094,1.0024,0.6852,-0.1779,-0.6736,0.1663,0.8627,0.2400,0.1321,0.8627,0.2400,0.1321,0.3000,0.0600,0.0002,0,-4.8590,-254.6628,-0.4748,-4.8590,-254.6628,-0.4748,12.2157,49.4614,0.0400,0.2800,0.0000,0.0000,0.0000,0.0000,0.0000,0.0000
-42.1224,31.0636,-12.2711,-0.1657,-0.0000,0.1200,1.6200,0.6400,0.0000,0.4244,-0.2540,0.0019,996,1502,1527,1502,2008,1000,1505,1000,1000,1002,1005,1000,1013,0.0052,-0.0108,-0.0361,-0.0063,-0.0098,1.0048,0.6803,-0.1723,-0.6765,0.1685,0.8627,0.2400,0.1321,0.8627,0.2400,0.1321,0.3000,0.0600,0.0002,0,-4.8590,-254.6628,-0.4748,-4.8590,-254.6628,-0.4748,12.1995,49.4271,0.0200,0.2700,0.0000,0.0000,0.0000,0.0000,0.0000,0.0000
-42.0870,31.0460,-12.2528,-0.0829,-0.0000,0.1200,1.6200,0.6400,0.0000,0.4242,-0.2538,0.0019,996,1502,1527,1502,2008,1000,1505,1000,1000,1001,1005,1000,1013,-0.0682,-0.0066,-0.0141,-0.0039,-0.0105,1.0053,0.6800,-0.1723,-0.6761,0.1684,0.8627,0.2400,0.1321,0.8627,0.2400,0.1321,0.3000,0.0600,0.0002,0,-4.8393,-254.6628,-0.4748,-4.8393,-254.6628,-0.4748,12.1823,49.3932,0.0200,0.2700,0.0000,0.0000,0.0000,0.0000,0.0000,0.0000
-42.0519,31.0286,-12.2347,-0.1657,-0.0000,0.1200,1.6200,0.6400,0.0000,0.4238,-0.2538,0.0018,996,1502,1527,1502,2008,1000,1505,1000,1000,1001,1005,1000,1013,0.0218,0.0372,0.0190,-0.0043,-0.0121,1.0021,0.6793,-0.1718,-0.6757,0.1682,0.8627,0.2400,0.1321,0.8627,0.2400,0.1321,0.3000,0.0600,0.0002,0,-4.8393,-254.6628,-0.4748,-4.8393,-254.6628,-0.4748,12.1662,49.3589,0.0200,0.2700,0.0000,0.0000,0.0000,0.0000,0.0000,0.0000
-42.0166,31.0114,-12.2163,-0.0829,-0.0000,0.1200,1.6200,0.6400,0.0000,0.4235,-0.2535,0.0018,996,1502,1527,1502,2008,1000,1505,1000,1000,1002,1005,1000,1013,-0.0208,-0.0123,0.0221,-0.0039,-0.0118,1.0005,0.6789,-0.1718,-0.6753,0.1682,0.8627,0.2400,0.1321,0.8627,0.2400,0.1321,0.3000,0.0600,0.0002,0,-4.8590,-254.6628,-0.4748,-4.8590,-254.6628,-0.4748,12.1499,49.3257,0.0200,0.2700,0.0000,0.0000,0.0000,0.0000,0.0000,0.0000
-41.9816,30.9943,-12.1982,-0.2486,-0.1642,0.1200,1.6200,0.6400,0.0000,0.4232,-0.2534,0.0020,996,1502,1527,1502,2008,1000,1505,1000,1000,1002,1005,1000,1013,-0.0194,0.0223,-0.0373,-0.0029,-0.0058,1.0069,0.6787,-0.1718,-0.6747,0.1678,0.8627,0.2400,0.1321,0.8627,0.2400,0.1321,0.3000,0.0600,0.0002,0,-4.8590,-254.6628,-0.4748,-4.8590,-254.6628,-0.4748,12.1344,49.2921,0.0200,0.2700,0.0000,0.0000,0.0000,0.0000,0.0000,0.0000
-41.9462,30.9774,-12.1800,-0.0829,-0.0000,0.2400,1.6800,1.2800,0.0000,0.4240,-0.2529,0.0055,997,1503,1527,1503,2008,1000,1505,1000,1000,1002,1005,1000,1013,-0.0347,0.0804,0.0762,-0.0041,-0.0078,1.0068,0.6823,-0.1766,-0.6713,0.1656,0.8627,0.2400,0.1321,0.8627,0.2400,0.1321,0.3000,0.0600,0.0002,0,-4.8590,-254.6628,-0.4748,-4.8590,-254.6628,-0.4748,12.1193,49.2585,0.0400,0.2800,0.0000,0.0000,0.0000,0.0000,0.0000,0.0000
-41.9111,30.9607,-12.1615,-0.2486,-0.0821,0.1200,1.6200,0.6400,0.0000,0.4226,-0.2531,0.0017,996,1502,1527,1502,2008,1000,1505,1000,1000,1002,1005,1000,1013,-0.0361,0.0028,0.0459,-0.0083,-0.0078,1.0021,0.6775,-0.1712,-0.6741,0.1678,0.8627,0.2400,0.1321,0.8627,0.2400,0.1321,0.3000,0.0600,0.0002,0,-4.8590,-254.6628,-0.4748,-4.8590,-254.6628,-0.4748,12.1051,49.2244,0.0200,0.2700,0.0000,0.0000,0.0000,0.0000,0.0000,0.0000
-41.8758,30.9434,-12.1431,-0.0829,-0.0000,0.1200,1.6200,0.6400,0.0000,0.4223,-0.2529,0.0017,996,1502,1527,1502,2008,1000,1505,1000,1000,1002,1005,1000,1013,-0.0177,-0.0184,0.0622,-0.0054,-0.0102,1.0047,0.6770,-0.1711,-0.6736,0.1677,0.8627,0.2400,0.1321,0.8627,0.2400,0.1321,0.3000,0.0600,0.0002,0,-4.8590,-254.6628,-0.4748,-4.8590,-254.6628,-0.4748,12.0909,49.1904,0.0200,0.2700,0.0000,0.0000,0.0000,0.0000,0.0000,0.0000
-41.8399,30.9257,-12.1244,-0.0829,-0.0821,0.1200,1.6200,0.6400,0.0000,0.4219,-0.2528,0.0017,996,1502,1527,1502,2008,1000,1505,1000,1000,1002,1005,1000,1013,0.0504,-0.0243,0.0638,-0.0065,-0.0088,1.0066,0.6764,-0.1708,-0.6730,0.1674,0.8627,0.2400,0.1321,0.8627,0.2400,0.1321,0.3000,0.0600,0.0002,0,-4.8590,-254.6628,-0.4748,-4.8590,-254.6628,-0.4748,12.0755,49.1558,0.0200,0.2700,0.0000,0.0000,0.0000,0.0000,0.0000,0.0000
-41.8038,30.9087,-12.1057,-0.0829,-0.0000,0.1200,1.6200,0.6400,0.0000,0.4216,-0.2527,0.0018,996,1502,1527,1502,2008,1000,1505,1000,1000,1002,1005,1000,1013,0.0526,0.0112,0.0258,-0.0044,-0.0108,1.0012,0.6761,-0.1708,-0.6725,0.1671,0.8627,0.2400,0.1321,0.8627,0.2400,0.1321,0.3000,0.0600,0.0002,0,-4.8590,-254.6628,-0.4748,-4.8590,-254.6628,-0.4748,12.0610,49.1216,0.0200,0.2700,0.0000,0.0000,0.0000,0.0000,0.0000,0.0000
-41.7681,30.8914,-12.0871,-0.1657,-0.0000,0.1200,1.6200,0.6400,0.0000,0.4214,-0.2526,0.0017,996,1502,1527,1502,2008,1000,1505,1000,1000,1001,1005,1000,1013,0.0110,0.0337,0.0542,-0.0017,-0.0096,1.0025,0.6756,-0.1705,-0.6722,0.1671,0.8627,0.2400,0.1321,0.8627,0.2400,0.1321,0.3000,0.0600,0.0002,0,-4.8393,-254.6628,-0.4748,-4.8393,-254.6628,-0.4748,12.0466,49.0877,0.0200,0.2700,0.0000,0.0000,0.0000,0.0000,0.0000,0.0000
-41.7330,30.8738,-12.0688,-0.0829,-0.0000,0.2400,1.6800,1.2800,0.0000,0.4222,-0.2519,0.0057,997,1503,1527,1503,2008,1000,1505,1000,1000,1001,1005,1000,1013,-0.0553,0.0201,0.0111,-0.0058,-0.0081,1.0035,0.6798,-0.1760,-0.6684,0.1646,0.8627,0.2400,0.1321,0.8627,0.2400,0.1321,0.3000,0.0600,0.0002,0,-4.8393,-254.6628,-0.4748,-4.8393,-254.6628,-0.4748,12.0318,49.0546,0.0400,0.2800,0.0000,0.0000,0.0000,0.0000,0.0000,0.0000
-41.6979,30.8560,-12.0504,-0.0829,-0.0821,0.1200,1.6200,0.6400,0.0000,0.4208,-0.2522,0.0018,996,1502,1527,1502,2008,1000,1505,1000,1000,1001,1005,1000,1013,-0.0406,-0.0253,0.0307,-0.0031,-0.0108,0.9978,0.6748,-0.1705,-0.6712,0.1668,0.8627,0.2400,0.1321,0.8627,0.2400,0.1321,0.3000,0.0600,0.0002,0,-4.8393,-254.6628,-0.4748,-4.8393,-254.6628,-0.4748,12.0170,49.0210,0.0200,0.2700,0.0000,0.0000,0.0000,0.0000,0.0000,0.0000
-41.6626,30.8382,-12.0319,-0.0829,-0.0821,0.1200,1.6200,0.6400,0.0000,0.4204,-0.2520,0.0019,996,1502,1527,1502,2008,1000,1505,1000,1000,1002,1005,1000,1013,0.0314,-0.0767,0.0131,-0.0053,-0.0093,1.0059,0.6742,-0.1703,-0.6705,0.1666,0.8627,0.2400,0.1321,0.8627,0.2400,0.1321,0.3000,0.0600,0.0002,0,-4.8590,-254.6628,-0.4748,-4.8590,-254.6628,-0.4748,12.0016,48.9874,0.0200,0.2700,0.0000,0.0000,0.0000,0.0000,0.0000,0.0000
-41.6266,30.8202,-12.0131,-0.1657,0.0821,0.1200,1.6200,0.6400,0.0000,0.4201,-0.2518,0.0021,996,1502,1527,1502,2008,1000,1505,1000,1000,1002,1005,1000,1013,0.0110,-0.0635,-0.0413,-0.0071,-0.0088,0.9978,0.6740,-0.1704,-0.6699,0.1662,0.8627,0.2400,0.1321,0.8627,0.2400,0.1321,0.3000,0.0600,0.0002,0,-4.8590,-254.6628,-0.4748,-4.8590,-254.6628,-0.4748,11.9858,48.9535,0.0200,0.2700,0.0000,0.0000,0.0000,0.0000,0.0000,0.0000
-41.5916,30.8021,-11.9951,-0.0829,-0.0000,0.1200,1.6200,0.6400,0.0000,0.4199,-0.2517,0.0018,996,1502,1527,1502,2008,1000,1505,1000,1000,1002,1005,1000,1013,-0.0413,-0.0165,0.0395,-0.0032,-0.0104,1.0016,0.6734,-0.1700,-0.6698,0.1664,0.8627,0.2400,0.1321,0.8627,0.2400,0.1321,0.3000,0.0600,0.0002,0,-4.8590,-254.6628,-0.4748,-4.8590,-254.6628,-0.4748,11.9709,48.9198,0.0200,0.2700,0.0000,0.0000,0.0000,0.0000,0.0000,0.0000
-41.5559,30.7846,-11.9767,-0.1657,-0.0000,0.1200,1.6200,0.6400,0.0000,0.4195,-0.2517,0.0020,996,1502,1527,1502,2008,1000,1505,1000,1000,1002,1005,1000,1013,0.0128,0.0569,-0.0225,-0.0057,-0.0072,1.0066,0.6732,-0.1699,-0.6692,0.1658,0.8627,0.2400,0.1321,0.8627,0.2400,0.1321,0.3000,0.0600,0.0002,0,-4.8590,-254.6628,-0.4748,-4.8590,-254.6628,-0.4748,11.9557,48.8860,0.0200,0.2700,0.0000,0.0000,0.0000,0.0000,0.0000,0.0000
-41.5209,30.7665,-11.9590,-0.0829,-0.0000,0.2400,1.6800,1.2800,0.0000,0.4203,-0.2509,0.0059,997,1503,1527,1503,2008,1000,1505,1000,1000,1002,1005,1000,1013,0.0151,-0.0250,-0.0270,-0.0061,-0.0103,1.0024,0.6770,-0.1752,-0.6653,0.1635,0.8627,0.2400,0.1321,0.8627,0.2400,0.1321,0.3000,0.0600,0.0002,0,-4.8590,-254.6628,-0.4748,-4.8590,-254.6628,-0.4748,11.9403,48.8525,0.0400,0.2800,0.0000,0.0000,0.0000,0.0000,0.0000,0.0000
-41.4858,30.7489,-11.9413,-0.0829,-0.0000,0.1200,1.6200,0.6400,0.0000,0.4190,-0.2513,0.0019,996,1502,1527,1502,2008,1000,1505,1000,1000,1002,1005,1000,1013,-0.0573,0.0282,-0.0023,-0.0030,-0.0071,0.9994,0.6723,-0.1696,-0.6684,0.1657,0.8627,0.2400,0.1321,0.8627,0.2400,0.1321,0.3000,0.0600,0.0002,0,-4.8590,-254.6628,-0.4748,-4.8590,-254.6628,-0.4748,11.9249,48.8185,0.0200,0.2700,0.0000,0.0000,0.0000,0.0000,0.0000,0.0000
-41.4508,30.7309,-11.9236,-0.0829,-0.0000,0.1200,1.6200,0.6400,0.0000,0.4187,-0.2511,0.0021,996,1502,1527,1502,2008,1000,1505,1000,1000,1002,1005,1000,1013,-0.0264,-0.0662,-0.0672,-0.0070,-0.0140,1.0045,0.6718,-0.1697,-0.6676,0.1655,0.8627,0.2400,0.1321,0.8627,0.2400,0.1321,0.3000,0.0600,0.0002,0,-4.8590,-254.6628,-0.4748,-4.8590,-254.6628,-0.4748,11.9092,48.7844,0.0200,0.2700,0.0000,0.0000,0.0000,0.0000,0.0000,0.0000
-41.4160,30.7125,-11.9056,-0.1657,-0.0000,0.1200,1.6200,0.6400,0.0000,0.4184,-0.2510,0.0019,996,1502,1527,1502,2008,1000,1505,1000,1000,1002,1005,1000,1013,-0.0858,0.0431,0.0084,-0.0032,-0.0077,1.0051,0.6714,-0.1693,-0.6676,0.1655,0.8627,0.2400,0.1321,0.8627,0.2400,0.1321,0.3000,0.0600,0.0002,0,-4.8590,-254.6628,-0.4748,-4.8590,-254.6628,-0.4748,11.8934,48.7508,0.0200,0.2700,0.0000,0.0000,0.0000,0.0000,0.0000,0.0000
-41.3812,30.6947,-11.8876,-0.0000,0.0821,0.1200,1.6200,0.6400,0.0000,0.4180,-0.2508,0.0017,996,1502,1527,1502,2008,1000,1505,1000,1000,1002,1005,1000,1013,0.0102,-0.0479,0.0652,-0.0060,-0.0070,1.0011,0.6705,-0.1690,-0.6671,0.1655,0.8627,0.2400,0.1321,0.8627,0.2400,0.1321,0.3000,0.0600,0.0002,0,-4.8590,-254.6628,-0.4748,-4.8590,-254.6628,-0.4748,11.8788,48.7169,0.0200,0.2700,0.0000,0.0000,0.0000,0.0000,0.0000,0.0000
-41.3455,30.6770,-11.8686,-0.0829,-0.0000,0.1200,1.6200,0.6400,0.0000,0.4177,-0.2506,0.0019,996,1502,1527,1502,2008,1000,1505,1000,1000,1002,1005,1000,1013,-0.0122,-0.0557,0.0326,-0.0067,-0.0078,1.0017,0.6702,-0.1690,-0.6665,0.1653,0.8627,0.2400,0.1321,0.8627,0.2400,0.1321,0.3000,0.0600,0.0002,0,-4.8590,-254.6628,-0.4748,-4.8590,-254.6628,-0.4748,11.8642,48.6836,0.0200,0.2700,0.0000,0.0000,0.0000,0.0000,0.0000,0.0000
-41.3097,30.6587,-11.8499,-0.2486,-0.0821,0.2400,1.6800,1.2800,0.0000,0.4184,-0.2499,0.0059,997,1503,1527,1503,2008,1000,1505,1000,1000,1002,1005,1000,1013,0.0075,-0.0679,-0.0298,-0.0063,-0.0095,1.0025,0.6742,-0.1744,-0.6625,0.1627,0.8627,0.2400,0.1321,0.8627,0.2400,0.1321,0.3000,0.0600,0.0002,0,-4.8590,-254.6628,-0.4748,-4.8590,-254.6628,-0.4748,11.8494,48.6499,0.0400,0.2800,0.0000,0.0000,0.0000,0.0000,0.0000,0.0000
-41.2739,30.6410,-11.8315,-0.1657,-0.0000,0.1200,1.6200,0.6400,0.0000,0.4171,-0.2504,0.0019,996,1502,1527,1502,2008,1000,1505,1000,1000,1002,1005,1000,1013,0.0304,0.0056,0.0348,-0.0023,-0.0108,1.0054,0.6693,-0.1686,-0.6656,0.1648,0.8627,0.2400,0.1321,0.8627,0.2400,0.1321,0.3000,0.0600,0.0002,0,-4.8590,-254.6628,-0.4748,-4.8590,-254.6628,-0.4748,11.8349,48.6160,0.0200,0.2700,0.0000,0.0000,0.0000,0.0000,0.0000,0.0000
-41.2381,30.6230,-11.8129,-0.1657,-0.1642,0.1200,1.6200,0.6400,0.0000,0.4167,-0.2502,0.0019,996,1502,1527,1502,2008,1000,1505,1000,1000,1001,1005,1000,1013,0.0594,-0.0400,0.0278,-0.0029,-0.0100,1.0023,0.6687,-0.1684,-0.6650,0.1647,0.8627,0.2400,0.1321,0.8627,0.2400,0.1321,0.3000,0.0600,0.0002,0,-4.8393,-254.6628,-0.4748,-4.8393,-254.6628,-0.4748,11.8201,48.5814,0.0200,0.2700,0.0000,0.0000,0.0000,0.0000,0.0000,0.0000
-41.2020,30.6051,-11.7945,-0.1657,0.0821,0.1200,1.6200,0.6400,0.0000,0.4165,-0.2501,0.0019,996,1502,1527,1502,2008,1000,1505,1000,1000,1001,1005,1000,1013,0.0102,0.0164,0.0265,-0.0033,-0.0102,1.0038,0.6684,-0.1683,-0.6647,0.1645,0.8627,0.2400,0.1321,0.8627,0.2400,0.1321,0.3000,0.0600,0.0002,0,-4.8393,-254.6628,-0.4748,-4.8393,-254.6628,-0.4748,11.8063,48.5474,0.0200,0.2700,0.0000,0.0000,0.0000,0.0000,0.0000,0.0000
-41.1659,30.5876,-11.7760,-0.1657,-0.0821,0.1200,1.6200,0.6400,0.0000,0.4161,-0.2499,0.0018,996,1502,1527,1502,2008,1000,1505,1000,1000,1002,1005,1000,1013,0.0219,-0.0398,0.0607,-0.0048,-0.0105,1.0028,0.6678,-0.1681,-0.6642,0.1645,0.8627,0.2400,0.1321,0.8627,0.2400,0.1321,0.3000,0.0600,0.0002,0,-4.8590,-254.6628,-0.4748,-4.8590,-254.6628,-0.4748,11.7925,48.5131,0.0200,0.2700,0.0000,0.0000,0.0000,0.0000,0.0000,0.0000
-41.1304,30.5700,-11.7573,-0.2486,-0.0000,0.1200,1.6200,0.6400,0.0000,0.4159,-0.2498,0.0019,996,1502,1527,1502,2008,1000,1505,1000,1000,1002,1005,1000,1013,-0.0317,0.0085,0.0407,-0.0043,-0.0091,1.0018,0.6675,-0.1680,-0.6638,0.1643,0.8627,0.2400,0.1321,0.8627,0.2400,0.1321,0.3000,0.0600,0.0002,0,-4.8590,-254.6628,-0.4748,-4.8590,-254.6628,-0.4748,11.7779,48.4788,0.0200,0.2700,0.0000,0.0000,0.0000,0.0000,0.0000,0.0000
-41.0951,30.5518,-11.7392,-0.0829,-0.0000,0.2400,1.6800,1.2800,0.0000,0.4165,-0.2491,0.0057,997,1503,1527,1503,2008,1000,1505,1000,1000,1001,1005,1000,1013,0.0517,-0.0180,0.0177,-0.0048,-0.0111,1.0027,0.6713,-0.1732,-0.6599,0.1617,0.8627,0.2400,0.1321,0.8627,0.2400,0.1321,0.3000,0.0600,0.0002,0,-4.8393,-254.6628,-0.4748,-4.8393,-254.6628,-0.4748,11.7629,48.4449,0.0400,0.2800,0.0000,0.0000,0.0000,0.0000,0.0000,0.0000
-41.0597,30.5338,-11.7210,-0.1657,-0.0000,0.1200,1.6200,0.6400,0.0000,0.4153,-0.2494,0.0019,996,1502,1527,1502,2008,1000,1505,1000,1000,1001,1005,1000,1013,-0.0035,-0.0227,0.0142,-0.0037,-0.0095,0.9996,0.6666,-0.1678,-0.6627,0.1639,0.8627,0.2400,0.1321,0.8627,0.2400,0.1321,0.3000,0.0600,0.0002,0,-4.8393,-254.6628,-0.4748,-4.8393,-254.6628,-0.4748,11.7473,48.4114,0.0200,0.2700,0.0000,0.0000,0.0000,0.0000,0.0000,0.0000
-41.0238,30.5158,-11.7033,-0.0829,0.0821,0.1200,1.6200,0.6400,0.0000,0.4149,-0.2493,0.0020,996,1502,1527,1502,2008,1000,1505,1000,1000,1001,1005,1000,1013,0.0251,-0.0095,0.0065,-0.0062,-0.0099,1.0043,0.6662,-0.1676,-0.6622,0.1637,0.8627,0.2400,0.1321,0.8627,0.2400,0.1321,0.3000,0.0600,0.0002,0,-4.8393,-254.6628,-0.4748,-4.8393,-254.6628,-0.4748,11.7324,48.3772,0.0200,0.2700,0.0000,0.0000,0.0000,0.0000,0.0000,0.0000
-40.9886,30.4974,-11.6854,-0.1657,-0.0000,0.1200,1.6200,0.6400,0.0000,0.4147,-0.2491,0.0021,996,1502,1527,1502,2008,1000,1505,1000,1000,1002,1005,1000,1013,-0.0119,-0.0055,-0.0314,-0.0053,-0.0092,1.0018,0.6658,-0.1676,-0.6617,0.1635,0.8627,0.2400,0.1321,0.8627,0.2400,0.1321,0.3000,0.0600,0.0002,0,-4.8590,-254.6628,-0.4748,-4.8590,-254.6628,-0.4748,11.7175,48.3432,0.0200,0.2700,0.0000,0.0000,0.0000,0.0000,0.0000,0.0000
-40.9531,30.4787,-11.6678,-0.1657,-0.0000,0.1200,1.6200,0.6400,0.0000,0.4143,-0.2489,0.0022,996,1502,1527,1502,2008,1000,1505,1000,1000,1002,1005,1000,1013,0.0661,-0.0430,-0.0679,-0.0004,-0.0083,1.0004,0.6654,-0.1676,-0.6609,0.1631,0.8627,0.2400,0.1321,0.8627,0.2400,0.1321,0.3000,0.0600,0.0002,0,-4.8590,-254.6628,-0.4748,-4.8590,-254.6628,-0.4748,11.7027,48.3090,0.0200,0.2700,0.0000,0.0000,0.0000,0.0000,0.0000,0.0000
-40.9175,30.4603,-11.6503,-0.0829,-0.0821,0.1200,1.6200,0.6400,0.0000,0.4140,-0.2488,0.0021,996,1502,1527,1502,2008,1000,1505,1000,1000,1002,1005,1000,1013,0.0259,-0.0076,-0.0401,-0.0063,-0.0047,1.0021,0.6649,-0.1673,-0.6607,0.1631,0.8627,0.2400,0.1321,0.8627,0.2400,0.1321,0.3000,0.0600,0.0002,0,-4.8590,-254.6628,-0.4748,-4.8590,-254.6628,-0.4748,11.6875,48.2749,0.0200,0.2700,0.0000,0.0000,0.0000,0.0000,0.0000,0.0000
-40.8821,30.4415,-11.6327,-0.0829,-0.0000,0.2400,1.6800,1.2800,0.0000,0.4148,-0.2481,0.0059,997,1503,1527,1503,2008,1000,1505,1000,1000,1002,1005,1000,1013,-0.0409,-0.0438,-0.0306,-0.0086,-0.0092,1.0050,0.6688,-0.1727,-0.6570,0.1608,0.8627,0.2400,0.1321,0.8627,0.2400,0.1321,0.3000,0.0600,0.0002,0,-4.8590,-254.6628,-0.4748,-4.8590,-254.6628,-0.4748,11.6711,48.2411,0.0400,0.2800,0.0000,0.0000,0.0000,0.0000,0.0000,0.0000
-40.8469,30.4227,-11.6150,-0.0829,-0.0000,0.1200,1.6200,0.6400,0.0000,0.4134,-0.2485,0.0022,996,1502,1527,1502,2008,1000,1505,1000,1000,1002,1005,1000,1013,-0.0168,0.0401,-0.0631,-0.0037,-0.0085,1.0010,0.6642,-0.1671,-0.6598,0.1627,0.8627,0.2400,0.1321,0.8627,0.2400,0.1321,0.3000,0.0600,0.0002,0,-4.8590,-254.6628,-0.4748,-4.8590,-254.6628,-0.4748,11.6545,48.2070,0.0200,0.2700,0.0000,0.0000,0.0000,0.0000,0.0000,0.0000
-40.8115,30.4044,-11.5974,-0.0829,-0.0821,0.1200,1.6200,0.6400,0.0000,0.4131,-0.2483,0.0021,996,1502,1527,1502,2008,1000,1505,1000,1000,1001,1005,1000,1013,-0.0194,-0.0156,-0.0163,-0.0037,-0.0101,1.0035,0.6635,-0.1669,-0.6594,0.1628,0.8627,0.2400,0.1321,0.8627,0.2400,0.1321,0.3000,0.0600,0.0002,0,-4.8393,-254.6628,-0.4748,-4.8393,-254.6628,-0.4748,11.6383,48.1729,0.0200,0.2700,0.0000,0.0000,0.0000,0.0000,0.0000,0.0000
-40.7764,30.3864,-11.5792,-0.2486,-0.0000,0.1200,1.6200,0.6400,0.0000,0.4129,-0.2481,0.0018,996,1502,1527,1502,2008,1000,1505,1000,1000,1001,1005,1000,1013,-0.0524,-0.0614,0.0781,-0.0047,-0.0079,1.0005,0.6628,-0.1666,-0.6592,0.1630,0.8627,0.2400,0.1321,0.8627,0.2400,0.1321,0.3000,0.0600,0.0002,0,-4.8393,-254.6628,-0.4748,-4.8393,-254.6628,-0.4748,11.6227,48.1382,0.0200,0.2700,0.0000,0.0000,0.0000,0.0000,0.0000,0.0000
-40.7410,30.3682,-11.5601,-0.0829,-0.0000,0.1200,1.6200,0.6400,0.0000,0.4125,-0.2479,0.0017,996,1502,1527,1502,2008,1000,1505,1000,1000,1002,1005,1000,1013,-0.0301,-0.0721,0.0843,-0.0034,-0.0057,0.9999,0.6622,-0.1664,-0.6587,0.1629,0.8627,0.2400,0.1321,0.8627,0.2400,0.1321,0.3000,0.0600,0.0002,0,-4.8590,-254.6628,-0.4748,-4.8590,-254.6628,-0.4748,11.6075,48.1032,0.0200,0.2700,0.0000,0.0000,0.0000,0.0000,0.0000,0.0000
-40.7054,30.3505,-11.5408,-0.1657,-0.0000,0.1200,1.6200,0.6400,0.0000,0.4123,-0.2478,0.0016,996,1502,1527,1502,2008,1000,1505,1000,1000,1002,1005,1000,1013,-0.0675,-0.0753,0.1224,-0.0046,-0.0087,0.9986,0.6617,-0.1661,-0.6584,0.1629,0.8627,0.2400,0.1321,0.8627,0.2400,0.1321,0.3000,0.0600,0.0002,0,-4.8590,-254.6628,-0.4748,-4.8590,-254.6628,-0.4748,11.5936,48.0683,0.0200,0.2700,0.0000,0.0000,0.0000,0.0000,0.0000,0.0000
-40.6696,30.3329,-11.5220,-0.0829,-0.0000,0.2400,1.6800,1.2800,0.0000,0.4129,-0.2472,0.0055,997,1503,1527,1503,2008,1000,1505,1000,1000,1002,1005,1000,1013,0.0107,0.0162,0.1156,-0.0051,-0.0112,1.0010,0.6656,-0.1712,-0.6546,0.1602,0.8627,0.2400,0.1321,0.8627,0.2400,0.1321,0.3000,0.0600,0.0002,0,-4.8590,-254.6628,-0.4748,-4.8590,-254.6628,-0.4748,11.5791,48.0335,0.0400,0.2800,0.0000,0.0000,0.0000,0.0000,0.0000,0.0000
-40.6336,30.3152,-11.5032,-0.2486,0.0821,0.1200,1.6200,0.6400,0.0000,0.4116,-0.2476,0.0018,996,1502,1527,1502,2008,1000,1505,1000,1000,1002,1005,1000,1013,0.0107,-0.0019,0.0826,-0.0049,-0.0085,1.0060,0.6609,-0.1658,-0.6574,0.1623,0.8627,0.2400,0.1321,0.8627,0.2400,0.1321,0.3000,0.0600,0.0002,0,-4.8590,-254.6628,-0.4748,-4.8590,-254.6628,-0.4748,11.5659,47.9987,0.0200,0.2700,0.0000,0.0000,0.0000,0.0000,0.0000,0.0000
-40.5973,30.2973,-11.4841,-0.1657,0.0821,0.1200,1.6200,0.6400,0.0000,0.4113,-0.2474,0.0018,996,1502,1527,1502,2008,1000,1505,1000,1000,1002,1005,1000,1013,-0.0219,-0.0266,0.1015,-0.0050,-0.0070,1.0000,0.6604,-0.1657,-0.6569,0.1622,0.8627,0.2400,0.1321,0.8627,0.2400,0.1321,0.3000,0.0600,0.0002,0,-4.8590,-254.6628,-0.4748,-4.8590,-254.6628,-0.4748,11.5520,47.9639,0.0200,0.2700,0.0000,0.0000,0.0000,0.0000,0.0000,0.0000
-40.5620,30.2795,-11.4654,-0.2486,-0.0821,0.1200,1.6200,0.6400,0.0000,0.4111,-0.2472,0.0020,996,1502,1527,1502,2008,1000,1505,1000,1000,1002,1005,1000,1013,-0.0688,-0.0139,0.0281,-0.0028,-0.0106,1.0038,0.6603,-0.1658,-0.6563,0.1618,0.8627,0.2400,0.1321,0.8627,0.2400,0.1321,0.3000,0.0600,0.0002,0,-4.8590,-254.6628,-0.4748,-4.8590,-254.6628,-0.4748,11.5380,47.9292,0.0200,0.2700,0.0000,0.0000,0.0000,0.0000,0.0000,0.0000
-40.5268,30.2615,-11.4472,-0.0829,-0.0000,0.1200,1.6200,0.6400,0.0000,0.4107,-0.2471,0.0019,996,1502,1527,1502,2008,1000,1505,1000,1000,1002,1005,1000,1013,-0.0015,-0.0027,0.0463,-0.0053,-0.0088,1.0038,0.6596,-0.1654,-0.6559,0.1617,0.8627,0.2400,0.1321,0.8627,0.2400,0.1321,0.3000,0.0600,0.0002,0,-4.8590,-254.6628,-0.4748,-4.8590,-254.6628,-0.4748,11.5232,47.8948,0.0200,0.2700,0.0000,0.0000,0.0000,0.0000,0.0000,0.0000
-40.4917,30.2433,-11.4293,-0.1657,-0.0821,0.1200,1.6200,0.6400,0.0000,0.4104,-0.2469,0.0020,996,1502,1527,1502,2008,1000,1505,1000,1000,1002,1005,1000,1013,-0.0496,-0.0005,0.0101,-0.0078,-0.0085,1.0011,0.6593,-0.1655,-0.6554,0.1615,0.8627,0.2400,0.1321,0.8627,0.2400,0.1321,0.3000,0.0600,0.0002,0,-4.8590,-254.6628,-0.4748,-4.8590,-254.6628,-0.4748,11.5087,47.8601,0.0200,0.2700,0.0000,0.0000,0.0000,0.0000,0.0000,0.0000
-40.4562,30.2251,-11.4115,-0.0829,-0.0000,0.2400,1.6800,1.2800,0.0000,0.4111,-0.2463,0.0060,997,1503,1527,1503,2008,1000,1505,1000,1000,1002,1005,1000,1013,0.0142,0.0194,-0.0175,0.0005,-0.0109,0.9997,0.6633,-0.1708,-0.6514,0.1588,0.8627,0.2400,0.1321,0.8627,0.2400,0.1321,0.3000,0.0600,0.0002,0,-4.8590,-254.6628,-0.4748,-4.8590,-254.6628,-0.4748,11.4937,47.8253,0.0400,0.2800,0.0000,0.0000,0.0000,0.0000,0.0000,0.0000
-40.4210,30.2071,-11.3939,-0.1657,-0.0000,0.1200,1.6200,0.6400,0.0000,0.4098,-0.2466,0.0021,996,1502,1527,1502,2008,1000,1505,1000,1000,1002,1005,1000,1013,-0.0166,0.0107,-0.0068,-0.0038,-0.0102,1.0013,0.6585,-0.1653,-0.6543,0.1610,0.8627,0.2400,0.1321,0.8627,0.2400,0.1321,0.3000,0.0600,0.0002,0,-4.8590,-254.6628,-0.4748,-4.8590,-254.6628,-0.4748,11.4787,47.7912,0.0200,0.2700,0.0000,0.0000,0.0000,0.0000,0.0000,0.0000
-40.3860,30.1886,-11.3768,-0.0000,0.0821,0.1200,1.6200,0.6400,0.0000,0.4094,-0.2464,0.0023,996,1502,1527,1502,2008,1000,1505,1000,1000,1001,1005,1000,1013,0.0109,-0.0094,-0.0706,-0.0034,-0.0072,1.0023,0.6582,-0.1653,-0.6536,0.1607,0.8627,0.2400,0.1321,0.8627,0.2400,0.1321,0.3000,0.0600,0.0002,0,-4.8393,-254.6628,-0.4748,-4.8393,-254.6628,-0.4748,11.4640,47.7573,0.0200,0.2700,0.0000,0.0000,0.0000,0.0000,0.0000,0.0000
-40.3504,30.1698,-11.3596,-0.0000,0.0821,0.1200,1.6200,0.6400,0.0000,0.4090,-0.2463,0.0022,996,1502,1527,1502,2008,1000,1505,1000,1000,1001,1005,1000,1013,0.0949,-0.0331,-0.0668,-0.0041,-0.0073,1.0044,0.6575,-0.1650,-0.6530,0.1605,0.8627,0.2400,0.1321,0.8627,0.2400,0.1321,0.3000,0.0600,0.0002,0,-4.8393,-254.6628,-0.4748,-4.8393,-254.6628,-0.4748,11.4485,47.7225,0.0200,0.2700,0.0000,0.0000,0.0000,0.0000,0.0000,0.0000
-40.3147,30.1511,-11.3420,-0.1657,0.1642,0.1200,1.6200,0.6400,0.0000,0.4088,-0.2461,0.0022,996,1502,1527,1502,2008,1000,1505,1000,1000,1002,1005,1000,1013,0.0186,-0.0601,-0.0509,-0.0043,-0.0088,1.0029,0.6571,-0.1650,-0.6527,0.1605,0.8627,0.2400,0.1321,0.8627,0.2400,0.1321,0.3000,0.0600,0.0002,0,-4.8590,-254.6628,-0.4748,-4.8590,-254.6628,-0.4748,11.4330,47.6878,0.0200,0.2700,0.0000,0.0000,0.0000,0.0000,0.0000,0.0000
-40.2794,30.1320,-11.3243,-0.0829,-0.0000,0.1200,1.6200,0.6400,0.0000,0.4086,-0.2460,0.0022,996,1502,1527,1502,2008,1000,1505,1000,1000,1002,1005,1000,1013,-0.0248,0.0152,-0.0536,-0.0035,-0.0094,1.0015,0.6568,-0.1648,-0.6523,0.1603,0.8627,0.2400,0.1321,0.8627,0.2400,0.1321,0.3000,0.0600,0.0002,0,-4.8590,-254.6628,-0.4748,-4.8590,-254.6628,-0.4748,11.4170,47.6531,0.0200,0.2700,0.0000,0.0000,0.0000,0.0000,0.0000,0.0000
-40.2447,30.1131,-11.3073,-0.1657,-0.0000,0.2400,1.6800,1.2800,0.0000,0.4092,-0.2453,0.0061,997,1503,1527,1503,2008,1000,1505,1000,1000,1002,1005,1000,1013,0.0203,0.0041,-0.0570,-0.0054,-0.0110,0.9977,0.6606,-0.1700,-0.6485,0.1579,0.8627,0.2400,0.1321,0.8627,0.2400,0.1321,0.3000,0.0600,0.0002,0,-4.8590,-254.6628,-0.4748,-4.8590,-254.6628,-0.4748,11.4016,47.6186,0.0400,0.2800,0.0000,0.0000,0.0000,0.0000,0.0000,0.0000
-40.2096,30.0940,-11.2904,-0.0829,0.0821,0.1200,1.6200,0.6400,0.0000,0.4079,-0.2456,0.0024,996,1502,1527,1502,2008,1000,1505,1000,1000,1001,1005,1000,1013,-0.0067,-0.0031,-0.1190,-0.0048,-0.0096,1.0049,0.6560,-0.1647,-0.6511,0.1598,0.8627,0.2400,0.1321,0.8627,0.2400,0.1321,0.3000,0.0600,0.0002,0,-4.8393,-254.6628,-0.4748,-4.8393,-254.6628,-0.4748,11.3872,47.5840,0.0200,0.2700,0.0000,0.0000,0.0000,0.0000,0.0000,0.0000
-40.1746,30.0749,-11.2732,-0.0829,-0.0000,0.1200,1.6200,0.6400,0.0000,0.4076,-0.2455,0.0023,996,1502,1527,1502,2008,1000,1505,1000,1000,1001,1005,1000,1013,-0.0071,-0.0066,-0.0579,-0.0032,-0.0099,1.0039,0.6554,-0.1645,-0.6508,0.1598,0.8627,0.2400,0.1321,0.8627,0.2400,0.1321,0.3000,0.0600,0.0002,0,-4.8393,-254.6628,-0.4748,-4.8393,-254.6628,-0.4748,11.3723,47.5497,0.0200,0.2700,0.0000,0.0000,0.0000,0.0000,0.0000,0.0000
-40.1395,30.0565,-11.2564,-0.0829,-0.0000,0.1200,1.6200,0.6400,0.0000,0.4074,-0.2454,0.0023,996,1502,1527,1502,2008,1000,1505,1000,1000,1001,1005,1000,1013,-0.0421,0.0634,-0.0690,-0.0038,-0.0122,1.0064,0.6551,-0.1642,-0.6505,0.1597,0.8627,0.2400,0.1321,0.8627,0.2400,0.1321,0.3000,0.0600,0.0002,0,-4.8393,-254.6628,-0.4748,-4.8393,-254.6628,-0.4748,11.3572,47.5153,0.0200,0.2700,0.0000,0.0000,0.0000,0.0000,0.0000,0.0000
-40.1048,30.0382,-11.2395,-0.0829,-0.0000,0.1200,1.6200,0.6400,0.0000,0.4071,-0.2452,0.0022,996,1502,1527,1502,2008,1000,1505,1000,1000,1001,1005,1000,1013,-0.0244,0.0294,-0.0360,-0.0042,-0.0089,1.0054,0.6545,-0.1640,-0.6501,0.1596,0.8627,0.2400,0.1321,0.8627,0.2400,0.1321,0.3000,0.0600,0.0002,0,-4.8393,-254.6628,-0.4748,-4.8393,-254.6628,-0.4748,11.3420,47.4811,0.0200,0.2700,0.0000,0.0000,0.0000,0.0000,0.0000,0.0000
-40.0689,30.0196,-11.2218,-0.1657,-0.0000,0.1200,1.6200,0.6400,0.0000,0.4067,-0.2449,0.0020,996,1502,1527,1502,2008,1000,1505,1000,1000,1002,1005,1000,1013,-0.0053,-0.0546,0.0239,-0.0028,-0.0085,1.0013,0.6537,-0.1638,-0.6496,0.1598,0.8627,0.2400,0.1321,0.8627,0.2400,0.1321,0.3000,0.0600,0.0002,0,-4.8590,-254.6628,-0.4748,-4.8590,-254.6628,-0.4748,11.3268,47.4468,0.0200,0.2700,0.0000,0.0000,0.0000,0.0000,0.0000,0.0000
-40.0329,30.0015,-11.2035,-0.0829,-0.0000,0.2400,1.6800,1.2800,0.0000,0.4074,-0.2443,0.0058,997,1503,1527,1503,2008,1000,1505,1000,1000,1001,1005,1000,1013,0.0060,0.0061,0.0634,-0.0077,-0.0079,1.0044,0.6576,-0.1689,-0.6460,0.1573,0.8627,0.2400,0.1321,0.8627,0.2400,0.1321,0.3000,0.0600,0.0002,0,-4.8393,-254.6628,-0.4748,-4.8393,-254.6628,-0.4748,11.3121,47.4120,0.0400,0.2800,0.0000,0.0000,0.0000,0.0000,0.0000,0.0000
-39.9966,29.9838,-11.1847,-0.0829,-0.0000,0.1200,1.6200,0.6400,0.0000,0.4061,-0.2447,0.0018,996,1502,1527,1502,2008,1000,1505,1000,1000,1001,1005,1000,1013,0.0148,-0.0067,0.1100,-0.0045,-0.0092,1.0065,0.6525,-0.1631,-0.6490,0.1596,0.8627,0.2400,0.1321,0.8627,0.2400,0.1321,0.3000,0.0600,0.0002,0,-4.8393,-254.6628,-0.4748,-4.8393,-254.6628,-0.4748,11.2986,47.3779,0.0200,0.2700,0.0000,0.0000,0.0000,0.0000,0.0000,0.0000
-39.9607,29.9656,-11.1658,-0.0000,-0.0000,0.1200,1.6200,0.6400,0.0000,0.4058,-0.2445,0.0019,996,1502,1527,1502,2008,1000,1505,1000,1000,1002,1005,1000,1013,0.0055,-0.0397,0.0868,-0.0056,-0.0099,1.0046,0.6522,-0.1632,-0.6484,0.1594,0.8627,0.2400,0.1321,0.8627,0.2400,0.1321,0.3000,0.0600,0.0002,0,-4.8590,-254.6628,-0.4748,-4.8590,-254.6628,-0.4748,11.2851,47.3432,0.0200,0.2700,0.0000,0.0000,0.0000,0.0000,0.0000,0.0000
-39.9249,29.9476,-11.1474,-0.1657,-0.0000,0.1200,1.6200,0.6400,0.0000,0.4055,-0.2443,0.0018,996,1502,1527,1502,2008,1000,1505,1000,1000,1002,1005,1000,1013,0.0107,-0.0475,0.1028,-0.0045,-0.0081,1.0003,0.6516,-0.1629,-0.6480,0.1593,0.8627,0.2400,0.1321,0.8627,0.2400,0.1321,0.3000,0.0600,0.0002,0,-4.8590,-254.6628,-0.4748,-4.8590,-254.6628,-0.4748,11.2704,47.3087,0.0200,0.2700,0.0000,0.0000,0.0000,0.0000,0.0000,0.0000
-39.8896,29.9294,-11.1293,-0.2486,-0.0821,0.1200,1.6200,0.6400,0.0000,0.4052,-0.2442,0.0021,996,1502,1527,1502,2008,1000,1505,1000,1000,1002,1005,1000,1013,-0.0563,-0.0201,0.0104,0.0008,-0.0081,1.0054,0.6515,-0.1631,-0.6474,0.1590,0.8627,0.2400,0.1321,0.8627,0.2400,0.1321,0.3000,0.0600,0.0002,0,-4.8590,-254.6628,-0.4748,-4.8590,-254.6628,-0.4748,11.2560,47.2737,0.0200,0.2700,0.0000,0.0000,0.0000,0.0000,0.0000,0.0000
-39.8540,29.9109,-11.1108,-0.1657,0.0821,0.1200,1.6200,0.6400,0.0000,0.4048,-0.2441,0.0019,996,1502,1527,1502,2008,1000,1505,1000,1000,1002,1005,1000,1013,0.0405,-0.0055,0.0502,-0.0045,-0.0084,1.0052,0.6508,-0.1627,-0.6469,0.1588,0.8627,0.2400,0.1321,0.8627,0.2400,0.1321,0.3000,0.0600,0.0002,0,-4.8590,-254.6628,-0.4748,-4.8590,-254.6628,-0.4748,11.2427,47.2392,0.0200,0.2700,0.0000,0.0000,0.0000,0.0000,0.0000,0.0000
-39.8182,29.8927,-11.0925,-0.2486,-0.0821,0.2400,1.6800,1.2800,0.0000,0.4057,-0.2434,0.0057,997,1503,1527,1503,2008,1000,1505,1000,1000,1002,1005,1000,1013,-0.0801,0.0280,0.0810,-0.0038,-0.0065,1.0041,0.6548,-0.1680,-0.6434,0.1565,0.8627,0.2400,0.1321,0.8627,0.2400,0.1321,0.3000,0.0600,0.0002,0,-4.8590,-254.6628,-0.4748,-4.8590,-254.6628,-0.4748,11.2289,47.2048,0.0400,0.2800,0.0000,0.0000,0.0000,0.0000,0.0000,0.0000
-39.7828,29.8744,-11.0745,-0.1657,-0.0000,0.1200,1.6200,0.6400,0.0000,0.4043,-0.2437,0.0021,996,1502,1527,1502,2008,1000,1505,1000,1000,1001,1005,1000,1013,-0.0090,-0.0023,-0.0009,-0.0035,-0.0095,0.9994,0.6501,-0.1626,-0.6459,0.1584,0.8627,0.2400,0.1321,0.8627,0.2400,0.1321,0.3000,0.0600,0.0002,0,-4.8393,-254.6628,-0.4748,-4.8393,-254.6628,-0.4748,11.2148,47.1706,0.0200,0.2700,0.0000,0.0000,0.0000,0.0000,0.0000,0.0000
-39.7472,29.8557,-11.0567,-0.1657,-0.1642,0.1200,1.6200,0.6400,0.0000,0.4039,-0.2436,0.0021,996,1502,1527,1502,2008,1000,1505,1000,1000,1001,1005,1000,1013,0.0354,-0.0228,0.0137,-0.0071,-0.0085,0.9994,0.6495,-0.1624,-0.6453,0.1582,0.8627,0.2400,0.1321,0.8627,0.2400,0.1321,0.3000,0.0600,0.0002,0,-4.8393,-254.6628,-0.4748,-4.8393,-254.6628,-0.4748,11.2008,47.1366,0.0200,0.2700,0.0000,0.0000,0.0000,0.0000,0.0000,0.0000
-39.7115,29.8371,-11.0387,-0.0829,-0.0000,0.1200,1.6200,0.6400,0.0000,0.4036,-0.2435,0.0021,996,1502,1527,1502,2008,1000,1505,1000,1000,1002,1005,1000,1013,-0.0011,0.0201,0.0187,-0.0012,-0.0089,1.0029,0.6492,-0.1623,-0.6450,0.1581,0.8627,0.2400,0.1321,0.8627,0.2400,0.1321,0.3000,0.0600,0.0002,0,-4.8590,-254.6628,-0.4748,-4.8590,-254.6628,-0.4748,11.1864,47.1020,0.0200,0.2700,0.0000,0.0000,0.0000,0.0000,0.0000,0.0000
-39.6757,29.8180,-11.0209,-0.0829,-0.0000,0.1200,1.6200,0.6400,0.0000,0.4033,-0.2432,0.0023,996,1502,1527,1502,2008,1000,1505,1000,1000,1002,1005,1000,1013,0.0436,-0.0606,-0.0385,-0.0029,-0.0101,1.0026,0.6487,-0.1623,-0.6442,0.1578,0.8627,0.2400,0.1321,0.8627,0.2400,0.1321,0.3000,0.0600,0.0002,0,-4.8590,-254.6628,-0.4748,-4.8590,-254.6628,-0.4748,11.1721,47.0668,0.0200,0.2700,0.0000,0.0000,0.0000,0.0000,0.0000,0.0000
-39.6403,29.7993,-11.0035,-0.1657,0.0821,0.1200,1.6200,0.6400,0.0000,0.4031,-0.2431,0.0024,996,1502,1527,1502,2008,1000,1505,1000,1000,1002,1005,1000,1013,-0.0434,0.0166,-0.0774,-0.0058,-0.0109,1.0017,0.6486,-0.1623,-0.6438,0.1575,0.8627,0.2400,0.1321,0.8627,0.2400,0.1321,0.3000,0.0600,0.0002,0,-4.8590,-254.6628,-0.4748,-4.8590,-254.6628,-0.4748,11.1579,47.0321,0.0200,0.2700,0.0000,0.0000,0.0000,0.0000,0.0000,0.0000
-39.6062,29.7809,-10.9866,-0.0000,0.0821,0.2400,1.6800,1.2800,0.0000,0.4039,-0.2425,0.0059,997,1503,1527,1503,2008,1000,1505,1000,1000,1002,1005,1000,1013,-0.0778,0.0388,0.0283,-0.0020,-0.0083,1.0013,0.6522,-0.1673,-0.6404,0.1555,0.8627,0.2400,0.1321,0.8627,0.2400,0.1321,0.3000,0.0600,0.0002,0,-4.8590,-254.6628,-0.4748,-4.8590,-254.6628,-0.4748,11.1436,46.9976,0.0400,0.2800,0.0000,0.0000,0.0000,0.0000,0.0000,0.0000
-39.5715,29.7623,-10.9694,-0.0829,-0.0000,0.1200,1.6200,0.6400,0.0000,0.4024,-0.2428,0.0024,996,1502,1527,1502,2008,1000,1505,1000,1000,1002,1005,1000,1013,-0.0136,0.0317,-0.0879,-0.0029,-0.0122,0.9984,0.6477,-0.1621,-0.6428,0.1572,0.8627,0.2400,0.1321,0.8627,0.2400,0.1321,0.3000,0.0600,0.0002,0,-4.8590,-254.6628,-0.4748,-4.8590,-254.6628,-0.4748,11.1286,46.9627,0.0200,0.2700,0.0000,0.0000,0.0000,0.0000,0.0000,0.0000
-39.5364,29.7430,-10.9527,-0.0000,0.0821,0.1200,1.6200,0.6400,0.0000,0.4021,-0.2426,0.0024,996,1502,1527,1502,2008,1000,1505,1000,1000,1002,1005,1000,1013,0.0114,0.0069,-0.0918,-0.0030,-0.0098,1.0022,0.6472,-0.1619,-0.6423,0.1570,0.8627,0.2400,0.1321,0.8627,0.2400,0.1321,0.3000,0.0600,0.0002,0,-4.8590,-254.6628,-0.4748,-4.8590,-254.6628,-0.4748,11.1133,46.9281,0.0200,0.2700,0.0000,0.0000,0.0000,0.0000,0.0000,0.0000
-39.5020,29.7242,-10.9358,-0.0829,-0.0000,0.1200,1.6200,0.6400,0.0000,0.4019,-0.2425,0.0023,996,1502,1527,1502,2008,1000,1505,1000,1000,1002,1005,1000,1013,-0.0244,0.0134,-0.0533,-0.0022,-0.0074,0.9998,0.6466,-0.1617,-0.6420,0.1571,0.8627,0.2400,0.1321,0.8627,0.2400,0.1321,0.3000,0.0600,0.0002,0,-4.8590,-254.6628,-0.4748,-4.8590,-254.6628,-0.4748,11.0979,46.8935,0.0200,0.2700,0.0000,0.0000,0.0000,0.0000,0.0000,0.0000
-39.4669,29.7052,-10.9188,-0.1657,-0.0000,0.1200,1.6200,0.6400,0.0000,0.4016,-0.2423,0.0023,996,1502,1527,1502,2008,1000,1505,1000,1000,1002,1005,1000,1013,-0.0415,0.0066,-0.0323,-0.0064,-0.0077,0.9996,0.6461,-0.1615,-0.6416,0.1570,0.8627,0.2400,0.1321,0.8627,0.2400,0.1321,0.3000,0.0600,0.0002,0,-4.8590,-254.6628,-0.4748,-4.8590,-254.6628,-0.4748,11.0822,46.8582,0.0200,0.2700,0.0000,0.0000,0.0000,0.0000,0.0000,0.0000
-39.4314,29.6861,-10.9014,-0.1657,-0.0000,0.1200,1.6200,0.6400,0.0000,0.4012,-0.2421,0.0022,996,1502,1527,1502,2008,1000,1505,1000,1000,1002,1005,1000,1013,-0.0120,-0.0564,-0.0066,-0.0046,-0.0066,1.0004,0.6455,-0.1614,-0.6411,0.1570,0.8627,0.2400,0.1321,0.8627,0.2400,0.1321,0.3000,0.0600,0.0002,0,-4.8590,-254.6628,-0.4748,-4.8590,-254.6628,-0.4748,11.0672,46.8239,0.0200,0.2700,0.0000,0.0000,0.0000,0.0000,0.0000,0.0000
-39.3957,29.6673,-10.8831,-0.0829,-0.0000,0.2400,1.6800,1.2800,0.0000,0.4020,-0.2413,0.0058,997,1503,1527,1503,2008,1000,1505,1000,1000,1002,1005,1000,1013,-0.0122,-0.0743,0.0574,-0.0052,-0.0109,1.0024,0.6491,-0.1664,-0.6375,0.1548,0.8627,0.2400,0.1321,0.8627,0.2400,0.1321,0.3000,0.0600,0.0002,0,-4.8590,-254.6628,-0.4748,-4.8590,-254.6628,-0.4748,11.0529,46.7894,0.0400,0.2800,0.0000,0.0000,0.0000,0.0000,0.0000,0.0000
-39.3601,29.6482,-10.8649,-0.1657,-0.0000,0.1200,1.6200,0.6400,0.0000,0.4006,-0.2417,0.0021,996,1502,1527,1502,2008,1000,1505,1000,1000,1002,1005,1000,1013,-0.0204,-0.0517,0.0342,-0.0050,-0.0097,0.9995,0.6444,-0.1610,-0.6403,0.1568,0.8627,0.2400,0.1321,0.8627,0.2400,0.1321,0.3000,0.0600,0.0002,0,-4.8590,-254.6628,-0.4748,-4.8590,-254.6628,-0.4748,11.0396,46.7543,0.0200,0.2700,0.0000,0.0000,0.0000,0.0000,0.0000,0.0000
-39.3245,29.6301,-10.8470,-0.0829,0.0821,0.1200,1.6200,0.6400,0.0000,0.4002,-0.2417,0.0018,996,1502,1527,1502,2008,1000,1505,1000,1000,1002,1005,1000,1013,0.0470,0.0416,0.1375,-0.0023,-0.0079,1.0025,0.6437,-0.1603,-0.6402,0.1568,0.8627,0.2400,0.1321,0.8627,0.2400,0.1321,0.3000,0.0600,0.0002,0,-4.8590,-254.6628,-0.4748,-4.8590,-254.6628,-0.4748,11.0268,46.7194,0.0200,0.2700,0.0000,0.0000,0.0000,0.0000,0.0000,0.0000
-39.2887,29.6126,-10.8285,-0.0829,-0.0000,0.1200,1.6200,0.6400,0.0000,0.4001,-0.2416,0.0019,996,1502,1527,1502,2008,1000,1505,1000,1000,1001,1005,1000,1013,-0.0590,0.0822,0.1254,-0.0030,-0.0107,1.0014,0.6435,-0.1603,-0.6398,0.1566,0.8627,0.2400,0.1321,0.8627,0.2400,0.1321,0.3000,0.0600,0.0002,0,-4.8393,-254.6628,-0.4748,-4.8393,-254.6628,-0.4748,11.0143,46.6849,0.0200,0.2700,0.0000,0.0000,0.0000,0.0000,0.0000,0.0000
-39.2532,29.5951,-10.8101,-0.0829,-0.0000,0.1200,1.6200,0.6400,0.0000,0.3997,-0.2414,0.0019,996,1502,1527,1502,2008,1000,1505,1000,1000,1001,1005,1000,1013,-0.0266,0.0393,0.1151,-0.0040,-0.0086,1.0045,0.6430,-0.1602,-0.6392,0.1565,0.8627,0.2400,0.1321,0.8627,0.2400,0.1321,0.3000,0.0600,0.0002,0,-4.8393,-254.6628,-0.4748,-4.8393,-254.6628,-0.4748,11.0014,46.6501,0.0200,0.2700,0.0000,0.0000,0.0000,0.0000,0.0000,0.0000
-39.2174,29.5771,-10.7915,-0.1657,-0.0000,0.1200,1.6200,0.6400,0.0000,0.3993,-0.2411,0.0019,996,1502,1527,1502,2008,1000,1505,1000,1000,1002,1005,1000,1013,0.0162,-0.0497,0.0992,-0.0027,-0.0090,1.0024,0.6424,-0.1602,-0.6385,0.1563,0.8627,0.2400,0.1321,0.8627,0.2400,0.1321,0.3000,0.0600,0.0002,0,-4.8590,-254.6628,-0.4748,-4.8590,-254.6628,-0.4748,10.9882,46.6152,0.0200,0.2700,0.0000,0.0000,0.0000,0.0000,0.0000,0.0000
-39.1817,29.5588,-10.7733,-0.0829,-0.0000,0.2400,1.6800,1.2800,0.0000,0.4000,-0.2405,0.0059,997,1503,1527,1503,2008,1000,1505,1000,1000,1001,1005,1000,1013,0.0461,0.0143,0.0583,-0.0023,-0.0088,1.0039,0.6464,-0.1654,-0.6347,0.1536,0.8627,0.2400,0.1321,0.8627,0.2400,0.1321,0.3000,0.0600,0.0002,0,-4.8393,-254.6628,-0.4748,-4.8393,-254.6628,-0.4748,10.9751,46.5804,0.0400,0.2800,0.0000,0.0000,0.0000,0.0000,0.0000,0.0000
-39.1455,29.5401,-10.7553,-0.2486,-0.0821,0.1200,1.6200,0.6400,0.0000,0.3987,-0.2408,0.0022,996,1502,1527,1502,2008,1000,1505,1000,1000,1001,1005,1000,1013,0.0617,-0.0589,-0.0110,-0.0027,-0.0061,0.9992,0.6417,-0.1601,-0.6372,0.1556,0.8627,0.2400,0.1321,0.8627,0.2400,0.1321,0.3000,0.0600,0.0002,0,-4.8393,-254.6628,-0.4748,-4.8393,-254.6628,-0.4748,10.9610,46.5455,0.0200,0.2700,0.0000,0.0000,0.0000,0.0000,0.0000,0.0000
-39.1093,29.5211,-10.7373,-0.0829,0.0821,0.1200,1.6200,0.6400,0.0000,0.3984,-0.2406,0.0021,996,1502,1527,1502,2008,1000,1505,1000,1000,1001,1005,1000,1013,0.0364,-0.0584,0.0448,-0.0028,-0.0086,0.9991,0.6411,-0.1598,-0.6369,0.1557,0.8627,0.2400,0.1321,0.8627,0.2400,0.1321,0.3000,0.0600,0.0002,0,-4.8393,-254.6628,-0.4748,-4.8393,-254.6628,-0.4748,10.9470,46.5105,0.0200,0.2700,0.0000,0.0000,0.0000,0.0000,0.0000,0.0000
-39.0736,29.5018,-10.7194,-0.1657,-0.0821,0.1200,1.6200,0.6400,0.0000,0.3982,-0.2404,0.0023,996,1502,1527,1502,2008,1000,1505,1000,1000,1001,1005,1000,1013,-0.0322,-0.0860,-0.0252,-0.0088,-0.0133,1.0041,0.6409,-0.1601,-0.6363,0.1554,0.8627,0.2400,0.1321,0.8627,0.2400,0.1321,0.3000,0.0600,0.0002,0,-4.8393,-254.6628,-0.4748,-4.8393,-254.6628,-0.4748,10.9334,46.4755,0.0200,0.2700,0.0000,0.0000,0.0000,0.0000,0.0000,0.0000
-39.0384,29.4823,-10.7017,-0.1657,-0.0000,0.1200,1.6200,0.6400,0.0000,0.3979,-0.2403,0.0023,996,1502,1527,1502,2008,1000,1505,1000,1000,1001,1005,1000,1013,-0.0675,-0.0300,-0.0355,-0.0033,-0.0095,1.0017,0.6406,-0.1599,-0.6359,0.1553,0.8627,0.2400,0.1321,0.8627,0.2400,0.1321,0.3000,0.0600,0.0002,0,-4.8393,-254.6628,-0.4748,-4.8393,-254.6628,-0.4748,10.9184,46.4404,0.0200,0.2700,0.0000,0.0000,0.0000,0.0000,0.0000,0.0000
-39.0035,29.4634,-10.6849,-0.1657,-0.0821,0.1200,1.6200,0.6400,0.0000,0.3976,-0.2403,0.0023,996,1502,1527,1502,2008,1000,1505,1000,1000,1001,1005,1000,1013,-0.0550,0.0401,-0.0214,-0.0041,-0.0097,1.0033,0.6401,-0.1596,-0.6356,0.1551,0.8627,0.2400,0.1321,0.8627,0.2400,0.1321,0.3000,0.0600,0.0002,0,-4.8393,-254.6628,-0.4748,-4.8393,-254.6628,-0.4748,10.9030,46.4059,0.0200,0.2700,0.0000,0.0000,0.0000,0.0000,0.0000,0.0000
-38.9688,29.4445,-10.6680,-0.0829,0.0821,0.2400,1.6800,1.2800,0.0000,0.3983,-0.2395,0.0060,997,1503,1527,1503,2008,1000,1505,1000,1000,1002,1005,1000,1013,-0.0012,0.0041,0.0148,-0.0032,-0.0079,1.0043,0.6438,-0.1648,-0.6318,0.1527,0.8627,0.2400,0.1321,0.8627,0.2400,0.1321,0.3000,0.0600,0.0002,0,-4.8590,-254.6628,-0.4748,-4.8590,-254.6628,-0.4748,10.8875,46.3715,0.0400,0.2800,0.0000,0.0000,0.0000,0.0000,0.0000,0.0000
-38.9338,29.4256,-10.6514,-0.0829,-0.0000,0.1200,1.6200,0.6400,0.0000,0.3969,-0.2399,0.0024,996,1502,1527,1502,2008,1000,1505,1000,1000,1001,1005,1000,1013,0.0148,0.0434,-0.0410,-0.0033,-0.0077,1.0039,0.6392,-0.1593,-0.6345,0.1546,0.8627,0.2400,0.1321,0.8627,0.2400,0.1321,0.3000,0.0600,0.0002,0,-4.8393,-254.6628,-0.4748,-4.8393,-254.6628,-0.4748,10.8725,46.3368,0.0200,0.2700,0.0000,0.0000,0.0000,0.0000,0.0000,0.0000
-38.8987,29.4062,-10.6350,-0.1657,-0.0000,0.1200,1.6200,0.6400,0.0000,0.3966,-0.2397,0.0025,996,1502,1527,1502,2008,1000,1505,1000,1000,1001,1005,1000,1013,0.0394,-0.0019,-0.0953,-0.0035,-0.0072,1.0031,0.6388,-0.1594,-0.6338,0.1543,0.8627,0.2400,0.1321,0.8627,0.2400,0.1321,0.3000,0.0600,0.0002,0,-4.8393,-254.6628,-0.4748,-4.8393,-254.6628,-0.4748,10.8576,46.3018,0.0200,0.2700,0.0000,0.0000,0.0000,0.0000,0.0000,0.0000
-38.8635,29.3870,-10.6183,-0.0829,-0.0000,0.1200,1.6200,0.6400,0.0000,0.3963,-0.2396,0.0023,996,1502,1527,1502,2008,1000,1505,1000,1000,1001,1005,1000,1013,-0.0256,0.0349,-0.0019,-0.0027,-0.0068,1.0034,0.6382,-0.1590,-0.6337,0.1545,0.8627,0.2400,0.1321,0.8627,0.2400,0.1321,0.3000,0.0600,0.0002,0,-4.8393,-254.6628,-0.4748,-4.8393,-254.6628,-0.4748,10.8428,46.2664,0.0200,0.2700,0.0000,0.0000,0.0000,0.0000,0.0000,0.0000
-38.8280,29.3682,-10.6010,-0.1657,-0.0000,0.1200,1.6200,0.6400,0.0000,0.3960,-0.2394,0.0022,996,1502,1527,1502,2008,1000,1505,1000,1000,1001,1005,1000,1013,0.0282,0.0066,0.0011,-0.0038,-0.0081,0.9997,0.6376,-0.1588,-0.6331,0.1543,0.8627,0.2400,0.1321,0.8627,0.2400,0.1321,0.3000,0.0600,0.0002,0,-4.8393,-254.6628,-0.4748,-4.8393,-254.6628,-0.4748,10.8283,46.2318,0.0200,0.2700,0.0000,0.0000,0.0000,0.0000,0.0000,0.0000
-38.7923,29.3496,-10.5839,-0.1657,-0.0000,0.1200,1.6200,0.6400,0.0000,0.3956,-0.2393,0.0022,996,1502,1527,1502,2008,1000,1505,1000,1000,1002,1005,1000,1013,0.0403,0.0747,0.0132,-0.0047,-0.0089,1.0040,0.6372,-0.1585,-0.6327,0.1541,0.8627,0.2400,0.1321,0.8627,0.2400,0.1321,0.3000,0.0600,0.0002,0,-4.8590,-254.6628,-0.4748,-4.8590,-254.6628,-0.4748,10.8143,46.1967,0.0200,0.2700,0.0000,0.0000,0.0000,0.0000,0.0000,0.0000
-38.7575,29.3310,-10.5670,-0.0829,0.0821,0.2400,1.6800,1.2800,0.0000,0.3964,-0.2386,0.0061,997,1503,1527,1503,2008,1000,1505,1000,1000,1002,1005,1000,1013,0.0078,0.0354,0.0039,-0.0026,-0.0098,1.0002,0.6411,-0.1639,-0.6289,0.1517,0.8627,0.2400,0.1321,0.8627,0.2400,0.1321,0.3000,0.0600,0.0002,0,-4.8590,-254.6628,-0.4748,-4.8590,-254.6628,-0.4748,10.7998,46.1614,0.0400,0.2800,0.0000,0.0000,0.0000,0.0000,0.0000,0.0000
-38.7218,29.3125,-10.5494,-0.0829,-0.0000,0.1200,1.6200,0.6400,0.0000,0.3952,-0.2389,0.0022,996,1502,1527,1502,2008,1000,1505,1000,1000,1002,1005,1000,1013,-0.0570,0.0209,0.0338,-0.0058,-0.0099,0.9988,0.6363,-0.1584,-0.6319,0.1541,0.8627,0.2400,0.1321,0.8627,0.2400,0.1321,0.3000,0.0600,0.0002,0,-4.8590,-254.6628,-0.4748,-4.8590,-254.6628,-0.4748,10.7859,46.1259,0.0200,0.2700,0.0000,0.0000,0.0000,0.0000,0.0000,0.0000
-38.6864,29.2936,-10.5313,-0.0829,-0.0000,0.1200,1.6200,0.6400,0.0000,0.3948,-0.2386,0.0022,996,1502,1527,1502,2008,1000,1505,1000,1000,1002,1005,1000,1013,-0.0386,-0.0792,0.0482,-0.0081,-0.0100,1.0013,0.6356,-0.1584,-0.6313,0.1540,0.8627,0.2400,0.1321,0.8627,0.2400,0.1321,0.3000,0.0600,0.0002,0,-4.8590,-254.6628,-0.4748,-4.8590,-254.6628,-0.4748,10.7728,46.0906,0.0200,0.2700,0.0000,0.0000,0.0000,0.0000,0.0000,0.0000
-38.6507,29.2746,-10.5131,-0.0829,-0.0000,0.1200,1.6200,0.6400,0.0000,0.3945,-0.2385,0.0021,996,1502,1527,1502,2008,1000,1505,1000,1000,1002,1005,1000,1013,-0.0188,-0.0732,0.0593,-0.0038,-0.0106,1.0034,0.6351,-0.1581,-0.6309,0.1539,0.8627,0.2400,0.1321,0.8627,0.2400,0.1321,0.3000,0.0600,0.0002,0,-4.8590,-254.6628,-0.4748,-4.8590,-254.6628,-0.4748,10.7595,46.0561,0.0200,0.2700,0.0000,0.0000,0.0000,0.0000,0.0000,0.0000
-38.6153,29.2555,-10.4949,-0.1657,-0.0000,0.1200,1.6200,0.6400,0.0000,0.3943,-0.2384,0.0022,996,1502,1527,1502,2008,1000,1505,1000,1000,1002,1005,1000,1013,-0.0665,-0.0359,0.0265,-0.0025,-0.0087,1.0007,0.6349,-0.1581,-0.6304,0.1537,0.8627,0.2400,0.1321,0.8627,0.2400,0.1321,0.3000,0.0600,0.0002,0,-4.8590,-254.6628,-0.4748,-4.8590,-254.6628,-0.4748,10.7461,46.0206,0.0200,0.2700,0.0000,0.0000,0.0000,0.0000,0.0000,0.0000
-38.5800,29.2365,-10.4769,-0.0829,0.0821,0.1200,1.6200,0.6400,0.0000,0.3939,-0.2383,0.0021,996,1502,1527,1502,2008,1000,1505,1000,1000,1002,1005,1000,1013,-0.0226,0.0223,0.0586,-0.0014,-0.0073,1.0001,0.6343,-0.1577,-0.6301,0.1535,0.8627,0.2400,0.1321,0.8627,0.2400,0.1321,0.3000,0.0600,0.0002,0,-4.8590,-254.6628,-0.4748,-4.8590,-254.6628,-0.4748,10.7323,45.9851,0.0200,0.2700,0.0000,0.0000,0.0000,0.0000,0.0000,0.0000
-38.5440,29.2179,-10.4589,-0.0829,-0.0000,0.2400,1.6800,1.2800,0.0000,0.3945,-0.2376,0.0059,997,1503,1527,1503,2008,1000,1505,1000,1000,1002,1005,1000,1013,0.0754,-0.0121,0.0559,-0.0041,-0.0090,1.0015,0.6380,-0.1629,-0.6261,0.1510,0.8627,0.2400,0.1321,0.8627,0.2400,0.1321,0.3000,0.0600,0.0002,0,-4.8590,-254.6628,-0.4748,-4.8590,-254.6628,-0.4748,10.7191,45.9497,0.0400,0.2800,0.0000,0.0000,0.0000,0.0000,0.0000,0.0000
-38.5075,29.1993,-10.4401,-0.0829,-0.0000,0.1200,1.6200,0.6400,0.0000,0.3932,-0.2379,0.0020,996,1502,1527,1502,2008,1000,1505,1000,1000,1002,1005,1000,1013,0.0151,0.0096,0.0867,-0.0058,-0.0094,1.0025,0.6332,-0.1573,-0.6291,0.1532,0.8627,0.2400,0.1321,0.8627,0.2400,0.1321,0.3000,0.0600,0.0002,0,-4.8590,-254.6628,-0.4748,-4.8590,-254.6628,-0.4748,10.7065,45.9149,0.0200,0.2700,0.0000,0.0000,0.0000,0.0000,0.0000,0.0000
-38.4715,29.1807,-10.4222,-0.1657,-0.0821,0.1200,1.6200,0.6400,0.0000,0.3929,-0.2377,0.0021,996,1502,1527,1502,2008,1000,1505,1000,1000,1002,1005,1000,1013,-0.0014,-0.0161,0.0836,-0.0062,-0.0098,1.0011,0.6327,-0.1573,-0.6286,0.1531,0.8627,0.2400,0.1321,0.8627,0.2400,0.1321,0.3000,0.0600,0.0002,0,-4.8590,-254.6628,-0.4748,-4.8590,-254.6628,-0.4748,10.6926,45.8795,0.0200,0.2700,0.0000,0.0000,0.0000,0.0000,0.0000,0.0000
-38.4359,29.1618,-10.4040,-0.1657,-0.0000,0.1200,1.6200,0.6400,0.0000,0.3926,-0.2376,0.0021,996,1502,1527,1502,2008,1000,1505,1000,1000,1002,1005,1000,1013,0.0035,0.0025,0.0606,-0.0062,-0.0140,1.0005,0.6323,-0.1571,-0.6281,0.1529,0.8627,0.2400,0.1321,0.8627,0.2400,0.1321,0.3000,0.0600,0.0002,0,-4.8590,-254.6628,-0.4748,-4.8590,-254.6628,-0.4748,10.6795,45.8441,0.0200,0.2700,0.0000,0.0000,0.0000,0.0000,0.0000,0.0000
-38.4008,29.1430,-10.3866,-0.2486,-0.0821,0.1200,1.6200,0.6400,0.0000,0.3924,-0.2375,0.0022,996,1502,1527,1502,2008,1000,1505,1000,1000,1002,1005,1000,1013,-0.0473,0.0238,0.0299,-0.0045,-0.0109,1.0053,0.6320,-0.1571,-0.6277,0.1527,0.8627,0.2400,0.1321,0.8627,0.2400,0.1321,0.3000,0.0600,0.0002,0,-4.8590,-254.6628,-0.4748,-4.8590,-254.6628,-0.4748,10.6654,45.8084,0.0200,0.2700,0.0000,0.0000,0.0000,0.0000,0.0000,0.0000
-38.3660,29.1239,-10.3691,-0.0829,-0.0000,0.1200,1.6200,0.6400,0.0000,0.3921,-0.2373,0.0022,996,1502,1527,1502,2008,1000,1505,1000,1000,1002,1005,1000,1013,-0.0704,-0.0041,0.0352,-0.0015,-0.0090,0.9998,0.6316,-0.1570,-0.6272,0.1527,0.8627,0.2400,0.1321,0.8627,0.2400,0.1321,0.3000,0.0600,0.0002,0,-4.8590,-254.6628,-0.4748,-4.8590,-254.6628,-0.4748,10.6510,45.7730,0.0200,0.2700,0.0000,0.0000,0.0000,0.0000,0.0000,0.0000
-38.3310,29.1047,-10.3519,-0.2486,-0.0821,0.2400,1.6800,1.2800,0.0000,0.3928,-0.2366,0.0062,997,1503,1527,1503,2008,1000,1505,1000,1000,1002,1005,1000,1013,-0.0228,-0.0174,-0.0212,-0.0024,-0.0103,1.0032,0.6356,-0.1624,-0.6231,0.1500,0.8627,0.2400,0.1321,0.8627,0.2400,0.1321,0.3000,0.0600,0.0002,0,-4.8590,-254.6628,-0.4748,-4.8590,-254.6628,-0.4748,10.6367,45.7379,0.0400,0.2800,0.0000,0.0000,0.0000,0.0000,0.0000,0.0000
-38.2959,29.0857,-10.3348,-0.1657,-0.0000,0.1200,1.6200,0.6400,0.0000,0.3914,-0.2370,0.0023,996,1502,1527,1502,2008,1000,1505,1000,1000,1002,1005,1000,1013,-0.0168,0.0561,0.0025,-0.0033,-0.0088,1.0027,0.6308,-0.1567,-0.6261,0.1521,0.8627,0.2400,0.1321,0.8627,0.2400,0.1321,0.3000,0.0600,0.0002,0,-4.8590,-254.6628,-0.4748,-4.8590,-254.6628,-0.4748,10.6222,45.7029,0.0200,0.2700,0.0000,0.0000,0.0000,0.0000,0.0000,0.0000
-38.2604,29.0664,-10.3177,-0.0829,0.0821,0.1200,1.6200,0.6400,0.0000,0.3911,-0.2367,0.0025,996,1502,1527,1502,2008,1000,1505,1000,1000,1001,1005,1000,1013,0.0372,-0.0321,-0.0655,-0.0027,-0.0083,1.0035,0.6303,-0.1568,-0.6253,0.1518,0.8627,0.2400,0.1321,0.8627,0.2400,0.1321,0.3000,0.0600,0.0002,0,-4.8393,-254.6628,-0.4748,-4.8393,-254.6628,-0.4748,10.6079,45.6675,0.0200,0.2700,0.0000,0.0000,0.0000,0.0000,0.0000,0.0000
-38.2253,29.0466,-10.3014,-0.0000,-0.0000,0.1200,1.6200,0.6400,0.0000,0.3908,-0.2367,0.0027,996,1502,1527,1502,2008,1000,1505,1000,1000,1001,1005,1000,1013,-0.0214,0.0316,-0.1187,-0.0061,-0.0090,1.0058,0.6302,-0.1569,-0.6248,0.1515,0.8627,0.2400,0.1321,0.8627,0.2400,0.1321,0.3000,0.0600,0.0002,0,-4.8393,-254.6628,-0.4748,-4.8393,-254.6628,-0.4748,10.5945,45.6325,0.0200,0.2700,0.0000,0.0000,0.0000,0.0000,0.0000,0.0000
-38.1898,29.0265,-10.2852,-0.1657,-0.0000,0.1200,1.6200,0.6400,0.0000,0.3904,-0.2364,0.0025,996,1502,1527,1502,2008,1000,1505,1000,1000,1002,1005,1000,1013,0.0733,0.0053,-0.0507,-0.0024,-0.0087,1.0052,0.6293,-0.1564,-0.6244,0.1515,0.8627,0.2400,0.1321,0.8627,0.2400,0.1321,0.3000,0.0600,0.0002,0,-4.8590,-254.6628,-0.4748,-4.8590,-254.6628,-0.4748,10.5805,45.5972,0.0200,0.2700,0.0000,0.0000,0.0000,0.0000,0.0000,0.0000
-38.1549,29.0070,-10.2691,-0.0829,-0.0000,0.1200,1.6200,0.6400,0.0000,0.3902,-0.2363,0.0026,996,1502,1527,1502,2008,1000,1505,1000,1000,1002,1005,1000,1013,-0.0135,0.0419,-0.0928,-0.0046,-0.0093,1.0013,0.6292,-0.1565,-0.6239,0.1513,0.8627,0.2400,0.1321,0.8627,0.2400,0.1321,0.3000,0.0600,0.0002,0,-4.8590,-254.6628,-0.4748,-4.8590,-254.6628,-0.4748,10.5663,45.5616,0.0200,0.2700,0.0000,0.0000,0.0000,0.0000,0.0000,0.0000
-38.1196,28.9876,-10.2525,-0.0829,-0.0000,0.2400,1.6800,1.2800,0.0000,0.3909,-0.2356,0.0062,997,1503,1527,1503,2008,1000,1505,1000,1000,1002,1005,1000,1013,-0.0065,-0.0144,-0.0127,-0.0042,-0.0101,1.0029,0.6327,-0.1616,-0.6203,0.1491,0.8627,0.2400,0.1321,0.8627,0.2400,0.1321,0.3000,0.0600,0.0002,0,-4.8590,-254.6628,-0.4748,-4.8590,-254.6628,-0.4748,10.5521,45.5266,0.0400,0.2800,0.0000,0.0000,0.0000,0.0000,0.0000,0.0000
-38.0844,28.9680,-10.2352,-0.1657,-0.0000,0.1200,1.6200,0.6400,0.0000,0.3897,-0.2359,0.0024,996,1502,1527,1502,2008,1000,1505,1000,1000,1002,1005,1000,1013,-0.0484,0.0057,-0.0292,-0.0037,-0.0112,1.0037,0.6280,-0.1562,-0.6231,0.1513,0.8627,0.2400,0.1321,0.8627,0.2400,0.1321,0.3000,0.0600,0.0002,0,-4.8590,-254.6628,-0.4748,-4.8590,-254.6628,-0.4748,10.5382,45.4913,0.0200,0.2700,0.0000,0.0000,0.0000,0.0000,0.0000,0.0000
-38.0488,28.9482,-10.2179,-0.1657,-0.0000,0.1200,1.6200,0.6400,0.0000,0.3893,-0.2357,0.0024,996,1502,1527,1502,2008,1000,1505,1000,1000,1002,1005,1000,1013,0.0207,-0.0425,-0.0200,-0.0060,-0.0064,1.0014,0.6274,-0.1560,-0.6226,0.1512,0.8627,0.2400,0.1321,0.8627,0.2400,0.1321,0.3000,0.0600,0.0002,0,-4.8590,-254.6628,-0.4748,-4.8590,-254.6628,-0.4748,10.5241,45.4554,0.0200,0.2700,0.0000,0.0000,0.0000,0.0000,0.0000,0.0000
-38.0131,28.9284,-10.2005,-0.0829,-0.0000,0.1200,1.6200,0.6400,0.0000,0.3890,-0.2356,0.0024,996,1502,1527,1502,2008,1000,1505,1000,1000,1002,1005,1000,1013,0.0164,0.0020,0.0006,-0.0034,-0.0082,1.0004,0.6269,-0.1557,-0.6222,0.1510,0.8627,0.2400,0.1321,0.8627,0.2400,0.1321,0.3000,0.0600,0.0002,0,-4.8590,-254.6628,-0.4748,-4.8590,-254.6628,-0.4748,10.5099,45.4199,0.0200,0.2700,0.0000,0.0000,0.0000,0.0000,0.0000,0.0000
-37.9777,28.9091,-10.1832,-0.1657,-0.0000,0.1200,1.6200,0.6400,0.0000,0.3887,-0.2354,0.0023,996,1502,1527,1502,2008,1000,1505,1000,1000,1002,1005,1000,1013,-0.0387,-0.0462,0.0343,-0.0036,-0.0086,0.9977,0.6263,-0.1556,-0.6218,0.1511,0.8627,0.2400,0.1321,0.8627,0.2400,0.1321,0.3000,0.0600,0.0002,0,-4.8590,-254.6628,-0.4748,-4.8590,-254.6628,-0.4748,10.4963,45.3840,0.0200,0.2700,0.0000,0.0000,0.0000,0.0000,0.0000,0.0000
-37.9427,28.8900,-10.1658,-0.0829,-0.0000,0.1200,1.6200,0.6400,0.0000,0.3884,-0.2352,0.0023,996,1502,1527,1502,2008,1000,1505,1000,1000,1002,1005,1000,1013,-0.0351,-0.0154,0.0237,-0.0056,-0.0117,1.0002,0.6259,-0.1554,-0.6214,0.1509,0.8627,0.2400,0.1321,0.8627,0.2400,0.1321,0.3000,0.0600,0.0002,0,-4.8590,-254.6628,-0.4748,-4.8590,-254.6628,-0.4748,10.4831,45.3483,0.0200,0.2700,0.0000,0.0000,0.0000,0.0000,0.0000,0.0000
-37.9072,28.8711,-10.1478,-0.1657,-0.0000,0.2400,1.6800,1.2800,0.0000,0.3891,-0.2347,0.0058,997,1503,1527,1503,2008,1000,1505,1000,1000,1002,1005,1000,1013,-0.0329,0.0624,0.1354,-0.0011,-0.0084,1.0000,0.6296,-0.1603,-0.6180,0.1487,0.8627,0.2400,0.1321,0.8627,0.2400,0.1321,0.3000,0.0600,0.0002,0,-4.8590,-254.6628,-0.4748,-4.8590,-254.6628,-0.4748,10.4706,45.3132,0.0400,0.2800,0.0000,0.0000,0.0000,0.0000,0.0000,0.0000
-37.8718,28.8530,-10.1301,-0.0829,-0.0000,0.1200,1.6200,0.6400,0.0000,0.3877,-0.2349,0.0020,996,1502,1527,1502,2008,1000,1505,1000,1000,1002,1005,1000,1013,0.0285,-0.0017,0.1279,-0.0067,-0.0076,1.0044,0.6246,-0.1548,-0.6207,0.1508,0.8627,0.2400,0.1321,0.8627,0.2400,0.1321,0.3000,0.0600,0.0002,0,-4.8590,-254.6628,-0.4748,-4.8590,-254.6628,-0.4748,10.4579,45.2784,0.0200,0.2700,0.0000,0.0000,0.0000,0.0000,0.0000,0.0000
-37.8360,28.8342,-10.1121,-0.0829,0.0821,0.1200,1.6200,0.6400,0.0000,0.3875,-0.2347,0.0020,996,1502,1527,1502,2008,1000,1505,1000,1000,1001,1005,1000,1013,-0.0387,-0.0412,0.1043,-0.0031,-0.0094,1.0003,0.6243,-0.1548,-0.6202,0.1507,0.8627,0.2400,0.1321,0.8627,0.2400,0.1321,0.3000,0.0600,0.0002,0,-4.8393,-254.6628,-0.4748,-4.8393,-254.6628,-0.4748,10.4448,45.2427,0.0200,0.2700,0.0000,0.0000,0.0000,0.0000,0.0000,0.0000
-37.8007,28.8150,-10.0942,-0.1657,-0.0821,0.1200,1.6200,0.6400,0.0000,0.3872,-0.2346,0.0024,996,1502,1527,1502,2008,1000,1505,1000,1000,1001,1005,1000,1013,-0.0081,-0.0083,-0.0029,-0.0034,-0.0073,1.0015,0.6241,-0.1549,-0.6194,0.1502,0.8627,0.2400,0.1321,0.8627,0.2400,0.1321,0.3000,0.0600,0.0002,0,-4.8393,-254.6628,-0.4748,-4.8393,-254.6628,-0.4748,10.4310,45.2067,0.0200,0.2700,0.0000,0.0000,0.0000,0.0000,0.0000,0.0000
-37.7644,28.7956,-10.0765,-0.1657,-0.0000,0.1200,1.6200,0.6400,0.0000,0.3868,-0.2344,0.0023,996,1502,1527,1502,2008,1000,1505,1000,1000,1001,1005,1000,1013,0.0369,-0.0117,0.0288,-0.0062,-0.0086,0.9996,0.6235,-0.1547,-0.6189,0.1500,0.8627,0.2400,0.1321,0.8627,0.2400,0.1321,0.3000,0.0600,0.0002,0,-4.8393,-254.6628,-0.4748,-4.8393,-254.6628,-0.4748,10.4177,45.1708,0.0200,0.2700,0.0000,0.0000,0.0000,0.0000,0.0000,0.0000
-37.7292,28.7764,-10.0597,-0.1657,-0.0821,0.1200,1.6200,0.6400,0.0000,0.3866,-0.2343,0.0022,996,1502,1527,1502,2008,1000,1505,1000,1000,1001,1005,1000,1013,-0.0362,0.0169,0.0645,-0.0007,-0.0087,1.0036,0.6230,-0.1544,-0.6187,0.1501,0.8627,0.2400,0.1321,0.8627,0.2400,0.1321,0.3000,0.0600,0.0002,0,-4.8393,-254.6628,-0.4748,-4.8393,-254.6628,-0.4748,10.4039,45.1352,0.0200,0.2700,0.0000,0.0000,0.0000,0.0000,0.0000,0.0000
-37.6945,28.7574,-10.0422,-0.2486,0.0821,0.2400,1.6800,1.2800,0.0000,0.3874,-0.2337,0.0063,997,1503,1527,1503,2008,1000,1505,1000,1000,1002,1005,1000,1013,-0.0858,0.0639,0.0062,-0.0014,-0.0061,1.0010,0.6273,-0.1600,-0.6148,0.1474,0.8627,0.2400,0.1321,0.8627,0.2400,0.1321,0.3000,0.0600,0.0002,0,-4.8590,-254.6628,-0.4748,-4.8590,-254.6628,-0.4748,10.3908,45.1001,0.0400,0.2800,0.0000,0.0000,0.0000,0.0000,0.0000,0.0000
-37.6597,28.7378,-10.0256,-0.1657,-0.0821,0.1200,1.6200,0.6400,0.0000,0.3860,-0.2340,0.0024,996,1502,1527,1502,2008,1000,1505,1000,1000,1002,1005,1000,1013,-0.0406,0.0057,-0.0309,-0.0065,-0.0121,1.0022,0.6224,-0.1544,-0.6175,0.1496,0.8627,0.2400,0.1321,0.8627,0.2400,0.1321,0.3000,0.0600,0.0002,0,-4.8590,-254.6628,-0.4748,-4.8590,-254.6628,-0.4748,10.3777,45.0645,0.0200,0.2700,0.0000,0.0000,0.0000,0.0000,0.0000,0.0000
-37.6247,28.7182,-10.0090,-0.0000,-0.0000,0.1200,1.6200,0.6400,0.0000,0.3856,-0.2338,0.0024,996,1502,1527,1502,2008,1000,1505,1000,1000,1002,1005,1000,1013,-0.0075,0.0081,-0.0187,-0.0057,-0.0095,1.0026,0.6218,-0.1543,-0.6170,0.1494,0.8627,0.2400,0.1321,0.8627,0.2400,0.1321,0.3000,0.0600,0.0002,0,-4.8590,-254.6628,-0.4748,-4.8590,-254.6628,-0.4748,10.3645,45.0290,0.0200,0.2700,0.0000,0.0000,0.0000,0.0000,0.0000,0.0000
-37.5895,28.6988,-9.9925,-0.0829,-0.0821,0.1200,1.6200,0.6400,0.0000,0.3853,-0.2336,0.0026,996,1502,1527,1502,2008,1000,1505,1000,1000,1002,1005,1000,1013,0.0129,0.0245,-0.0667,-0.0054,-0.0077,0.9995,0.6216,-0.1543,-0.6163,0.1490,0.8627,0.2400,0.1321,0.8627,0.2400,0.1321,0.3000,0.0600,0.0002,0,-4.8590,-254.6628,-0.4748,-4.8590,-254.6628,-0.4748,10.3510,44.9933,0.0200,0.2700,0.0000,0.0000,0.0000,0.0000,0.0000,0.0000
-37.5543,28.6791,-9.9762,-0.0829,-0.0000,0.1200,1.6200,0.6400,0.0000,0.3849,-0.2334,0.0026,996,1502,1527,1502,2008,1000,1505,1000,1000,1002,1005,1000,1013,0.0648,-0.0124,-0.0604,-0.0074,-0.0092,1.0005,0.6210,-0.1541,-0.6158,0.1489,0.8627,0.2400,0.1321,0.8627,0.2400,0.1321,0.3000,0.0600,0.0002,0,-4.8590,-254.6628,-0.4748,-4.8590,-254.6628,-0.4748,10.3367,44.9585,0.0200,0.2700,0.0000,0.0000,0.0000,0.0000,0.0000,0.0000
-37.5189,28.6584,-9.9599,-0.0000,-0.0821,0.1200,1.6200,0.6400,0.0000,0.3847,-0.2332,0.0026,996,1502,1527,1502,2008,1000,1505,1000,1000,1002,1005,1000,1013,0.0028,-0.0588,-0.0671,-0.0034,-0.0089,1.0026,0.6205,-0.1541,-0.6153,0.1489,0.8627,0.2400,0.1321,0.8627,0.2400,0.1321,0.3000,0.0600,0.0002,0,-4.8590,-254.6628,-0.4748,-4.8590,-254.6628,-0.4748,10.3229,44.9230,0.0200,0.2700,0.0000,0.0000,0.0000,0.0000,0.0000,0.0000
-37.4837,28.6383,-9.9434,-0.0829,-0.0000,0.2400,1.6800,1.2800,0.0000,0.3855,-0.2325,0.0064,997,1503,1527,1503,2008,1000,1505,1000,1000,1002,1005,1000,1013,-0.0386,-0.0386,-0.0503,-0.0066,-0.0089,1.0016,0.6244,-0.1594,-0.6116,0.1466,0.8627,0.2400,0.1321,0.8627,0.2400,0.1321,0.3000,0.0600,0.0002,0,-4.8590,-254.6628,-0.4748,-4.8590,-254.6628,-0.4748,10.3089,44.8869,0.0400,0.2800,0.0000,0.0000,0.0000,0.0000,0.0000,0.0000
-37.4481,28.6180,-9.9266,-0.0829,-0.0000,0.1200,1.6200,0.6400,0.0000,0.3841,-0.2329,0.0024,996,1502,1527,1502,2008,1000,1505,1000,1000,1002,1005,1000,1013,0.0204,-0.0154,-0.0051,-0.0044,-0.0092,1.0032,0.6194,-0.1536,-0.6146,0.1488,0.8627,0.2400,0.1321,0.8627,0.2400,0.1321,0.3000,0.0600,0.0002,0,-4.8590,-254.6628,-0.4748,-4.8590,-254.6628,-0.4748,10.2951,44.8513,0.0200,0.2700,0.0000,0.0000,0.0000,0.0000,0.0000,0.0000
-37.4127,28.5979,-9.9095,-0.0829,-0.0000,0.1200,1.6200,0.6400,0.0000,0.3838,-0.2327,0.0024,996,1502,1527,1502,2008,1000,1505,1000,1000,1002,1005,1000,1013,0.0074,-0.0235,0.0033,-0.0049,-0.0081,1.0045,0.6189,-0.1534,-0.6141,0.1487,0.8627,0.2400,0.1321,0.8627,0.2400,0.1321,0.3000,0.0600,0.0002,0,-4.8590,-254.6628,-0.4748,-4.8590,-254.6628,-0.4748,10.2810,44.8155,0.0200,0.2700,0.0000,0.0000,0.0000,0.0000,0.0000,0.0000
-37.3771,28.5779,-9.8921,-0.0829,0.0821,0.1200,1.6200,0.6400,0.0000,0.3835,-0.2325,0.0025,996,1502,1527,1502,2008,1000,1505,1000,1000,1002,1005,1000,1013,-0.0098,-0.0683,-0.0192,-0.0068,-0.0082,0.9982,0.6185,-0.1535,-0.6135,0.1485,0.8627,0.2400,0.1321,0.8627,0.2400,0.1321,0.3000,0.0600,0.0002,0,-4.8590,-254.6628,-0.4748,-4.8590,-254.6628,-0.4748,10.2671,44.7792,0.0200,0.2700,0.0000,0.0000,0.0000,0.0000,0.0000,0.0000
-37.3415,28.5579,-9.8750,-0.0829,-0.0000,0.1200,1.6200,0.6400,0.0000,0.3831,-0.2324,0.0024,996,1502,1527,1502,2008,1000,1505,1000,1000,1001,1005,1000,1013,0.0459,0.0311,-0.0015,-0.0029,-0.0098,1.0035,0.6180,-0.1531,-0.6131,0.1482,0.8627,0.2400,0.1321,0.8627,0.2400,0.1321,0.3000,0.0600,0.0002,0,-4.8393,-254.6628,-0.4748,-4.8393,-254.6628,-0.4748,10.2534,44.7439,0.0200,0.2700,0.0000,0.0000,0.0000,0.0000,0.0000,0.0000
-37.3058,28.5378,-9.8579,-0.1657,0.0821,0.1200,1.6200,0.6400,0.0000,0.3829,-0.2321,0.0025,996,1502,1527,1502,2008,1000,1505,1000,1000,1001,1005,1000,1013,-0.0361,-0.0592,-0.0266,-0.0036,-0.0074,1.0043,0.6176,-0.1533,-0.6125,0.1483,0.8627,0.2400,0.1321,0.8627,0.2400,0.1321,0.3000,0.0600,0.0002,0,-4.8393,-254.6628,-0.4748,-4.8393,-254.6628,-0.4748,10.2402,44.7087,0.0200,0.2700,0.0000,0.0000,0.0000,0.0000,0.0000,0.0000
-37.2703,28.5182,-9.8410,-0.1657,-0.0000,0.2400,1.6800,1.2800,0.0000,0.3836,-0.2315,0.0062,997,1503,1527,1503,2008,1000,1505,1000,1000,1002,1005,1000,1013,0.0285,0.0050,0.0171,-0.0043,-0.0074,1.0014,0.6213,-0.1583,-0.6089,0.1458,0.8627,0.2400,0.1321,0.8627,0.2400,0.1321,0.3000,0.0600,0.0002,0,-4.8590,-254.6628,-0.4748,-4.8590,-254.6628,-0.4748,10.2273,44.6732,0.0400,0.2800,0.0000,0.0000,0.0000,0.0000,0.0000,0.0000
-37.2344,28.4990,-9.8236,-0.0829,0.0821,0.1200,1.6200,0.6400,0.0000,0.3823,-0.2319,0.0023,996,1502,1527,1502,2008,1000,1505,1000,1000,1002,1005,1000,1013,-0.0086,0.0006,0.0434,-0.0018,-0.0089,1.0014,0.6165,-0.1527,-0.6118,0.1481,0.8627,0.2400,0.1321,0.8627,0.2400,0.1321,0.3000,0.0600,0.0002,0,-4.8590,-254.6628,-0.4748,-4.8590,-254.6628,-0.4748,10.2138,44.6377,0.0200,0.2700,0.0000,0.0000,0.0000,0.0000,0.0000,0.0000
-37.1987,28.4793,-9.8063,-0.0829,-0.0000,0.1200,1.6200,0.6400,0.0000,0.3820,-0.2317,0.0024,996,1502,1527,1502,2008,1000,1505,1000,1000,1002,1005,1000,1013,-0.0148,0.0012,0.0017,-0.0041,-0.0066,0.9999,0.6161,-0.1527,-0.6113,0.1478,0.8627,0.2400,0.1321,0.8627,0.2400,0.1321,0.3000,0.0600,0.0002,0,-4.8590,-254.6628,-0.4748,-4.8590,-254.6628,-0.4748,10.2011,44.6022,0.0200,0.2700,0.0000,0.0000,0.0000,0.0000,0.0000,0.0000
-37.1635,28.4599,-9.7897,-0.0829,-0.0821,0.1200,1.6200,0.6400,0.0000,0.3817,-0.2316,0.0023,996,1502,1527,1502,2008,1000,1505,1000,1000,1002,1005,1000,1013,-0.0139,0.0154,0.0501,-0.0015,-0.0067,1.0013,0.6156,-0.1524,-0.6109,0.1478,0.8627,0.2400,0.1321,0.8627,0.2400,0.1321,0.3000,0.0600,0.0002,0,-4.8590,-254.6628,-0.4748,-4.8590,-254.6628,-0.4748,10.1880,44.5666,0.0200,0.2700,0.0000,0.0000,0.0000,0.0000,0.0000,0.0000
-37.1280,28.4404,-9.7726,-0.0829,-0.0000,0.1200,1.6200,0.6400,0.0000,0.3813,-0.2313,0.0024,996,1502,1527,1502,2008,1000,1505,1000,1000,1002,1005,1000,1013,0.0187,-0.0374,0.0124,-0.0016,-0.0071,1.0003,0.6151,-0.1524,-0.6102,0.1475,0.8627,0.2400,0.1321,0.8627,0.2400,0.1321,0.3000,0.0600,0.0002,0,-4.8590,-254.6628,-0.4748,-4.8590,-254.6628,-0.4748,10.1735,44.5309,0.0200,0.2700,0.0000,0.0000,0.0000,0.0000,0.0000,0.0000
-37.0921,28.4201,-9.7551,-0.0829,-0.0000,0.1200,1.6200,0.6400,0.0000,0.3810,-0.2311,0.0025,996,1502,1527,1502,2008,1000,1505,1000,1000,1001,1005,1000,1013,0.0168,-0.0558,-0.0060,-0.0066,-0.0109,0.9997,0.6146,-0.1523,-0.6097,0.1474,0.8627,0.2400,0.1321,0.8627,0.2400,0.1321,0.3000,0.0600,0.0002,0,-4.8393,-254.6628,-0.4748,-4.8393,-254.6628,-0.4748,10.1600,44.4953,0.0200,0.2700,0.0000,0.0000,0.0000,0.0000,0.0000,0.0000
-37.0562,28.4002,-9.7377,-0.2486,-0.0000,0.2400,1.6800,1.2800,0.0000,0.3817,-0.2305,0.0061,997,1503,1527,1503,2008,1000,1505,1000,1000,1001,1005,1000,1013,0.0278,0.0052,0.0620,-0.0038,-0.0098,1.0046,0.6184,-0.1573,-0.6061,0.1451,0.8627,0.2400,0.1321,0.8627,0.2400,0.1321,0.3000,0.0600,0.0002,0,-4.8393,-254.6628,-0.4748,-4.8393,-254.6628,-0.4748,10.1475,44.4592,0.0400,0.2800,0.0000,0.0000,0.0000,0.0000,0.0000,0.0000
-37.0206,28.3804,-9.7206,-0.1657,-0.0000,0.1200,1.6200,0.6400,0.0000,0.3804,-0.2309,0.0024,996,1502,1527,1502,2008,1000,1505,1000,1000,1001,1005,1000,1013,-0.0157,0.0198,0.0005,-0.0071,-0.0102,0.9993,0.6138,-0.1520,-0.6089,0.1471,0.8627,0.2400,0.1321,0.8627,0.2400,0.1321,0.3000,0.0600,0.0002,0,-4.8393,-254.6628,-0.4748,-4.8393,-254.6628,-0.4748,10.1353,44.4233,0.0200,0.2700,0.0000,0.0000,0.0000,0.0000,0.0000,0.0000
-36.9850,28.3604,-9.7037,-0.1657,-0.0821,0.1200,1.6200,0.6400,0.0000,0.3800,-0.2306,0.0026,996,1502,1527,1502,2008,1000,1505,1000,1000,1002,1005,1000,1013,0.0782,-0.0456,-0.0362,-0.0056,-0.0076,1.0048,0.6132,-0.1520,-0.6080,0.1468,0.8627,0.2400,0.1321,0.8627,0.2400,0.1321,0.3000,0.0600,0.0002,0,-4.8590,-254.6628,-0.4748,-4.8590,-254.6628,-0.4748,10.1216,44.3871,0.0200,0.2700,0.0000,0.0000,0.0000,0.0000,0.0000,0.0000
-36.9491,28.3399,-9.6866,-0.0829,0.0821,0.1200,1.6200,0.6400,0.0000,0.3798,-0.2305,0.0024,996,1502,1527,1502,2008,1000,1505,1000,1000,1002,1005,1000,1013,0.0111,-0.0366,0.0356,-0.0001,-0.0055,1.0008,0.6126,-0.1517,-0.6079,0.1470,0.8627,0.2400,0.1321,0.8627,0.2400,0.1321,0.3000,0.0600,0.0002,0,-4.8590,-254.6628,-0.4748,-4.8590,-254.6628,-0.4748,10.1080,44.3510,0.0200,0.2700,0.0000,0.0000,0.0000,0.0000,0.0000,0.0000
-36.9139,28.3198,-9.6697,-0.2486,-0.0821,0.1200,1.6200,0.6400,0.0000,0.3795,-0.2303,0.0027,996,1502,1527,1502,2008,1000,1505,1000,1000,1002,1005,1000,1013,-0.0384,0.0072,-0.0663,-0.0046,-0.0098,1.0053,0.6126,-0.1519,-0.6072,0.1465,0.8627,0.2400,0.1321,0.8627,0.2400,0.1321,0.3000,0.0600,0.0002,0,-4.8590,-254.6628,-0.4748,-4.8590,-254.6628,-0.4748,10.0943,44.3149,0.0200,0.2700,0.0000,0.0000,0.0000,0.0000,0.0000,0.0000
-36.8793,28.3000,-9.6533,-0.0000,0.0821,0.1200,1.6200,0.6400,0.0000,0.3793,-0.2302,0.0025,996,1502,1527,1502,2008,1000,1505,1000,1000,1002,1005,1000,1013,-0.0496,-0.0018,-0.0163,-0.0032,-0.0103,1.0020,0.6120,-0.1516,-0.6069,0.1465,0.8627,0.2400,0.1321,0.8627,0.2400,0.1321,0.3000,0.0600,0.0002,0,-4.8590,-254.6628,-0.4748,-4.8590,-254.6628,-0.4748,10.0806,44.2793,0.0200,0.2700,0.0000,0.0000,0.0000,0.0000,0.0000,0.0000
-36.8438,28.2800,-9.6365,-0.0829,-0.0000,0.2400,1.6800,1.2800,0.0000,0.3799,-0.2295,0.0064,997,1503,1527,1503,2008,1000,1505,1000,1000,1002,1005,1000,1013,0.0098,0.0283,-0.0117,-0.0049,-0.0096,0.9980,0.6158,-0.1568,-0.6031,0.1440,0.8627,0.2400,0.1321,0.8627,0.2400,0.1321,0.3000,0.0600,0.0002,0,-4.8590,-254.6628,-0.4748,-4.8590,-254.6628,-0.4748,10.0668,44.2434,0.0400,0.2800,0.0000,0.0000,0.0000,0.0000,0.0000,0.0000
-36.8092,28.2604,-9.6200,-0.0829,-0.0000,0.1200,1.6200,0.6400,0.0000,0.3786,-0.2298,0.0026,996,1502,1527,1502,2008,1000,1505,1000,1000,1002,1005,1000,1013,-0.0411,-0.0141,-0.0194,-0.0040,-0.0098,0.9989,0.6110,-0.1514,-0.6059,0.1462,0.8627,0.2400,0.1321,0.8627,0.2400,0.1321,0.3000,0.0600,0.0002,0,-4.8590,-254.6628,-0.4748,-4.8590,-254.6628,-0.4748,10.0526,44.2076,0.0200,0.2700,0.0000,0.0000,0.0000,0.0000,0.0000,0.0000
-36.7739,28.2405,-9.6039,-0.2486,0.0821,0.1200,1.6200,0.6400,0.0000,0.3783,-0.2297,0.0026,996,1502,1527,1502,2008,1000,1505,1000,1000,1002,1005,1000,1013,0.0153,0.0201,-0.0302,-0.0036,-0.0080,1.0034,0.6105,-0.1511,-0.6054,0.1460,0.8627,0.2400,0.1321,0.8627,0.2400,0.1321,0.3000,0.0600,0.0002,0,-4.8590,-254.6628,-0.4748,-4.8590,-254.6628,-0.4748,10.0388,44.1723,0.0200,0.2700,0.0000,0.0000,0.0000,0.0000,0.0000,0.0000
-36.7390,28.2204,-9.5879,-0.0829,-0.0821,0.1200,1.6200,0.6400,0.0000,0.3780,-0.2295,0.0026,996,1502,1527,1502,2008,1000,1505,1000,1000,1001,1005,1000,1013,-0.0246,0.0290,-0.0333,-0.0049,-0.0094,1.0059,0.6101,-0.1511,-0.6050,0.1459,0.8627,0.2400,0.1321,0.8627,0.2400,0.1321,0.3000,0.0600,0.0002,0,-4.8393,-254.6628,-0.4748,-4.8393,-254.6628,-0.4748,10.0247,44.1362,0.0200,0.2700,0.0000,0.0000,0.0000,0.0000,0.0000,0.0000
-36.7035,28.1997,-9.5715,-0.0829,-0.0000,0.1200,1.6200,0.6400,0.0000,0.3776,-0.2293,0.0027,996,1502,1527,1502,2008,1000,1505,1000,1000,1001,1005,1000,1013,0.0401,-0.0226,-0.0614,-0.0063,-0.0089,1.0003,0.6096,-0.1510,-0.6042,0.1457,0.8627,0.2400,0.1321,0.8627,0.2400,0.1321,0.3000,0.0600,0.0002,0,-4.8393,-254.6628,-0.4748,-4.8393,-254.6628,-0.4748,10.0110,44.1001,0.0200,0.2700,0.0000,0.0000,0.0000,0.0000,0.0000,0.0000
-36.6678,28.1793,-9.5548,-0.0829,-0.0000,0.1200,1.6200,0.6400,0.0000,0.3773,-0.2290,0.0024,996,1502,1527,1502,2008,1000,1505,1000,1000,1002,1005,1000,1013,0.0402,-0.0675,0.0242,-0.0045,-0.0075,0.9988,0.6088,-0.1507,-0.6039,0.1459,0.8627,0.2400,0.1321,0.8627,0.2400,0.1321,0.3000,0.0600,0.0002,0,-4.8590,-254.6628,-0.4748,-4.8590,-254.6628,-0.4748,9.9969,44.0641,0.0200,0.2700,0.0000,0.0000,0.0000,0.0000,0.0000,0.0000
-36.6318,28.1591,-9.5378,-0.0829,-0.0821,0.2400,1.6800,1.2800,0.0000,0.3781,-0.2284,0.0064,997,1503,1527,1503,2008,1000,1505,1000,1000,1002,1005,1000,1013,0.0078,-0.0081,-0.0020,-0.0055,-0.0079,1.0016,0.6129,-0.1561,-0.6001,0.1433,0.8627,0.2400,0.1321,0.8627,0.2400,0.1321,0.3000,0.0600,0.0002,0,-4.8590,-254.6628,-0.4748,-4.8590,-254.6628,-0.4748,9.9832,44.0283,0.0400,0.2800,0.0000,0.0000,0.0000,0.0000,0.0000,0.0000
-36.5962,28.1393,-9.5204,-0.0000,-0.0000,0.1200,1.6200,0.6400,0.0000,0.3768,-0.2288,0.0024,996,1502,1527,1502,2008,1000,1505,1000,1000,1002,1005,1000,1013,-0.0144,-0.0187,0.0617,-0.0087,-0.0086,1.0033,0.6079,-0.1504,-0.6031,0.1456,0.8627,0.2400,0.1321,0.8627,0.2400,0.1321,0.3000,0.0600,0.0002,0,-4.8590,-254.6628,-0.4748,-4.8590,-254.6628,-0.4748,9.9695,43.9924,0.0200,0.2700,0.0000,0.0000,0.0000,0.0000,0.0000,0.0000
-36.5605,28.1200,-9.5030,-0.0829,0.0821,0.1200,1.6200,0.6400,0.0000,0.3765,-0.2287,0.0022,996,1502,1527,1502,2008,1000,1505,1000,1000,1002,1005,1000,1013,-0.0667,0.0265,0.0889,-0.0029,-0.0073,1.0024,0.6074,-0.1501,-0.6029,0.1456,0.8627,0.2400,0.1321,0.8627,0.2400,0.1321,0.3000,0.0600,0.0002,0,-4.8590,-254.6628,-0.4748,-4.8590,-254.6628,-0.4748,9.9565,43.9570,0.0200,0.2700,0.0000,0.0000,0.0000,0.0000,0.0000,0.0000
-36.5253,28.1004,-9.4861,-0.0829,-0.0000,0.1200,1.6200,0.6400,0.0000,0.3761,-0.2284,0.0025,996,1502,1527,1502,2008,1000,1505,1000,1000,1002,1005,1000,1013,-0.0044,-0.0054,0.0214,-0.0040,-0.0102,1.0064,0.6071,-0.1502,-0.6021,0.1452,0.8627,0.2400,0.1321,0.8627,0.2400,0.1321,0.3000,0.0600,0.0002,0,-4.8590,-254.6628,-0.4748,-4.8590,-254.6628,-0.4748,9.9432,43.9212,0.0200,0.2700,0.0000,0.0000,0.0000,0.0000,0.0000,0.0000
-36.4897,28.0806,-9.4693,-0.0829,-0.0000,0.1200,1.6200,0.6400,0.0000,0.3758,-0.2283,0.0025,996,1502,1527,1502,2008,1000,1505,1000,1000,1002,1005,1000,1013,0.0500,0.0329,0.0130,-0.0010,-0.0079,0.9980,0.6066,-0.1500,-0.6016,0.1449,0.8627,0.2400,0.1321,0.8627,0.2400,0.1321,0.3000,0.0600,0.0002,0,-4.8590,-254.6628,-0.4748,-4.8590,-254.6628,-0.4748,9.9295,43.8852,0.0200,0.2700,0.0000,0.0000,0.0000,0.0000,0.0000,0.0000
-36.4539,28.0612,-9.4525,-0.0829,-0.0000,0.1200,1.6200,0.6400,0.0000,0.3755,-0.2282,0.0022,996,1502,1527,1502,2008,1000,1505,1000,1000,1002,1005,1000,1013,0.0113,0.0472,0.0923,-0.0034,-0.0107,1.0052,0.6059,-0.1496,-0.6014,0.1451,0.8627,0.2400,0.1321,0.8627,0.2400,0.1321,0.3000,0.0600,0.0002,0,-4.8590,-254.6628,-0.4748,-4.8590,-254.6628,-0.4748,9.9166,43.8493,0.0200,0.2700,0.0000,0.0000,0.0000,0.0000,0.0000,0.0000
-36.4182,28.0420,-9.4355,-0.0829,0.0821,0.2400,1.6800,1.2800,0.0000,0.3762,-0.2275,0.0063,997,1503,1527,1503,2008,1000,1505,1000,1000,1002,1005,1000,1013,0.0042,0.0333,0.0470,-0.0038,-0.0087,1.0021,0.6100,-0.1550,-0.5975,0.1425,0.8627,0.2400,0.1321,0.8627,0.2400,0.1321,0.3000,0.0600,0.0002,0,-4.8590,-254.6628,-0.4748,-4.8590,-254.6628,-0.4748,9.9039,43.8127,0.0400,0.2800,0.0000,0.0000,0.0000,0.0000,0.0000,0.0000
-36.3829,28.0221,-9.4183,-0.2486,-0.0000,0.1200,1.6200,0.6400,0.0000,0.3749,-0.2277,0.0024,996,1502,1527,1502,2008,1000,1505,1000,1000,1001,1005,1000,1013,-0.0238,-0.0726,0.0624,-0.0033,-0.0079,1.0036,0.6050,-0.1496,-0.6002,0.1449,0.8627,0.2400,0.1321,0.8627,0.2400,0.1321,0.3000,0.0600,0.0002,0,-4.8393,-254.6628,-0.4748,-4.8393,-254.6628,-0.4748,9.8909,43.7761,0.0200,0.2700,0.0000,0.0000,0.0000,0.0000,0.0000,0.0000
-36.3469,28.0014,-9.4006,-0.1657,-0.0000,0.1200,1.6200,0.6400,0.0000,0.3746,-0.2275,0.0024,996,1502,1527,1502,2008,1000,1505,1000,1000,1001,1005,1000,1013,-0.0058,-0.0694,0.0427,-0.0061,-0.0091,1.0072,0.6045,-0.1495,-0.5997,0.1447,0.8627,0.2400,0.1321,0.8627,0.2400,0.1321,0.3000,0.0600,0.0002,0,-4.8393,-254.6628,-0.4748,-4.8393,-254.6628,-0.4748,9.8779,43.7393,0.0200,0.2700,0.0000,0.0000,0.0000,0.0000,0.0000,0.0000
-36.3110,27.9810,-9.3831,-0.1657,-0.0821,0.1200,1.6200,0.6400,0.0000,0.3743,-0.2273,0.0024,996,1502,1527,1502,2008,1000,1505,1000,1000,1002,1005,1000,1013,0.0254,-0.0785,0.0591,-0.0061,-0.0092,1.0001,0.6040,-0.1494,-0.5992,0.1445,0.8627,0.2400,0.1321,0.8627,0.2400,0.1321,0.3000,0.0600,0.0002,0,-4.8590,-254.6628,-0.4748,-4.8590,-254.6628,-0.4748,9.8647,43.7028,0.0200,0.2700,0.0000,0.0000,0.0000,0.0000,0.0000,0.0000
-36.2754,27.9609,-9.3663,-0.0829,-0.0000,0.1200,1.6200,0.6400,0.0000,0.3740,-0.2272,0.0025,996,1502,1527,1502,2008,1000,1505,1000,1000,1002,1005,1000,1013,-0.0235,-0.0210,0.0057,-0.0033,-0.0069,1.0005,0.6037,-0.1493,-0.5987,0.1443,0.8627,0.2400,0.1321,0.8627,0.2400,0.1321,0.3000,0.0600,0.0002,0,-4.8590,-254.6628,-0.4748,-4.8590,-254.6628,-0.4748,9.8521,43.6663,0.0200,0.2700,0.0000,0.0000,0.0000,0.0000,0.0000,0.0000
-36.2398,27.9410,-9.3498,-0.2486,-0.0821,0.1200,1.6200,0.6400,0.0000,0.3736,-0.2271,0.0027,996,1502,1527,1502,2008,1000,1505,1000,1000,1002,1005,1000,1013,0.0293,0.0095,-0.0395,-0.0061,-0.0104,0.9998,0.6035,-0.1493,-0.5980,0.1438,0.8627,0.2400,0.1321,0.8627,0.2400,0.1321,0.3000,0.0600,0.0002,0,-4.8590,-254.6628,-0.4748,-4.8590,-254.6628,-0.4748,9.8394,43.6300,0.0200,0.2700,0.0000,0.0000,0.0000,0.0000,0.0000,0.0000
-36.2049,27.9201,-9.3339,-0.1657,-0.0000,0.2400,1.6800,1.2800,0.0000,0.3745,-0.2263,0.0065,997,1503,1527,1503,2008,1000,1505,1000,1000,1002,1005,1000,1013,-0.0382,-0.0504,-0.0377,-0.0027,-0.0117,1.0016,0.6073,-0.1547,-0.5942,0.1416,0.8627,0.2400,0.1321,0.8627,0.2400,0.1321,0.3000,0.0600,0.0002,0,-4.8590,-254.6628,-0.4748,-4.8590,-254.6628,-0.4748,9.8257,43.5940,0.0400,0.2800,0.0000,0.0000,0.0000,0.0000,0.0000,0.0000
-36.1695,27.8992,-9.3170,-0.1657,-0.0000,0.1200,1.6200,0.6400,0.0000,0.3731,-0.2266,0.0026,996,1502,1527,1502,2008,1000,1505,1000,1000,1002,1005,1000,1013,-0.0098,-0.0928,0.0080,-0.0072,-0.0087,1.0024,0.6022,-0.1491,-0.5971,0.1439,0.8627,0.2400,0.1321,0.8627,0.2400,0.1321,0.3000,0.0600,0.0002,0,-4.8590,-254.6628,-0.4748,-4.8590,-254.6628,-0.4748,9.8116,43.5582,0.0200,0.2700,0.0000,0.0000,0.0000,0.0000,0.0000,0.0000
-36.1342,27.8788,-9.3003,-0.0829,-0.0000,0.1200,1.6200,0.6400,0.0000,0.3728,-0.2265,0.0026,996,1502,1527,1502,2008,1000,1505,1000,1000,1001,1005,1000,1013,-0.0528,-0.0157,-0.0022,-0.0044,-0.0087,0.9989,0.6019,-0.1489,-0.5968,0.1437,0.8627,0.2400,0.1321,0.8627,0.2400,0.1321,0.3000,0.0600,0.0002,0,-4.8393,-254.6628,-0.4748,-4.8393,-254.6628,-0.4748,9.7977,43.5220,0.0200,0.2700,0.0000,0.0000,0.0000,0.0000,0.0000,0.0000
-36.0990,27.8586,-9.2836,-0.1657,-0.0000,0.1200,1.6200,0.6400,0.0000,0.3725,-0.2264,0.0026,996,1502,1527,1502,2008,1000,1505,1000,1000,1001,1005,1000,1013,-0.0299,0.0113,0.0097,-0.0042,-0.0097,1.0053,0.6015,-0.1487,-0.5963,0.1436,0.8627,0.2400,0.1321,0.8627,0.2400,0.1321,0.3000,0.0600,0.0002,0,-4.8393,-254.6628,-0.4748,-4.8393,-254.6628,-0.4748,9.7844,43.4854,0.0200,0.2700,0.0000,0.0000,0.0000,0.0000,0.0000,0.0000
-36.0638,27.8384,-9.2676,-0.1657,-0.0000,0.1200,1.6200,0.6400,0.0000,0.3721,-0.2262,0.0027,996,1502,1527,1502,2008,1000,1505,1000,1000,1002,1005,1000,1013,0.0335,0.0393,-0.0256,-0.0071,-0.0083,1.0032,0.6010,-0.1486,-0.5957,0.1432,0.8627,0.2400,0.1321,0.8627,0.2400,0.1321,0.3000,0.0600,0.0002,0,-4.8590,-254.6628,-0.4748,-4.8590,-254.6628,-0.4748,9.7714,43.4499,0.0200,0.2700,0.0000,0.0000,0.0000,0.0000,0.0000,0.0000
-36.0287,27.8184,-9.2512,-0.0829,0.0821,0.1200,1.6200,0.6400,0.0000,0.3719,-0.2260,0.0025,996,1502,1527,1502,2008,1000,1505,1000,1000,1002,1005,1000,1013,-0.0545,-0.0124,0.0134,-0.0068,-0.0071,1.0009,0.6004,-0.1485,-0.5954,0.1434,0.8627,0.2400,0.1321,0.8627,0.2400,0.1321,0.3000,0.0600,0.0002,0,-4.8590,-254.6628,-0.4748,-4.8590,-254.6628,-0.4748,9.7584,43.4139,0.0200,0.2700,0.0000,0.0000,0.0000,0.0000,0.0000,0.0000
-35.9936,27.7984,-9.2347,-0.1657,-0.0000,0.2400,1.6800,1.2800,0.0000,0.3725,-0.2254,0.0066,997,1503,1527,1503,2008,1000,1505,1000,1000,1002,1005,1000,1013,0.0528,0.0200,-0.0455,-0.0033,-0.0081,0.9986,0.6045,-0.1538,-0.5913,0.1406,0.8627,0.2400,0.1321,0.8627,0.2400,0.1321,0.3000,0.0600,0.0002,0,-4.8590,-254.6628,-0.4748,-4.8590,-254.6628,-0.4748,9.7452,43.3779,0.0400,0.2800,0.0000,0.0000,0.0000,0.0000,0.0000,0.0000
-35.9581,27.7781,-9.2184,-0.1657,-0.0000,0.1200,1.6200,0.6400,0.0000,0.3713,-0.2256,0.0027,996,1502,1527,1502,2008,1000,1505,1000,1000,1002,1005,1000,1013,-0.0195,-0.0211,-0.0433,-0.0064,-0.0077,0.9996,0.5996,-0.1484,-0.5942,0.1429,0.8627,0.2400,0.1321,0.8627,0.2400,0.1321,0.3000,0.0600,0.0002,0,-4.8590,-254.6628,-0.4748,-4.8590,-254.6628,-0.4748,9.7315,43.3415,0.0200,0.2700,0.0000,0.0000,0.0000,0.0000,0.0000,0.0000
-35.9233,27.7575,-9.2015,-0.1657,-0.0000,0.1200,1.6200,0.6400,0.0000,0.3710,-0.2255,0.0025,996,1502,1527,1502,2008,1000,1505,1000,1000,1002,1005,1000,1013,-0.0703,-0.0173,0.0356,-0.0015,-0.0115,1.0036,0.5990,-0.1481,-0.5940,0.1431,0.8627,0.2400,0.1321,0.8627,0.2400,0.1321,0.3000,0.0600,0.0002,0,-4.8590,-254.6628,-0.4748,-4.8590,-254.6628,-0.4748,9.7182,43.3053,0.0200,0.2700,0.0000,0.0000,0.0000,0.0000,0.0000,0.0000
-35.8877,27.7367,-9.1844,-0.0829,-0.0000,0.1200,1.6200,0.6400,0.0000,0.3706,-0.2252,0.0025,996,1502,1527,1502,2008,1000,1505,1000,1000,1001,1005,1000,1013,-0.0081,-0.0964,0.0273,0.0003,-0.0065,1.0003,0.5984,-0.1480,-0.5933,0.1429,0.8627,0.2400,0.1321,0.8627,0.2400,0.1321,0.3000,0.0600,0.0002,0,-4.8393,-254.6628,-0.4748,-4.8393,-254.6628,-0.4748,9.7048,43.2689,0.0200,0.2700,0.0000,0.0000,0.0000,0.0000,0.0000,0.0000
-35.8524,27.7159,-9.1673,-0.0829,0.0821,0.1200,1.6200,0.6400,0.0000,0.3704,-0.2250,0.0026,996,1502,1527,1502,2008,1000,1505,1000,1000,1001,1005,1000,1013,-0.0388,-0.0753,0.0138,-0.0031,-0.0110,1.0004,0.5980,-0.1479,-0.5928,0.1428,0.8627,0.2400,0.1321,0.8627,0.2400,0.1321,0.3000,0.0600,0.0002,0,-4.8393,-254.6628,-0.4748,-4.8393,-254.6628,-0.4748,9.6917,43.2330,0.0200,0.2700,0.0000,0.0000,0.0000,0.0000,0.0000,0.0000
-35.8164,27.6953,-9.1501,-0.0829,0.0821,0.1200,1.6200,0.6400,0.0000,0.3700,-0.2250,0.0025,996,1502,1527,1502,2008,1000,1505,1000,1000,1001,1005,1000,1013,0.0435,0.0195,0.0491,-0.0030,-0.0087,1.0021,0.5974,-0.1475,-0.5925,0.1425,0.8627,0.2400,0.1321,0.8627,0.2400,0.1321,0.3000,0.0600,0.0002,0,-4.8393,-254.6628,-0.4748,-4.8393,-254.6628,-0.4748,9.6788,43.1969,0.0200,0.2700,0.0000,0.0000,0.0000,0.0000,0.0000,0.0000
-35.7807,27.6751,-9.1332,-0.0829,-0.0000,0.2400,1.6800,1.2800,0.0000,0.3708,-0.2242,0.0064,997,1503,1527,1503,2008,1000,1505,1000,1000,1002,1005,1000,1013,-0.0131,-0.0451,0.0179,-0.0016,-0.0089,1.0034,0.6014,-0.1530,-0.5885,0.1401,0.8627,0.2400,0.1321,0.8627,0.2400,0.1321,0.3000,0.0600,0.0002,0,-4.8590,-254.6628,-0.4748,-4.8590,-254.6628,-0.4748,9.6664,43.1607,0.0400,0.2800,0.0000,0.0000,0.0000,0.0000,0.0000,0.0000
-35.7455,27.6545,-9.1165,-0.0829,-0.0000,0.1200,1.6200,0.6400,0.0000,0.3695,-0.2246,0.0026,996,1502,1527,1502,2008,1000,1505,1000,1000,1002,1005,1000,1013,-0.0552,-0.0069,0.0298,-0.0067,-0.0102,1.0020,0.5966,-0.1474,-0.5915,0.1423,0.8627,0.2400,0.1321,0.8627,0.2400,0.1321,0.3000,0.0600,0.0002,0,-4.8590,-254.6628,-0.4748,-4.8590,-254.6628,-0.4748,9.6538,43.1246,0.0200,0.2700,0.0000,0.0000,0.0000,0.0000,0.0000,0.0000
-35.7098,27.6349,-9.0995,-0.1657,0.0821,0.1200,1.6200,0.6400,0.0000,0.3691,-0.2245,0.0025,996,1502,1527,1502,2008,1000,1505,1000,1000,1001,1005,1000,1013,-0.0195,0.0377,0.0395,-0.0023,-0.0075,1.0039,0.5961,-0.1472,-0.5911,0.1421,0.8627,0.2400,0.1321,0.8627,0.2400,0.1321,0.3000,0.0600,0.0002,0,-4.8393,-254.6628,-0.4748,-4.8393,-254.6628,-0.4748,9.6417,43.0887,0.0200,0.2700,0.0000,0.0000,0.0000,0.0000,0.0000,0.0000
-35.6746,27.6145,-9.0830,-0.1657,-0.0000,0.1200,1.6200,0.6400,0.0000,0.3688,-0.2242,0.0028,996,1502,1527,1502,2008,1000,1505,1000,1000,1001,1005,1000,1013,-0.0189,-0.0188,-0.0298,-0.0060,-0.0094,1.0003,0.5958,-0.1474,-0.5903,0.1418,0.8627,0.2400,0.1321,0.8627,0.2400,0.1321,0.3000,0.0600,0.0002,0,-4.8393,-254.6628,-0.4748,-4.8393,-254.6628,-0.4748,9.6298,43.0522,0.0200,0.2700,0.0000,0.0000,0.0000,0.0000,0.0000,0.0000
-35.6396,27.5935,-9.0662,-0.1657,-0.0000,0.1200,1.6200,0.6400,0.0000,0.3686,-0.2240,0.0025,996,1502,1527,1502,2008,1000,1505,1000,1000,1001,1005,1000,1013,-0.0479,-0.0798,0.0601,-0.0054,-0.0102,1.0025,0.5950,-0.1471,-0.5901,0.1421,0.8627,0.2400,0.1321,0.8627,0.2400,0.1321,0.3000,0.0600,0.0002,0,-4.8393,-254.6628,-0.4748,-4.8393,-254.6628,-0.4748,9.6174,43.0155,0.0200,0.2700,0.0000,0.0000,0.0000,0.0000,0.0000,0.0000
-35.6045,27.5730,-9.0491,-0.1657,-0.0000,0.1200,1.6200,0.6400,0.0000,0.3682,-0.2239,0.0027,996,1502,1527,1502,2008,1000,1505,1000,1000,1001,1005,1000,1013,-0.0235,0.0183,-0.0289,-0.0010,-0.0066,1.0019,0.5949,-0.1470,-0.5894,0.1416,0.8627,0.2400,0.1321,0.8627,0.2400,0.1321,0.3000,0.0600,0.0002,0,-4.8393,-254.6628,-0.4748,-4.8393,-254.6628,-0.4748,9.6043,42.9797,0.0200,0.2700,0.0000,0.0000,0.0000,0.0000,0.0000,0.0000
-35.5693,27.5523,-9.0325,-0.2486,-0.0821,0.2400,1.6800,1.2800,0.0000,0.3690,-0.2232,0.0064,997,1503,1527,1503,2008,1000,1505,1000,1000,1001,1005,1000,1013,-0.0540,0.0025,0.0349,-0.0062,-0.0090,0.9994,0.5986,-0.1522,-0.5858,0.1394,0.8627,0.2400,0.1321,0.8627,0.2400,0.1321,0.3000,0.0600,0.0002,0,-4.8393,-254.6628,-0.4748,-4.8393,-254.6628,-0.4748,9.5918,42.9434,0.0400,0.2800,0.0000,0.0000,0.0000,0.0000,0.0000,0.0000
-35.5339,27.5322,-9.0158,-0.0829,-0.0000,0.1200,1.6200,0.6400,0.0000,0.3675,-0.2235,0.0026,996,1502,1527,1502,2008,1000,1505,1000,1000,1002,1005,1000,1013,0.0390,-0.0166,0.0250,-0.0019,-0.0085,1.0008,0.5936,-0.1466,-0.5885,0.1414,0.8627,0.2400,0.1321,0.8627,0.2400,0.1321,0.3000,0.0600,0.0002,0,-4.8590,-254.6628,-0.4748,-4.8590,-254.6628,-0.4748,9.5783,42.9071,0.0200,0.2700,0.0000,0.0000,0.0000,0.0000,0.0000,0.0000
-35.4978,27.5115,-8.9990,-0.1657,-0.1642,0.1200,1.6200,0.6400,0.0000,0.3673,-0.2233,0.0025,996,1502,1527,1502,2008,1000,1505,1000,1000,1002,1005,1000,1013,-0.0049,-0.0293,0.0411,-0.0083,-0.0094,1.0034,0.5931,-0.1465,-0.5881,0.1414,0.8627,0.2400,0.1321,0.8627,0.2400,0.1321,0.3000,0.0600,0.0002,0,-4.8590,-254.6628,-0.4748,-4.8590,-254.6628,-0.4748,9.5657,42.8705,0.0200,0.2700,0.0000,0.0000,0.0000,0.0000,0.0000,0.0000
-35.4624,27.4906,-8.9824,-0.0829,-0.0821,0.1200,1.6200,0.6400,0.0000,0.3670,-0.2231,0.0028,996,1502,1527,1502,2008,1000,1505,1000,1000,1002,1005,1000,1013,-0.0075,-0.0828,-0.0390,-0.0032,-0.0132,0.9994,0.5929,-0.1467,-0.5873,0.1411,0.8627,0.2400,0.1321,0.8627,0.2400,0.1321,0.3000,0.0600,0.0002,0,-4.8590,-254.6628,-0.4748,-4.8590,-254.6628,-0.4748,9.5524,42.8343,0.0200,0.2700,0.0000,0.0000,0.0000,0.0000,0.0000,0.0000
-35.4268,27.4699,-8.9666,-0.1657,-0.0000,0.1200,1.6200,0.6400,0.0000,0.3666,-0.2231,0.0029,996,1502,1527,1502,2008,1000,1505,1000,1000,1002,1005,1000,1013,0.0616,0.0463,-0.0617,-0.0012,-0.0104,1.0018,0.5925,-0.1464,-0.5868,0.1407,0.8627,0.2400,0.1321,0.8627,0.2400,0.1321,0.3000,0.0600,0.0002,0,-4.8590,-254.6628,-0.4748,-4.8590,-254.6628,-0.4748,9.5392,42.7981,0.0200,0.2700,0.0000,0.0000,0.0000,0.0000,0.0000,0.0000
-35.3914,27.4492,-8.9503,-0.0829,-0.0000,0.1200,1.6200,0.6400,0.0000,0.3664,-0.2228,0.0025,996,1502,1527,1502,2008,1000,1505,1000,1000,1002,1005,1000,1013,-0.0546,-0.0516,0.0463,-0.0066,-0.0101,0.9994,0.5917,-0.1462,-0.5866,0.1411,0.8627,0.2400,0.1321,0.8627,0.2400,0.1321,0.3000,0.0600,0.0002,0,-4.8590,-254.6628,-0.4748,-4.8590,-254.6628,-0.4748,9.5261,42.7618,0.0200,0.2700,0.0000,0.0000,0.0000,0.0000,0.0000,0.0000
-35.3561,27.4283,-8.9338,-0.1657,-0.0000,0.2400,1.6800,1.2800,0.0000,0.3671,-0.2222,0.0066,997,1503,1527,1503,2008,1000,1505,1000,1000,1002,1005,1000,1013,-0.0007,0.0222,-0.0235,-0.0036,-0.0074,1.0002,0.5958,-0.1515,-0.5827,0.1384,0.8627,0.2400,0.1321,0.8627,0.2400,0.1321,0.3000,0.0600,0.0002,0,-4.8590,-254.6628,-0.4748,-4.8590,-254.6628,-0.4748,9.5131,42.7254,0.0400,0.2800,0.0000,0.0000,0.0000,0.0000,0.0000,0.0000
-35.3207,27.4076,-8.9175,-0.1657,-0.0821,0.1200,1.6200,0.6400,0.0000,0.3658,-0.2224,0.0028,996,1502,1527,1502,2008,1000,1505,1000,1000,1002,1005,1000,1013,-0.0369,-0.0408,-0.0324,-0.0039,-0.0093,1.0014,0.5910,-0.1462,-0.5854,0.1406,0.8627,0.2400,0.1321,0.8627,0.2400,0.1321,0.3000,0.0600,0.0002,0,-4.8590,-254.6628,-0.4748,-4.8590,-254.6628,-0.4748,9.5001,42.6894,0.0200,0.2700,0.0000,0.0000,0.0000,0.0000,0.0000,0.0000
-35.2854,27.3868,-8.9011,-0.0000,-0.0000,0.1200,1.6200,0.6400,0.0000,0.3655,-0.2223,0.0027,996,1502,1527,1502,2008,1000,1505,1000,1000,1002,1005,1000,1013,-0.0178,0.0175,-0.0170,-0.0056,-0.0077,1.0005,0.5905,-0.1459,-0.5851,0.1404,0.8627,0.2400,0.1321,0.8627,0.2400,0.1321,0.3000,0.0600,0.0002,0,-4.8590,-254.6628,-0.4748,-4.8590,-254.6628,-0.4748,9.4874,42.6529,0.0200,0.2700,0.0000,0.0000,0.0000,0.0000,0.0000,0.0000
-35.2504,27.3663,-8.8846,-0.0829,-0.0000,0.1200,1.6200,0.6400,0.0000,0.3653,-0.2221,0.0027,996,1502,1527,1502,2008,1000,1505,1000,1000,1002,1005,1000,1013,-0.1020,-0.0095,-0.0109,0.0003,-0.0053,1.0028,0.5901,-0.1459,-0.5846,0.1404,0.8627,0.2400,0.1321,0.8627,0.2400,0.1321,0.3000,0.0600,0.0002,0,-4.8590,-254.6628,-0.4748,-4.8590,-254.6628,-0.4748,9.4745,42.6165,0.0200,0.2700,0.0000,0.0000,0.0000,0.0000,0.0000,0.0000
-35.2157,27.3452,-8.8683,-0.0829,-0.0000,0.1200,1.6200,0.6400,0.0000,0.3649,-0.2219,0.0028,996,1502,1527,1502,2008,1000,1505,1000,1000,1002,1005,1000,1013,-0.0121,-0.0198,-0.0326,-0.0040,-0.0063,1.0038,0.5896,-0.1458,-0.5839,0.1401,0.8627,0.2400,0.1321,0.8627,0.2400,0.1321,0.3000,0.0600,0.0002,0,-4.8590,-254.6628,-0.4748,-4.8590,-254.6628,-0.4748,9.4617,42.5801,0.0200,0.2700,0.0000,0.0000,0.0000,0.0000,0.0000,0.0000
-35.1805,27.3242,-8.8521,-0.0829,-0.0000,0.1200,1.6200,0.6400,0.0000,0.3645,-0.2218,0.0027,996,1502,1527,1502,2008,1000,1505,1000,1000,1002,1005,1000,1013,0.0320,0.0001,-0.0025,-0.0040,-0.0059,0.9977,0.5890,-0.1455,-0.5835,0.1400,0.8627,0.2400,0.1321,0.8627,0.2400,0.1321,0.3000,0.0600,0.0002,0,-4.8590,-254.6628,-0.4748,-4.8590,-254.6628,-0.4748,9.4495,42.5434,0.0200,0.2700,0.0000,0.0000,0.0000,0.0000,0.0000,0.0000
-35.1447,27.3035,-8.8357,-0.0829,-0.0000,0.2400,1.6800,1.2800,0.0000,0.3653,-0.2211,0.0066,997,1503,1527,1503,2008,1000,1505,1000,1000,1002,1005,1000,1013,0.0101,0.0006,-0.0153,-0.0035,-0.0094,1.0008,0.5929,-0.1508,-0.5797,0.1376,0.8627,0.2400,0.1321,0.8627,0.2400,0.1321,0.3000,0.0600,0.0002,0,-4.8590,-254.6628,-0.4748,-4.8590,-254.6628,-0.4748,9.4377,42.5068,0.0400,0.2800,0.0000,0.0000,0.0000,0.0000,0.0000,0.0000
-35.1088,27.2826,-8.8192,-0.1657,-0.0000,0.1200,1.6200,0.6400,0.0000,0.3638,-0.2213,0.0025,996,1502,1527,1502,2008,1000,1505,1000,1000,1002,1005,1000,1013,0.0524,-0.0481,0.0431,-0.0070,-0.0078,1.0073,0.5877,-0.1451,-0.5826,0.1400,0.8627,0.2400,0.1321,0.8627,0.2400,0.1321,0.3000,0.0600,0.0002,0,-4.8590,-254.6628,-0.4748,-4.8590,-254.6628,-0.4748,9.4250,42.4700,0.0200,0.2700,0.0000,0.0000,0.0000,0.0000,0.0000,0.0000
-35.0727,27.2617,-8.8022,-0.0829,-0.0000,0.1200,1.6200,0.6400,0.0000,0.3636,-0.2212,0.0025,996,1502,1527,1502,2008,1000,1505,1000,1000,1002,1005,1000,1013,-0.0208,-0.0354,0.0634,-0.0013,-0.0105,1.0009,0.5873,-0.1450,-0.5823,0.1400,0.8627,0.2400,0.1321,0.8627,0.2400,0.1321,0.3000,0.0600,0.0002,0,-4.8590,-254.6628,-0.4748,-4.8590,-254.6628,-0.4748,9.4123,42.4335,0.0200,0.2700,0.0000,0.0000,0.0000,0.0000,0.0000,0.0000
-35.0375,27.2407,-8.7855,-0.0000,0.0821,0.1200,1.6200,0.6400,0.0000,0.3633,-0.2209,0.0027,996,1502,1527,1502,2008,1000,1505,1000,1000,1002,1005,1000,1013,-0.0193,-0.0683,0.0242,-0.0040,-0.0083,1.0003,0.5869,-0.1450,-0.5816,0.1397,0.8627,0.2400,0.1321,0.8627,0.2400,0.1321,0.3000,0.0600,0.0002,0,-4.8590,-254.6628,-0.4748,-4.8590,-254.6628,-0.4748,9.3996,42.3965,0.0200,0.2700,0.0000,0.0000,0.0000,0.0000,0.0000,0.0000
-35.0018,27.2201,-8.7689,0.0829,-0.0000,0.1200,1.6200,0.6400,0.0000,0.3630,-0.2209,0.0027,996,1502,1527,1502,2008,1000,1505,1000,1000,1002,1005,1000,1013,-0.0257,0.0164,0.0002,-0.0045,-0.0080,1.0021,0.5866,-0.1449,-0.5812,0.1394,0.8627,0.2400,0.1321,0.8627,0.2400,0.1321,0.3000,0.0600,0.0002,0,-4.8590,-254.6628,-0.4748,-4.8590,-254.6628,-0.4748,9.3870,42.3596,0.0200,0.2700,0.0000,0.0000,0.0000,0.0000,0.0000,0.0000
-34.9671,27.1993,-8.7534,-0.2486,-0.0821,0.1200,1.6200,0.6400,0.0000,0.3628,-0.2207,0.0029,996,1502,1527,1502,2008,1000,1505,1000,1000,1002,1005,1000,1013,-0.0636,0.0495,-0.0437,-0.0019,-0.0076,1.0007,0.5864,-0.1449,-0.5807,0.1392,0.8627,0.2400,0.1321,0.8627,0.2400,0.1321,0.3000,0.0600,0.0002,0,-4.8590,-254.6628,-0.4748,-4.8590,-254.6628,-0.4748,9.3745,42.3224,0.0200,0.2700,0.0000,0.0000,0.0000,0.0000,0.0000,0.0000
-34.9322,27.1791,-8.7376,-0.1657,-0.0000,0.2400,1.6800,1.2800,0.0000,0.3634,-0.2200,0.0065,997,1503,1527,1503,2008,1000,1505,1000,1000,1002,1005,1000,1013,0.0042,0.0256,0.0098,-0.0035,-0.0068,1.0007,0.5900,-0.1499,-0.5769,0.1369,0.8627,0.2400,0.1321,0.8627,0.2400,0.1321,0.3000,0.0600,0.0002,0,-4.8590,-254.6628,-0.4748,-4.8590,-254.6628,-0.4748,9.3618,42.2855,0.0400,0.2800,0.0000,0.0000,0.0000,0.0000,0.0000,0.0000
-34.8970,27.1586,-8.7213,-0.2486,-0.0000,0.1200,1.6200,0.6400,0.0000,0.3621,-0.2204,0.0026,996,1502,1527,1502,2008,1000,1505,1000,1000,1002,1005,1000,1013,-0.0105,0.0463,0.0495,-0.0042,-0.0087,1.0025,0.5851,-0.1443,-0.5799,0.1391,0.8627,0.2400,0.1321,0.8627,0.2400,0.1321,0.3000,0.0600,0.0002,0,-4.8590,-254.6628,-0.4748,-4.8590,-254.6628,-0.4748,9.3489,42.2491,0.0200,0.2700,0.0000,0.0000,0.0000,0.0000,0.0000,0.0000
-34.8620,27.1382,-8.7052,-0.0829,-0.0000,0.1200,1.6200,0.6400,0.0000,0.3619,-0.2202,0.0027,996,1502,1527,1502,2008,1000,1505,1000,1000,1002,1005,1000,1013,-0.0669,0.0535,0.0153,-0.0009,-0.0111,1.0013,0.5848,-0.1443,-0.5794,0.1390,0.8627,0.2400,0.1321,0.8627,0.2400,0.1321,0.3000,0.0600,0.0002,0,-4.8590,-254.6628,-0.4748,-4.8590,-254.6628,-0.4748,9.3371,42.2123,0.0200,0.2700,0.0000,0.0000,0.0000,0.0000,0.0000,0.0000
-34.8269,27.1171,-8.6889,-0.1657,-0.0821,0.1200,1.6200,0.6400,0.0000,0.3615,-0.2198,0.0028,996,1502,1527,1502,2008,1000,1505,1000,1000,1002,1005,1000,1013,0.0049,-0.1184,-0.0218,-0.0058,-0.0113,1.0044,0.5841,-0.1445,-0.5785,0.1389,0.8627,0.2400,0.1321,0.8627,0.2400,0.1321,0.3000,0.0600,0.0002,0,-4.8590,-254.6628,-0.4748,-4.8590,-254.6628,-0.4748,9.3245,42.1755,0.0200,0.2700,0.0000,0.0000,0.0000,0.0000,0.0000,0.0000
-34.7913,27.0957,-8.6729,-0.1657,-0.0000,0.1200,1.6200,0.6400,0.0000,0.3612,-0.2198,0.0028,996,1502,1527,1502,2008,1000,1505,1000,1000,1001,1005,1000,1013,-0.0171,-0.0126,-0.0245,-0.0042,-0.0103,1.0027,0.5838,-0.1442,-0.5782,0.1387,0.8627,0.2400,0.1321,0.8627,0.2400,0.1321,0.3000,0.0600,0.0002,0,-4.8393,-254.6628,-0.4748,-4.8393,-254.6628,-0.4748,9.3116,42.1379,0.0200,0.2700,0.0000,0.0000,0.0000,0.0000,0.0000,0.0000
-34.7565,27.0748,-8.6569,-0.2486,-0.0821,0.1200,1.6200,0.6400,0.0000,0.3609,-0.2196,0.0026,996,1502,1527,1502,2008,1000,1505,1000,1000,1001,1005,1000,1013,-0.0510,0.0380,0.0220,-0.0064,-0.0080,1.0038,0.5832,-0.1439,-0.5780,0.1387,0.8627,0.2400,0.1321,0.8627,0.2400,0.1321,0.3000,0.0600,0.0002,0,-4.8393,-254.6628,-0.4748,-4.8393,-254.6628,-0.4748,9.2986,42.1009,0.0200,0.2700,0.0000,0.0000,0.0000,0.0000,0.0000,0.0000
-34.7218,27.0543,-8.6410,-0.1657,-0.0000,0.2400,1.6800,1.2800,0.0000,0.3617,-0.2189,0.0066,997,1503,1527,1503,2008,1000,1505,1000,1000,1002,1005,1000,1013,-0.0650,-0.0013,-0.0170,-0.0035,-0.0084,0.9992,0.5872,-0.1494,-0.5740,0.1362,0.8627,0.2400,0.1321,0.8627,0.2400,0.1321,0.3000,0.0600,0.0002,0,-4.8590,-254.6628,-0.4748,-4.8590,-254.6628,-0.4748,9.2852,42.0641,0.0400,0.2800,0.0000,0.0000,0.0000,0.0000,0.0000,0.0000
