roll_imu,pitch_imu,yaw_imu,alpha,beta,roll_des,pitch_des,yaw_des,throttle_des,roll_pid,pitch_pid,yaw_pid,radio_ch1,radio_ch2,radio_ch3,radio_ch4,radio_ch5,radio_ch6,radio_ch7,radio_ch8,radio_ch9,radio_ch10,radio_ch11,radio_ch12,radio_ch13,GyroX,GyroY,GyroZ,AccX,AccY,AccZ,s1_command,s2_command,s3_command,s4_command,kp_roll,ki_roll,kd_roll,kp_pitch,ki_pitch,kd_pitch,kp_yaw,ki_yaw,kd_yaw,failsafeTriggered,kp_alphaRoll,ki_alphaRoll,kd_alphaRoll,kp_betaPitch,ki_betaPitch,kd_betaPitch,ripIMU_roll,ripIMU_pitch,ripRoll_des,ripPitch_des,error_alphaRoll,integral_alphaRoll,derivative_alphaRoll,error_betaPitch,integral_betaPitch,derivative_betaPitch
0.0000,0.0000,0.0000,1.7403,4.8837,0.0000,0.0000,0.0000,0.0000,0.0000,0.0000,0.0000,1000,1500,1500,1500,2000,1000,1000,1000,1500,1500,1500,1500,1500,0.0000,0.0000,0.0000,0.0000,0.0000,0.0000,0.0000,0.0000,0.0000,0.0000,0.8627,0.2400,0.1321,0.8627,0.2400,0.1321,0.3000,0.0600,0.0002,0,-4.9280,-256.2000,-0.5040,-4.9280,-256.2000,-0.5040,0.0000,0.0000,0.0000,0.0000,0.0000,0.0000,0.0000,0.0000,0.0000,0.0000
40.2998,34.8321,13.2806,-0.0829,0.0000,-7.8600,-6.5400,-42.8800,0.0000,-0.4757,-0.3569,-0.1288,910,1369,1391,1366,2008,1000,1505,1000,1000,1004,1005,1014,1014,0.1365,-0.0222,-0.0095,-0.0162,0.0150,0.8753,-0.2476,0.9614,-0.0101,-0.7037,0.8627,0.2400,0.1321,0.8627,0.2400,0.1321,0.3000,0.0600,0.0002,0,-4.9280,-256.2000,-0.5060,-4.9280,-256.2000,-0.5060,33.0048,41.5556,-1.3100,-1.0900,0.0000,0.0000,0.0000,0.0000,0.0000,0.0000
40.2656,34.8126,13.2600,-0.0829,0.0000,-2.2200,-0.7800,-12.4800,0.0000,-0.4266,-0.3070,-0.0378,971,1462,1487,1461,2008,1000,1505,1000,1000,1003,1005,1013,1014,0.0875,-0.0184,-0.0323,-0.0184,0.0148,0.9900,-0.1574,0.7715,0.0818,-0.6959,0.8627,0.2400,0.1321,0.8627,0.2400,0.1321,0.3000,0.0600,0.0002,0,-4.9083,-256.2000,-0.5040,-4.9083,-256.2000,-0.5040,32.9735,41.5300,-0.3700,-0.1300,0.0000,0.0000,0.0000,0.0000,0.0000,0.0000
40.2309,34.7937,13.2395,0.0000,0.0000,-0.4800,0.9000,-3.2000,0.0000,-0.4113,-0.2925,-0.0101,991,1492,1515,1490,2008,1000,1505,1000,1000,1003,1005,1013,1014,0.0613,0.0397,-0.0438,-0.0190,0.0151,0.9977,-0.1289,0.7138,0.1088,-0.6937,0.8627,0.2400,0.1321,0.8627,0.2400,0.1321,0.3000,0.0600,0.0002,0,-4.9083,-256.2000,-0.5040,-4.9083,-256.2000,-0.5040,32.9417,41.5047,-0.0800,0.1500,0.0000,0.0000,0.0000,0.0000,0.0000,0.0000
40.1960,34.7745,13.2186,-0.0829,0.0821,0.0000,1.3200,-0.9600,0.0000,-0.4069,-0.2886,-0.0031,996,1500,1522,1497,2008,1000,1505,1000,1000,1004,1005,1013,1014,0.0882,-0.0372,-0.1088,-0.0195,0.0165,0.9970,-0.1214,0.6986,0.1152,-0.6923,0.8627,0.2400,0.1321,0.8627,0.2400,0.1321,0.3000,0.0600,0.0002,0,-4.9280,-256.2000,-0.5040,-4.9280,-256.2000,-0.5040,32.9093,41.4793,0.0000,0.2200,0.0000,0.0000,0.0000,0.0000,0.0000,0.0000
40.1613,34.7558,13.1979,0.0000,0.0000,0.1200,1.5000,0.0000,0.0000,-0.4056,-0.2869,-0.0004,996,1502,1525,1500,2008,1000,1505,1000,1000,1004,1005,1013,1014,0.0890,0.0302,-0.0773,-0.0212,0.0151,0.9949,-0.1190,0.6929,0.1183,-0.6921,0.8627,0.2400,0.1321,0.8627,0.2400,0.1321,0.3000,0.0600,0.0002,0,-4.9280,-256.2000,-0.5040,-4.9280,-256.2000,-0.5040,32.8778,41.4542,0.0200,0.2500,0.0000,0.0000,0.0000,0.0000,0.0000,0.0000
40.1267,34.7366,13.1773,0.0000,0.0000,0.1200,1.6200,0.6400,0.0000,-0.4053,-0.2857,0.0014,996,1502,1527,1502,2008,1000,1505,1000,1000,1003,1005,1014,1014,0.1130,-0.0129,-0.0360,-0.0173,0.0125,0.9984,-0.1182,0.6895,0.1210,-0.6924,0.8627,0.2400,0.1321,0.8627,0.2400,0.1321,0.3000,0.0600,0.0002,0,-4.9083,-256.2000,-0.5060,-4.9083,-256.2000,-0.5060,32.8466,41.4287,0.0200,0.2700,0.0000,0.0000,0.0000,0.0000,0.0000,0.0000
40.0919,34.7170,13.1567,0.0000,0.0000,0.1200,1.6200,0.6400,0.0000,-0.4049,-0.2855,0.0014,996,1502,1527,1502,2008,1000,1505,1000,1000,1003,1005,1014,1014,0.0508,-0.0191,-0.0099,-0.0186,0.0116,1.0016,-0.1180,0.6890,0.1208,-0.6918,0.8627,0.2400,0.1321,0.8627,0.2400,0.1321,0.3000,0.0600,0.0002,0,-4.9083,-256.2000,-0.5060,-4.9083,-256.2000,-0.5060,32.8147,41.4033,0.0200,0.2700,0.0000,0.0000,0.0000,0.0000,0.0000,0.0000
40.0570,34.6976,13.1360,0.0000,0.0000,0.1800,1.6200,0.6400,0.0000,-0.4041,-0.2854,0.0015,996,1502,1527,1502,2008,1000,1505,1000,1000,1004,1005,1013,1014,0.0781,0.0103,-0.0487,-0.0209,0.0144,0.9957,-0.1172,0.6880,0.1203,-0.6910,0.8627,0.2400,0.1321,0.8627,0.2400,0.1321,0.3000,0.0600,0.0002,0,-4.9280,-256.2000,-0.5040,-4.9280,-256.2000,-0.5040,32.7830,41.3780,0.0300,0.2700,0.0000,0.0000,0.0000,0.0000,0.0000,0.0000
40.0222,34.6786,13.1152,-0.0829,0.0000,0.1200,1.6200,0.6400,0.0000,-0.4044,-0.2852,0.0016,996,1502,1527,1502,2008,1000,1505,1000,1000,1003,1005,1014,1014,0.1229,0.0147,-0.0834,-0.0188,0.0122,0.9939,-0.1175,0.6880,0.1208,-0.6913,0.8627,0.2400,0.1321,0.8627,0.2400,0.1321,0.3000,0.0600,0.0002,0,-4.9083,-256.2000,-0.5060,-4.9083,-256.2000,-0.5060,32.7511,41.3525,0.0200,0.2700,0.0000,0.0000,0.0000,0.0000,0.0000,0.0000
39.9877,34.6593,13.0942,0.0000,0.0000,0.1200,1.6200,0.6400,0.0000,-0.4041,-0.2849,0.0014,996,1502,1527,1502,2008,1000,1505,1000,1000,1003,1005,1014,1014,0.1275,-0.0914,-0.0181,-0.0229,0.0144,0.9981,-0.1178,0.6876,0.1206,-0.6904,0.8627,0.2400,0.1321,0.8627,0.2400,0.1321,0.3000,0.0600,0.0002,0,-4.9083,-256.2000,-0.5060,-4.9083,-256.2000,-0.5060,32.7193,41.3273,0.0200,0.2700,0.0000,0.0000,0.0000,0.0000,0.0000,0.0000
39.9533,34.6398,13.0736,0.0000,0.0000,0.1200,1.6200,0.6400,0.0000,-0.4038,-0.2848,0.0016,996,1502,1527,1502,2008,1000,1505,1000,1000,1004,1005,1013,1014,0.1366,-0.0794,-0.0840,-0.0194,0.0168,0.9996,-0.1175,0.6870,0.1207,-0.6902,0.8627,0.2400,0.1321,0.8627,0.2400,0.1321,0.3000,0.0600,0.0002,0,-4.9280,-256.2000,-0.5040,-4.9280,-256.2000,-0.5040,32.6870,41.3016,0.0200,0.2700,0.0000,0.0000,0.0000,0.0000,0.0000,0.0000
39.9187,34.6205,13.0525,0.0000,-0.0821,0.1200,1.6200,0.6400,0.0000,-0.4035,-0.2846,0.0018,996,1502,1527,1502,2008,1000,1505,1000,1000,1004,1005,1013,1014,0.0815,-0.0603,-0.1430,-0.0216,0.0146,1.0006,-0.1170,0.6862,0.1207,-0.6899,0.8627,0.2400,0.1321,0.8627,0.2400,0.1321,0.3000,0.0600,0.0002,0,-4.9280,-256.2000,-0.5040,-4.9280,-256.2000,-0.5040,32.6551,41.2760,0.0200,0.2700,0.0000,0.0000,0.0000,0.0000,0.0000,0.0000
39.8836,34.6009,13.0314,-0.0829,-0.0821,0.1200,1.6200,0.6400,0.0000,-0.4032,-0.2844,0.0014,996,1502,1527,1502,2008,1000,1505,1000,1000,1003,1005,1013,1014,0.0970,-0.0630,-0.0096,-0.0207,0.0139,0.9995,-0.1173,0.6862,0.1201,-0.6890,0.8627,0.2400,0.1321,0.8627,0.2400,0.1321,0.3000,0.0600,0.0002,0,-4.9083,-256.2000,-0.5040,-4.9083,-256.2000,-0.5040,32.6236,41.2507,0.0200,0.2700,0.0000,0.0000,0.0000,0.0000,0.0000,0.0000
39.8489,34.5808,13.0110,-0.0829,0.0000,0.1800,1.6200,0.6400,0.0000,-0.4023,-0.2843,0.0013,996,1502,1527,1502,2008,1000,1505,1000,1000,1003,1005,1013,1014,0.0626,-0.0743,0.0282,-0.0183,0.0149,0.9958,-0.1168,0.6853,0.1193,-0.6879,0.8627,0.2400,0.1321,0.8627,0.2400,0.1321,0.3000,0.0600,0.0002,0,-4.9083,-256.2000,-0.5040,-4.9083,-256.2000,-0.5040,32.5919,41.2257,0.0300,0.2700,0.0000,0.0000,0.0000,0.0000,0.0000,0.0000
39.8142,34.5612,12.9906,-0.1657,-0.0821,0.1200,1.6200,0.6400,0.0000,-0.4025,-0.2842,0.0017,996,1502,1527,1502,2008,1000,1505,1000,1000,1003,1005,1013,1014,0.0487,0.0175,-0.0889,-0.0205,0.0162,0.9979,-0.1166,0.6850,0.1200,-0.6884,0.8627,0.2400,0.1321,0.8627,0.2400,0.1321,0.3000,0.0600,0.0002,0,-4.9083,-256.2000,-0.5040,-4.9083,-256.2000,-0.5040,32.5607,41.2007,0.0200,0.2700,0.0000,0.0000,0.0000,0.0000,0.0000,0.0000
39.7794,34.5418,12.9700,0.0000,0.0000,0.1200,1.6200,0.6400,0.0000,-0.4023,-0.2840,0.0018,996,1502,1527,1502,2008,1000,1505,1000,1000,1003,1005,1013,1014,0.1127,-0.0062,-0.1054,-0.0202,0.0157,0.9942,-0.1165,0.6845,0.1200,-0.6881,0.8627,0.2400,0.1321,0.8627,0.2400,0.1321,0.3000,0.0600,0.0002,0,-4.9083,-256.2000,-0.5040,-4.9083,-256.2000,-0.5040,32.5296,41.1754,0.0200,0.2700,0.0000,0.0000,0.0000,0.0000,0.0000,0.0000
39.7446,34.5226,12.9490,-0.0829,-0.0821,0.1200,1.6200,0.6400,0.0000,-0.4020,-0.2838,0.0013,996,1502,1527,1502,2008,1000,1505,1000,1000,1003,1005,1013,1014,0.0915,-0.0304,-0.0019,-0.0200,0.0142,0.9994,-0.1168,0.6844,0.1195,-0.6871,0.8627,0.2400,0.1321,0.8627,0.2400,0.1321,0.3000,0.0600,0.0002,0,-4.9083,-256.2000,-0.5040,-4.9083,-256.2000,-0.5040,32.4986,41.1501,0.0200,0.2700,0.0000,0.0000,0.0000,0.0000,0.0000,0.0000
39.7102,34.5024,12.9284,-0.0829,-0.0821,0.1200,1.6200,0.6400,0.0000,-0.4017,-0.2836,0.0014,996,1502,1527,1502,2008,1000,1505,1000,1000,1003,1005,1013,1014,0.0812,-0.0834,0.0015,-0.0235,0.0141,0.9965,-0.1167,0.6838,0.1195,-0.6866,0.8627,0.2400,0.1321,0.8627,0.2400,0.1321,0.3000,0.0600,0.0002,0,-4.9083,-256.2000,-0.5040,-4.9083,-256.2000,-0.5040,32.4671,41.1250,0.0200,0.2700,0.0000,0.0000,0.0000,0.0000,0.0000,0.0000
39.6753,34.4823,12.9077,-0.0829,0.0000,0.1200,1.6200,0.6400,0.0000,-0.4014,-0.2834,0.0015,996,1502,1527,1502,2008,1000,1505,1000,1000,1003,1005,1013,1014,0.0922,-0.0606,-0.0412,-0.0200,0.0150,0.9981,-0.1164,0.6833,0.1195,-0.6863,0.8627,0.2400,0.1321,0.8627,0.2400,0.1321,0.3000,0.0600,0.0002,0,-4.9083,-256.2000,-0.5040,-4.9083,-256.2000,-0.5040,32.4354,41.0995,0.0200,0.2700,0.0000,0.0000,0.0000,0.0000,0.0000,0.0000
39.6405,34.4625,12.8866,-0.0829,0.0000,0.1800,1.6200,0.6400,0.0000,-0.4006,-0.2833,0.0016,996,1502,1527,1502,2008,1000,1505,1000,1000,1003,1005,1013,1014,0.1340,-0.0544,-0.0800,-0.0205,0.0134,1.0013,-0.1157,0.6822,0.1190,-0.6855,0.8627,0.2400,0.1321,0.8627,0.2400,0.1321,0.3000,0.0600,0.0002,0,-4.9083,-256.2000,-0.5040,-4.9083,-256.2000,-0.5040,32.4033,41.0734,0.0300,0.2700,0.0000,0.0000,0.0000,0.0000,0.0000,0.0000
39.6059,34.4428,12.8661,0.0000,0.0000,0.1200,1.6200,0.6400,0.0000,-0.4008,-0.2831,0.0015,996,1502,1527,1502,2008,1000,1505,1000,1000,1004,1005,1013,1014,0.0953,-0.0097,-0.0356,-0.0211,0.0149,0.9973,-0.1161,0.6824,0.1192,-0.6855,0.8627,0.2400,0.1321,0.8627,0.2400,0.1321,0.3000,0.0600,0.0002,0,-4.9280,-256.2000,-0.5040,-4.9280,-256.2000,-0.5040,32.3716,41.0478,0.0200,0.2700,0.0000,0.0000,0.0000,0.0000,0.0000,0.0000
39.5715,34.4232,12.8456,0.0829,0.0000,0.1200,1.6200,0.6400,0.0000,-0.4005,-0.2830,0.0016,996,1502,1527,1502,2008,1000,1505,1000,1000,1004,1005,1013,1014,0.1216,0.0006,-0.0551,-0.0188,0.0160,0.9988,-0.1159,0.6819,0.1191,-0.6851,0.8627,0.2400,0.1321,0.8627,0.2400,0.1321,0.3000,0.0600,0.0002,0,-4.9280,-256.2000,-0.5040,-4.9280,-256.2000,-0.5040,32.3403,41.0222,0.0200,0.2700,0.0000,0.0000,0.0000,0.0000,0.0000,0.0000
39.5370,34.4036,12.8255,-0.1657,0.0000,0.1200,1.6200,0.6400,0.0000,-0.4001,-0.2827,0.0014,996,1502,1527,1502,2008,1000,1505,1000,1000,1003,1005,1013,1014,0.0711,-0.0639,-0.0083,-0.0173,0.0157,0.9999,-0.1160,0.6814,0.1188,-0.6843,0.8627,0.2400,0.1321,0.8627,0.2400,0.1321,0.3000,0.0600,0.0002,0,-4.9083,-256.2000,-0.5040,-4.9083,-256.2000,-0.5040,32.3085,40.9965,0.0200,0.2700,0.0000,0.0000,0.0000,0.0000,0.0000,0.0000
39.5028,34.3839,12.8052,-0.0829,0.0821,0.1200,1.6200,0.6400,0.0000,-0.3999,-0.2826,0.0015,996,1502,1527,1502,2008,1000,1505,1000,1000,1003,1005,1013,1014,0.1114,-0.0595,-0.0161,-0.0183,0.0136,1.0007,-0.1159,0.6810,0.1188,-0.6840,0.8627,0.2400,0.1321,0.8627,0.2400,0.1321,0.3000,0.0600,0.0002,0,-4.9083,-256.2000,-0.5040,-4.9083,-256.2000,-0.5040,32.2770,40.9706,0.0200,0.2700,0.0000,0.0000,0.0000,0.0000,0.0000,0.0000
39.4681,34.3645,12.7850,0.0000,0.0000,0.1200,1.6200,0.6400,0.0000,-0.3996,-0.2826,0.0017,996,1502,1527,1502,2008,1000,1505,1000,1000,1003,1005,1013,1014,0.1104,0.0827,-0.0839,-0.0187,0.0136,0.9965,-0.1153,0.6805,0.1187,-0.6839,0.8627,0.2400,0.1321,0.8627,0.2400,0.1321,0.3000,0.0600,0.0002,0,-4.9083,-256.2000,-0.5040,-4.9083,-256.2000,-0.5040,32.2456,40.9447,0.0200,0.2700,0.0000,0.0000,0.0000,0.0000,0.0000,0.0000
39.4340,34.3454,12.7649,0.0000,-0.0821,0.1800,1.6200,0.6400,0.0000,-0.3988,-0.2823,0.0015,996,1502,1527,1502,2008,1000,1505,1000,1000,1004,1005,1013,1014,0.1237,-0.0280,-0.0206,-0.0202,0.0160,0.9967,-0.1150,0.6796,0.1180,-0.6826,0.8627,0.2400,0.1321,0.8627,0.2400,0.1321,0.3000,0.0600,0.0002,0,-4.9280,-256.2000,-0.5040,-4.9280,-256.2000,-0.5040,32.2137,40.9190,0.0300,0.2700,0.0000,0.0000,0.0000,0.0000,0.0000,0.0000
39.3996,34.3257,12.7444,0.0000,0.0000,0.1200,1.6200,0.6400,0.0000,-0.3991,-0.2821,0.0016,996,1502,1527,1502,2008,1000,1505,1000,1000,1004,1005,1013,1014,0.1435,-0.0455,-0.0850,-0.0186,0.0134,0.9968,-0.1153,0.6795,0.1186,-0.6828,0.8627,0.2400,0.1321,0.8627,0.2400,0.1321,0.3000,0.0600,0.0002,0,-4.9280,-256.2000,-0.5040,-4.9280,-256.2000,-0.5040,32.1821,40.8930,0.0200,0.2700,0.0000,0.0000,0.0000,0.0000,0.0000,0.0000
39.3653,34.3060,12.7239,-0.0829,0.0000,0.1200,1.6200,0.6400,0.0000,-0.3987,-0.2819,0.0015,996,1502,1527,1502,2008,1000,1505,1000,1000,1003,1005,1013,1014,0.1338,-0.0398,-0.0303,-0.0178,0.0141,0.9998,-0.1153,0.6792,0.1183,-0.6822,0.8627,0.2400,0.1321,0.8627,0.2400,0.1321,0.3000,0.0600,0.0002,0,-4.9083,-256.2000,-0.5040,-4.9083,-256.2000,-0.5040,32.1503,40.8672,0.0200,0.2700,0.0000,0.0000,0.0000,0.0000,0.0000,0.0000
39.3311,34.2862,12.7038,0.0000,0.0000,0.1200,1.6200,0.6400,0.0000,-0.3984,-0.2818,0.0016,996,1502,1527,1502,2008,1000,1505,1000,1000,1003,1005,1013,1014,0.0824,-0.0097,-0.0560,-0.0201,0.0141,1.0006,-0.1149,0.6785,0.1182,-0.6818,0.8627,0.2400,0.1321,0.8627,0.2400,0.1321,0.3000,0.0600,0.0002,0,-4.9083,-256.2000,-0.5040,-4.9083,-256.2000,-0.5040,32.1188,40.8413,0.0200,0.2700,0.0000,0.0000,0.0000,0.0000,0.0000,0.0000
39.2957,34.2662,12.6832,-0.0829,-0.0821,0.1200,1.6200,0.6400,0.0000,-0.3980,-0.2816,0.0015,996,1502,1527,1502,2008,1000,1505,1000,1000,1003,1005,1014,1014,0.0219,-0.0264,-0.0135,-0.0213,0.0135,0.9982,-0.1149,0.6781,0.1179,-0.6811,0.8627,0.2400,0.1321,0.8627,0.2400,0.1321,0.3000,0.0600,0.0002,0,-4.9083,-256.2000,-0.5060,-4.9083,-256.2000,-0.5060,32.0869,40.8148,0.0200,0.2700,0.0000,0.0000,0.0000,0.0000,0.0000,0.0000
39.2616,34.2464,12.6633,-0.0829,0.0000,0.1200,1.6200,0.6400,0.0000,-0.3978,-0.2815,0.0015,996,1502,1527,1502,2008,1000,1505,1000,1000,1003,1005,1014,1014,0.0953,-0.0044,-0.0164,-0.0187,0.0152,0.9961,-0.1148,0.6777,0.1179,-0.6808,0.8627,0.2400,0.1321,0.8627,0.2400,0.1321,0.3000,0.0600,0.0002,0,-4.9083,-256.2000,-0.5060,-4.9083,-256.2000,-0.5060,32.0554,40.7887,0.0200,0.2700,0.0000,0.0000,0.0000,0.0000,0.0000,0.0000
39.2272,34.2267,12.6432,-0.1657,-0.0821,0.1800,1.6200,0.6400,0.0000,-0.3970,-0.2812,0.0016,996,1502,1527,1502,2008,1000,1505,1000,1000,1003,1005,1013,1014,0.0976,-0.0422,-0.0364,-0.0202,0.0137,0.9986,-0.1142,0.6767,0.1173,-0.6798,0.8627,0.2400,0.1321,0.8627,0.2400,0.1321,0.3000,0.0600,0.0002,0,-4.9083,-256.2000,-0.5040,-4.9083,-256.2000,-0.5040,32.0243,40.7632,0.0300,0.2700,0.0000,0.0000,0.0000,0.0000,0.0000,0.0000
39.1926,34.2072,12.6229,0.0000,0.0000,0.1200,1.6200,0.6400,0.0000,-0.3972,-0.2812,0.0016,996,1502,1527,1502,2008,1000,1505,1000,1000,1003,1005,1013,1014,0.0641,0.0158,-0.0389,-0.0195,0.0153,0.9980,-0.1145,0.6768,0.1176,-0.6799,0.8627,0.2400,0.1321,0.8627,0.2400,0.1321,0.3000,0.0600,0.0002,0,-4.9083,-256.2000,-0.5040,-4.9083,-256.2000,-0.5040,31.9932,40.7371,0.0200,0.2700,0.0000,0.0000,0.0000,0.0000,0.0000,0.0000
39.1581,34.1875,12.6029,-0.0829,-0.0821,0.1200,1.6200,0.6400,0.0000,-0.3969,-0.2810,0.0015,996,1502,1527,1502,2008,1000,1505,1000,1000,1003,1005,1013,1014,0.1054,0.0035,-0.0018,-0.0200,0.0173,0.9962,-0.1145,0.6764,0.1174,-0.6793,0.8627,0.2400,0.1321,0.8627,0.2400,0.1321,0.3000,0.0600,0.0002,0,-4.9083,-256.2000,-0.5040,-4.9083,-256.2000,-0.5040,31.9622,40.7112,0.0200,0.2700,0.0000,0.0000,0.0000,0.0000,0.0000,0.0000
39.1242,34.1673,12.5837,-0.0829,0.0821,0.1200,1.6200,0.6400,0.0000,-0.3966,-0.2809,0.0014,996,1502,1527,1502,2008,1000,1505,1000,1000,1004,1005,1013,1014,0.0881,0.0492,0.0167,-0.0206,0.0141,0.9957,-0.1143,0.6760,0.1172,-0.6789,0.8627,0.2400,0.1321,0.8627,0.2400,0.1321,0.3000,0.0600,0.0002,0,-4.9280,-256.2000,-0.5040,-4.9280,-256.2000,-0.5040,31.9306,40.6850,0.0200,0.2700,0.0000,0.0000,0.0000,0.0000,0.0000,0.0000
39.0902,34.1471,12.5639,-0.1657,-0.0821,0.1200,1.6200,0.6400,0.0000,-0.3964,-0.2806,0.0018,996,1502,1527,1502,2008,1000,1505,1000,1000,1004,1005,1013,1014,0.1182,0.0221,-0.0735,-0.0222,0.0137,0.9975,-0.1140,0.6752,0.1175,-0.6788,0.8627,0.2400,0.1321,0.8627,0.2400,0.1321,0.3000,0.0600,0.0002,0,-4.9280,-256.2000,-0.5040,-4.9280,-256.2000,-0.5040,31.8996,40.6595,0.0200,0.2700,0.0000,0.0000,0.0000,0.0000,0.0000,0.0000
39.0556,34.1269,12.5434,-0.0829,0.0000,0.1200,1.6200,0.6400,0.0000,-0.3960,-0.2804,0.0015,996,1502,1527,1502,2008,1000,1505,1000,1000,1003,1005,1013,1014,0.1062,-0.0603,-0.0086,-0.0184,0.0153,0.9977,-0.1142,0.6749,0.1172,-0.6779,0.8627,0.2400,0.1321,0.8627,0.2400,0.1321,0.3000,0.0600,0.0002,0,-4.9083,-256.2000,-0.5040,-4.9083,-256.2000,-0.5040,31.8682,40.6337,0.0200,0.2700,0.0000,0.0000,0.0000,0.0000,0.0000,0.0000
39.0212,34.1066,12.5230,-0.0829,0.0000,0.1800,1.6200,0.6400,0.0000,-0.3952,-0.2802,0.0017,996,1502,1527,1502,2008,1000,1505,1000,1000,1003,1005,1014,1014,0.0835,-0.0353,-0.0638,-0.0182,0.0133,0.9995,-0.1133,0.6737,0.1167,-0.6771,0.8627,0.2400,0.1321,0.8627,0.2400,0.1321,0.3000,0.0600,0.0002,0,-4.9083,-256.2000,-0.5060,-4.9083,-256.2000,-0.5060,31.8368,40.6077,0.0300,0.2700,0.0000,0.0000,0.0000,0.0000,0.0000,0.0000
38.9863,34.0862,12.5021,0.0000,0.0000,0.1200,1.6200,0.6400,0.0000,-0.3954,-0.2800,0.0017,996,1502,1527,1502,2008,1000,1505,1000,1000,1003,1005,1014,1014,0.0577,-0.0342,-0.0645,-0.0195,0.0157,1.0001,-0.1137,0.6737,0.1170,-0.6771,0.8627,0.2400,0.1321,0.8627,0.2400,0.1321,0.3000,0.0600,0.0002,0,-4.9083,-256.2000,-0.5060,-4.9083,-256.2000,-0.5060,31.8053,40.5818,0.0200,0.2700,0.0000,0.0000,0.0000,0.0000,0.0000,0.0000
38.9515,34.0665,12.4817,0.0000,0.0000,0.1200,1.6200,0.6400,0.0000,-0.3951,-0.2798,0.0016,996,1502,1527,1502,2008,1000,1505,1000,1000,1003,1005,1013,1014,0.0533,-0.0679,-0.0494,-0.0177,0.0107,0.9995,-0.1136,0.6732,0.1169,-0.6765,0.8627,0.2400,0.1321,0.8627,0.2400,0.1321,0.3000,0.0600,0.0002,0,-4.9083,-256.2000,-0.5040,-4.9083,-256.2000,-0.5040,31.7744,40.5557,0.0200,0.2700,0.0000,0.0000,0.0000,0.0000,0.0000,0.0000
38.9165,34.0465,12.4612,-0.0829,0.0000,0.1200,1.6200,0.6400,0.0000,-0.3948,-0.2797,0.0017,996,1502,1527,1502,2008,1000,1505,1000,1000,1003,1005,1013,1014,0.0670,-0.0603,-0.0763,-0.0231,0.0157,1.0001,-0.1134,0.6727,0.1168,-0.6762,0.8627,0.2400,0.1321,0.8627,0.2400,0.1321,0.3000,0.0600,0.0002,0,-4.9083,-256.2000,-0.5040,-4.9083,-256.2000,-0.5040,31.7432,40.5302,0.0200,0.2700,0.0000,0.0000,0.0000,0.0000,0.0000,0.0000
38.8824,34.0269,12.4410,0.0000,0.0821,0.1200,1.6200,0.6400,0.0000,-0.3946,-0.2796,0.0018,996,1502,1527,1502,2008,1000,1505,1000,1000,1004,1005,1013,1014,0.1447,-0.0105,-0.0827,-0.0211,0.0146,1.0022,-0.1132,0.6724,0.1168,-0.6759,0.8627,0.2400,0.1321,0.8627,0.2400,0.1321,0.3000,0.0600,0.0002,0,-4.9280,-256.2000,-0.5040,-4.9280,-256.2000,-0.5040,31.7127,40.5041,0.0200,0.2700,0.0000,0.0000,0.0000,0.0000,0.0000,0.0000
38.8481,34.0069,12.4209,-0.0829,-0.0821,0.1200,1.6200,0.6400,0.0000,-0.3943,-0.2794,0.0015,996,1502,1527,1502,2008,1000,1505,1000,1000,1004,1005,1013,1014,0.1245,-0.0225,0.0159,-0.0201,0.0134,0.9980,-0.1134,0.6722,0.1164,-0.6751,0.8627,0.2400,0.1321,0.8627,0.2400,0.1321,0.3000,0.0600,0.0002,0,-4.9280,-256.2000,-0.5040,-4.9280,-256.2000,-0.5040,31.6806,40.4778,0.0200,0.2700,0.0000,0.0000,0.0000,0.0000,0.0000,0.0000
38.8139,33.9869,12.4004,0.0000,0.0821,0.1800,1.6200,0.6400,0.0000,-0.3935,-0.2791,0.0017,996,1502,1527,1502,2008,1000,1505,1000,1000,1003,1005,1014,1014,0.1178,-0.0812,-0.0773,-0.0195,0.0141,1.0001,-0.1126,0.6709,0.1161,-0.6743,0.8627,0.2400,0.1321,0.8627,0.2400,0.1321,0.3000,0.0600,0.0002,0,-4.9083,-256.2000,-0.5060,-4.9083,-256.2000,-0.5060,31.6492,40.4518,0.0300,0.2700,0.0000,0.0000,0.0000,0.0000,0.0000,0.0000
38.7787,33.9668,12.3799,0.0000,0.0000,0.1200,1.6200,0.6400,0.0000,-0.3936,-0.2790,0.0015,996,1502,1527,1502,2008,1000,1505,1000,1000,1004,1005,1013,1014,0.0495,-0.0367,-0.0128,-0.0194,0.0145,0.9972,-0.1130,0.6710,0.1161,-0.6741,0.8627,0.2400,0.1321,0.8627,0.2400,0.1321,0.3000,0.0600,0.0002,0,-4.9280,-256.2000,-0.5040,-4.9280,-256.2000,-0.5040,31.6179,40.4263,0.0200,0.2700,0.0000,0.0000,0.0000,0.0000,0.0000,0.0000
38.7436,33.9464,12.3594,0.0000,0.0821,0.1200,1.6200,0.6400,0.0000,-0.3933,-0.2789,0.0018,996,1502,1527,1502,2008,1000,1505,1000,1000,1004,1005,1013,1014,0.0470,-0.0134,-0.0827,-0.0180,0.0131,1.0000,-0.1126,0.6704,0.1162,-0.6739,0.8627,0.2400,0.1321,0.8627,0.2400,0.1321,0.3000,0.0600,0.0002,0,-4.9280,-256.2000,-0.5040,-4.9280,-256.2000,-0.5040,31.5866,40.4006,0.0200,0.2700,0.0000,0.0000,0.0000,0.0000,0.0000,0.0000
38.7096,33.9266,12.3398,0.0000,0.0000,0.1200,1.6200,0.6400,0.0000,-0.3931,-0.2787,0.0015,996,1502,1527,1502,2008,1000,1505,1000,1000,1003,1005,1013,1014,0.1295,-0.0103,-0.0089,-0.0203,0.0146,0.9966,-0.1129,0.6702,0.1159,-0.6733,0.8627,0.2400,0.1321,0.8627,0.2400,0.1321,0.3000,0.0600,0.0002,0,-4.9083,-256.2000,-0.5040,-4.9083,-256.2000,-0.5040,31.5550,40.3748,0.0200,0.2700,0.0000,0.0000,0.0000,0.0000,0.0000,0.0000
38.6755,33.9065,12.3201,-0.0829,0.0000,0.1200,1.6200,0.6400,0.0000,-0.3927,-0.2785,0.0016,996,1502,1527,1502,2008,1000,1505,1000,1000,1003,1005,1013,1014,0.0912,-0.0262,-0.0341,-0.0185,0.0159,1.0034,-0.1126,0.6696,0.1159,-0.6729,0.8627,0.2400,0.1321,0.8627,0.2400,0.1321,0.3000,0.0600,0.0002,0,-4.9083,-256.2000,-0.5040,-4.9083,-256.2000,-0.5040,31.5238,40.3488,0.0200,0.2700,0.0000,0.0000,0.0000,0.0000,0.0000,0.0000
38.6414,33.8865,12.3006,0.0000,0.0000,0.1200,1.6200,0.6400,0.0000,-0.3924,-0.2784,0.0016,996,1502,1527,1502,2008,1000,1505,1000,1000,1003,1005,1013,1014,0.0743,0.0399,-0.0109,-0.0182,0.0167,0.9984,-0.1124,0.6693,0.1156,-0.6724,0.8627,0.2400,0.1321,0.8627,0.2400,0.1321,0.3000,0.0600,0.0002,0,-4.9083,-256.2000,-0.5040,-4.9083,-256.2000,-0.5040,31.4927,40.3225,0.0200,0.2700,0.0000,0.0000,0.0000,0.0000,0.0000,0.0000
38.6068,33.8667,12.2802,0.0000,0.0000,0.1800,1.6200,0.6400,0.0000,-0.3917,-0.2782,0.0019,996,1502,1527,1502,2008,1000,1505,1000,1000,1003,1005,1013,1014,0.1185,-0.0224,-0.1107,-0.0201,0.0133,0.9970,-0.1116,0.6680,0.1154,-0.6717,0.8627,0.2400,0.1321,0.8627,0.2400,0.1321,0.3000,0.0600,0.0002,0,-4.9083,-256.2000,-0.5040,-4.9083,-256.2000,-0.5040,31.4615,40.2965,0.0300,0.2700,0.0000,0.0000,0.0000,0.0000,0.0000,0.0000
38.5721,33.8470,12.2599,-0.0829,0.0000,0.1200,1.6200,0.6400,0.0000,-0.3918,-0.2780,0.0018,996,1502,1527,1502,2008,1000,1505,1000,1000,1003,1005,1013,1014,0.0851,0.0052,-0.0778,-0.0204,0.0140,0.9953,-0.1120,0.6681,0.1156,-0.6716,0.8627,0.2400,0.1321,0.8627,0.2400,0.1321,0.3000,0.0600,0.0002,0,-4.9083,-256.2000,-0.5040,-4.9083,-256.2000,-0.5040,31.4298,40.2700,0.0200,0.2700,0.0000,0.0000,0.0000,0.0000,0.0000,0.0000
38.5375,33.8268,12.2400,0.0000,0.0821,0.1200,1.6200,0.6400,0.0000,-0.3915,-0.2779,0.0015,996,1502,1527,1502,2008,1000,1505,1000,1000,1003,1005,1013,1014,0.0245,0.0305,0.0046,-0.0193,0.0113,1.0030,-0.1121,0.6678,0.1151,-0.6709,0.8627,0.2400,0.1321,0.8627,0.2400,0.1321,0.3000,0.0600,0.0002,0,-4.9083,-256.2000,-0.5040,-4.9083,-256.2000,-0.5040,31.3985,40.2439,0.0200,0.2700,0.0000,0.0000,0.0000,0.0000,0.0000,0.0000
38.5034,33.8069,12.2209,-0.0829,-0.1642,0.1200,1.6200,0.6400,0.0000,-0.3912,-0.2778,0.0016,996,1502,1527,1502,2008,1000,1505,1000,1000,1003,1005,1013,1014,0.0811,0.0753,-0.0172,-0.0178,0.0151,0.9979,-0.1119,0.6675,0.1150,-0.6706,0.8627,0.2400,0.1321,0.8627,0.2400,0.1321,0.3000,0.0600,0.0002,0,-4.9083,-256.2000,-0.5040,-4.9083,-256.2000,-0.5040,31.3673,40.2176,0.0200,0.2700,0.0000,0.0000,0.0000,0.0000,0.0000,0.0000
38.4688,33.7868,12.2011,0.0000,0.0000,0.1200,1.6200,0.6400,0.0000,-0.3910,-0.2775,0.0018,996,1502,1527,1502,2008,1000,1505,1000,1000,1003,1005,1013,1014,0.0881,-0.0298,-0.0859,-0.0184,0.0116,0.9991,-0.1117,0.6666,0.1153,-0.6702,0.8627,0.2400,0.1321,0.8627,0.2400,0.1321,0.3000,0.0600,0.0002,0,-4.9083,-256.2000,-0.5040,-4.9083,-256.2000,-0.5040,31.3358,40.1907,0.0200,0.2700,0.0000,0.0000,0.0000,0.0000,0.0000,0.0000
38.4342,33.7670,12.1809,-0.2486,-0.1642,0.1200,1.6200,0.6400,0.0000,-0.3906,-0.2774,0.0017,996,1502,1527,1502,2008,1000,1505,1000,1000,1003,1005,1013,1014,0.0775,0.0512,-0.0674,-0.0188,0.0152,0.9949,-0.1115,0.6663,0.1150,-0.6698,0.8627,0.2400,0.1321,0.8627,0.2400,0.1321,0.3000,0.0600,0.0002,0,-4.9083,-256.2000,-0.5040,-4.9083,-256.2000,-0.5040,31.3042,40.1638,0.0200,0.2700,0.0000,0.0000,0.0000,0.0000,0.0000,0.0000
38.4001,33.7467,12.1610,-0.0829,0.0000,0.1800,1.6200,0.6400,0.0000,-0.3899,-0.2771,0.0017,996,1502,1527,1502,2008,1000,1505,1000,1000,1004,1005,1013,1014,0.1022,-0.0185,-0.0427,-0.0185,0.0185,0.9937,-0.1110,0.6653,0.1144,-0.6687,0.8627,0.2400,0.1321,0.8627,0.2400,0.1321,0.3000,0.0600,0.0002,0,-4.9280,-256.2000,-0.5040,-4.9280,-256.2000,-0.5040,31.2733,40.1371,0.0300,0.2700,0.0000,0.0000,0.0000,0.0000,0.0000,0.0000
38.3662,33.7263,12.1411,-0.0829,-0.0821,0.1200,1.6200,0.6400,0.0000,-0.3900,-0.2770,0.0015,996,1502,1527,1502,2008,1000,1505,1000,1000,1003,1005,1013,1014,0.0718,-0.0192,0.0014,-0.0176,0.0142,0.9994,-0.1116,0.6655,0.1146,-0.6685,0.8627,0.2400,0.1321,0.8627,0.2400,0.1321,0.3000,0.0600,0.0002,0,-4.9083,-256.2000,-0.5040,-4.9083,-256.2000,-0.5040,31.2431,40.1102,0.0200,0.2700,0.0000,0.0000,0.0000,0.0000,0.0000,0.0000
38.3320,33.7059,12.1214,0.0000,0.0000,0.1200,1.6200,0.6400,0.0000,-0.3897,-0.2768,0.0018,996,1502,1527,1502,2008,1000,1505,1000,1000,1003,1005,1013,1014,0.0669,0.0323,-0.0715,-0.0155,0.0168,0.9955,-0.1111,0.6648,0.1147,-0.6684,0.8627,0.2400,0.1321,0.8627,0.2400,0.1321,0.3000,0.0600,0.0002,0,-4.9083,-256.2000,-0.5040,-4.9083,-256.2000,-0.5040,31.2122,40.0840,0.0200,0.2700,0.0000,0.0000,0.0000,0.0000,0.0000,0.0000
38.2973,33.6854,12.1010,-0.0829,0.0000,0.1200,1.6200,0.6400,0.0000,-0.3894,-0.2765,0.0017,996,1502,1527,1502,2008,1000,1505,1000,1000,1003,1005,1013,1014,0.0685,-0.0942,-0.0426,-0.0187,0.0165,0.9999,-0.1112,0.6642,0.1146,-0.6677,0.8627,0.2400,0.1321,0.8627,0.2400,0.1321,0.3000,0.0600,0.0002,0,-4.9083,-256.2000,-0.5040,-4.9083,-256.2000,-0.5040,31.1808,40.0577,0.0200,0.2700,0.0000,0.0000,0.0000,0.0000,0.0000,0.0000
38.2622,33.6654,12.0808,0.0000,0.0000,0.1200,1.6200,0.6400,0.0000,-0.3891,-0.2765,0.0017,996,1502,1527,1502,2008,1000,1505,1000,1000,1003,1005,1013,1014,0.0453,0.0236,-0.0432,-0.0203,0.0133,0.9964,-0.1109,0.6639,0.1143,-0.6673,0.8627,0.2400,0.1321,0.8627,0.2400,0.1321,0.3000,0.0600,0.0002,0,-4.9083,-256.2000,-0.5040,-4.9083,-256.2000,-0.5040,31.1489,40.0315,0.0200,0.2700,0.0000,0.0000,0.0000,0.0000,0.0000,0.0000
38.2277,33.6455,12.0608,-0.0829,0.0000,0.1200,1.6200,0.6400,0.0000,-0.3888,-0.2762,0.0017,996,1502,1527,1502,2008,1000,1505,1000,1000,1003,1005,1013,1014,0.0612,-0.0265,-0.0464,-0.0174,0.0155,0.9997,-0.1109,0.6634,0.1143,-0.6668,0.8627,0.2400,0.1321,0.8627,0.2400,0.1321,0.3000,0.0600,0.0002,0,-4.9083,-256.2000,-0.5040,-4.9083,-256.2000,-0.5040,31.1168,40.0049,0.0200,0.2700,0.0000,0.0000,0.0000,0.0000,0.0000,0.0000
38.1930,33.6254,12.0405,-0.0829,0.0821,0.1800,1.6200,0.6400,0.0000,-0.3880,-0.2761,0.0017,996,1502,1527,1502,2008,1000,1505,1000,1000,1003,1005,1013,1014,0.0534,-0.0298,-0.0569,-0.0215,0.0146,0.9979,-0.1102,0.6623,0.1137,-0.6658,0.8627,0.2400,0.1321,0.8627,0.2400,0.1321,0.3000,0.0600,0.0002,0,-4.9083,-256.2000,-0.5040,-4.9083,-256.2000,-0.5040,31.0845,39.9787,0.0300,0.2700,0.0000,0.0000,0.0000,0.0000,0.0000,0.0000
38.1586,33.6056,12.0209,-0.0829,0.0000,0.1200,1.6200,0.6400,0.0000,-0.3883,-0.2761,0.0017,996,1502,1527,1502,2008,1000,1505,1000,1000,1003,1005,1013,1014,0.0704,0.1057,-0.0419,-0.0193,0.0152,0.9967,-0.1104,0.6626,0.1139,-0.6661,0.8627,0.2400,0.1321,0.8627,0.2400,0.1321,0.3000,0.0600,0.0002,0,-4.9083,-256.2000,-0.5040,-4.9083,-256.2000,-0.5040,31.0530,39.9522,0.0200,0.2700,0.0000,0.0000,0.0000,0.0000,0.0000,0.0000
38.1244,33.5863,12.0015,0.0000,-0.0821,0.1200,1.6200,0.6400,0.0000,-0.3879,-0.2758,0.0017,996,1502,1527,1502,2008,1000,1505,1000,1000,1003,1005,1013,1014,0.0369,0.0379,-0.0473,-0.0205,0.0149,0.9997,-0.1104,0.6620,0.1138,-0.6655,0.8627,0.2400,0.1321,0.8627,0.2400,0.1321,0.3000,0.0600,0.0002,0,-4.9083,-256.2000,-0.5040,-4.9083,-256.2000,-0.5040,31.0224,39.9259,0.0200,0.2700,0.0000,0.0000,0.0000,0.0000,0.0000,0.0000
38.0900,33.5662,11.9818,0.0000,0.0821,0.1200,1.6200,0.6400,0.0000,-0.3877,-0.2756,0.0018,996,1502,1527,1502,2008,1000,1505,1000,1000,1003,1005,1013,1014,0.1299,-0.0165,-0.0520,-0.0190,0.0162,1.0023,-0.1104,0.6615,0.1139,-0.6651,0.8627,0.2400,0.1321,0.8627,0.2400,0.1321,0.3000,0.0600,0.0002,0,-4.9083,-256.2000,-0.5040,-4.9083,-256.2000,-0.5040,30.9915,39.8993,0.0200,0.2700,0.0000,0.0000,0.0000,0.0000,0.0000,0.0000
38.0557,33.5468,11.9619,0.0000,0.0000,0.1200,1.6200,0.6400,0.0000,-0.3874,-0.2755,0.0019,996,1502,1527,1502,2008,1000,1505,1000,1000,1003,1005,1013,1014,0.1061,0.0670,-0.0750,-0.0184,0.0168,0.9970,-0.1100,0.6611,0.1137,-0.6648,0.8627,0.2400,0.1321,0.8627,0.2400,0.1321,0.3000,0.0600,0.0002,0,-4.9083,-256.2000,-0.5040,-4.9083,-256.2000,-0.5040,30.9598,39.8732,0.0200,0.2700,0.0000,0.0000,0.0000,0.0000,0.0000,0.0000
38.0216,33.5270,11.9421,-0.0829,0.0000,0.1200,1.6200,0.6400,0.0000,-0.3871,-0.2753,0.0017,996,1502,1527,1502,2008,1000,1505,1000,1000,1003,1005,1013,1014,0.0798,0.0650,-0.0444,-0.0219,0.0162,0.9973,-0.1100,0.6607,0.1135,-0.6641,0.8627,0.2400,0.1321,0.8627,0.2400,0.1321,0.3000,0.0600,0.0002,0,-4.9083,-256.2000,-0.5040,-4.9083,-256.2000,-0.5040,30.9289,39.8468,0.0200,0.2700,0.0000,0.0000,0.0000,0.0000,0.0000,0.0000
37.9871,33.5069,11.9221,0.0000,0.0821,0.1800,1.6200,0.6400,0.0000,-0.3863,-0.2750,0.0018,996,1502,1527,1502,2008,1000,1505,1000,1000,1003,1005,1013,1014,0.0984,-0.0313,-0.0760,-0.0165,0.0147,0.9957,-0.1094,0.6595,0.1131,-0.6632,0.8627,0.2400,0.1321,0.8627,0.2400,0.1321,0.3000,0.0600,0.0002,0,-4.9083,-256.2000,-0.5040,-4.9083,-256.2000,-0.5040,30.8981,39.8195,0.0300,0.2700,0.0000,0.0000,0.0000,0.0000,0.0000,0.0000
37.9524,33.4865,11.9014,0.0000,0.0000,0.1200,1.6200,0.6400,0.0000,-0.3865,-0.2749,0.0017,996,1502,1527,1502,2008,1000,1505,1000,1000,1004,1005,1014,1014,0.0939,-0.0035,-0.0326,-0.0221,0.0155,0.9990,-0.1099,0.6597,0.1133,-0.6631,0.8627,0.2400,0.1321,0.8627,0.2400,0.1321,0.3000,0.0600,0.0002,0,-4.9280,-256.2000,-0.5060,-4.9280,-256.2000,-0.5060,30.8671,39.7923,0.0200,0.2700,0.0000,0.0000,0.0000,0.0000,0.0000,0.0000
37.9185,33.4656,11.8819,0.0000,0.0000,0.1200,1.6200,0.6400,0.0000,-0.3862,-0.2747,0.0014,996,1502,1527,1502,2008,1000,1505,1000,1000,1004,1005,1014,1014,0.1068,-0.0200,0.0606,-0.0180,0.0135,0.9998,-0.1101,0.6595,0.1129,-0.6623,0.8627,0.2400,0.1321,0.8627,0.2400,0.1321,0.3000,0.0600,0.0002,0,-4.9280,-256.2000,-0.5060,-4.9280,-256.2000,-0.5060,30.8360,39.7658,0.0200,0.2700,0.0000,0.0000,0.0000,0.0000,0.0000,0.0000
37.8846,33.4447,11.8625,0.0000,0.0821,0.1200,1.6200,0.6400,0.0000,-0.3860,-0.2746,0.0018,996,1502,1527,1502,2008,1000,1505,1000,1000,1003,1005,1013,1014,0.1285,0.0204,-0.0640,-0.0208,0.0156,1.0023,-0.1096,0.6587,0.1132,-0.6624,0.8627,0.2400,0.1321,0.8627,0.2400,0.1321,0.3000,0.0600,0.0002,0,-4.9083,-256.2000,-0.5040,-4.9083,-256.2000,-0.5040,30.8046,39.7392,0.0200,0.2700,0.0000,0.0000,0.0000,0.0000,0.0000,0.0000
37.8501,33.4247,11.8425,-0.0829,0.0000,0.1200,1.6200,0.6400,0.0000,-0.3856,-0.2744,0.0018,996,1502,1527,1502,2008,1000,1505,1000,1000,1003,1005,1013,1014,0.0964,0.0245,-0.0617,-0.0192,0.0140,1.0025,-0.1094,0.6582,0.1130,-0.6619,0.8627,0.2400,0.1321,0.8627,0.2400,0.1321,0.3000,0.0600,0.0002,0,-4.9083,-256.2000,-0.5040,-4.9083,-256.2000,-0.5040,30.7732,39.7128,0.0200,0.2700,0.0000,0.0000,0.0000,0.0000,0.0000,0.0000
37.8158,33.4042,11.8228,0.0000,0.0000,0.1200,1.6200,0.6400,0.0000,-0.3854,-0.2742,0.0017,996,1502,1527,1502,2008,1000,1505,1000,1000,1003,1005,1013,1014,0.1135,-0.0119,-0.0224,-0.0206,0.0140,1.0011,-0.1095,0.6578,0.1129,-0.6612,0.8627,0.2400,0.1321,0.8627,0.2400,0.1321,0.3000,0.0600,0.0002,0,-4.9083,-256.2000,-0.5040,-4.9083,-256.2000,-0.5040,30.7416,39.6863,0.0200,0.2700,0.0000,0.0000,0.0000,0.0000,0.0000,0.0000
37.7814,33.3836,11.8031,-0.1657,-0.0821,0.1800,1.6200,0.6400,0.0000,-0.3845,-0.2740,0.0016,996,1502,1527,1502,2008,1000,1505,1000,1000,1003,1005,1013,1014,0.0664,-0.0449,0.0222,-0.0187,0.0144,1.0009,-0.1089,0.6569,0.1121,-0.6600,0.8627,0.2400,0.1321,0.8627,0.2400,0.1321,0.3000,0.0600,0.0002,0,-4.9083,-256.2000,-0.5040,-4.9083,-256.2000,-0.5040,30.7106,39.6600,0.0300,0.2700,0.0000,0.0000,0.0000,0.0000,0.0000,0.0000
37.7472,33.3627,11.7835,0.0000,0.0000,0.1200,1.6200,0.6400,0.0000,-0.3846,-0.2739,0.0017,996,1502,1527,1502,2008,1000,1505,1000,1000,1003,1005,1013,1014,0.0274,0.0200,-0.0208,-0.0221,0.0142,0.9977,-0.1091,0.6568,0.1125,-0.6602,0.8627,0.2400,0.1321,0.8627,0.2400,0.1321,0.3000,0.0600,0.0002,0,-4.9083,-256.2000,-0.5040,-4.9083,-256.2000,-0.5040,30.6798,39.6330,0.0200,0.2700,0.0000,0.0000,0.0000,0.0000,0.0000,0.0000
37.7126,33.3425,11.7637,-0.1657,-0.0821,0.1200,1.6200,0.6400,0.0000,-0.3844,-0.2736,0.0019,996,1502,1527,1502,2008,1000,1505,1000,1000,1003,1005,1013,1014,0.0759,-0.0251,-0.0902,-0.0172,0.0131,0.9966,-0.1089,0.6562,0.1127,-0.6599,0.8627,0.2400,0.1321,0.8627,0.2400,0.1321,0.3000,0.0600,0.0002,0,-4.9083,-256.2000,-0.5040,-4.9083,-256.2000,-0.5040,30.6496,39.6062,0.0200,0.2700,0.0000,0.0000,0.0000,0.0000,0.0000,0.0000
37.6781,33.3223,11.7437,0.0000,0.0000,0.1200,1.6200,0.6400,0.0000,-0.3842,-0.2735,0.0020,996,1502,1527,1502,2008,1000,1505,1000,1000,1003,1005,1013,1014,0.1352,0.0016,-0.0987,-0.0228,0.0146,0.9952,-0.1087,0.6557,0.1126,-0.6596,0.8627,0.2400,0.1321,0.8627,0.2400,0.1321,0.3000,0.0600,0.0002,0,-4.9083,-256.2000,-0.5040,-4.9083,-256.2000,-0.5040,30.6191,39.5798,0.0200,0.2700,0.0000,0.0000,0.0000,0.0000,0.0000,0.0000
37.6435,33.3023,11.7232,-0.0829,0.0821,0.1200,1.6200,0.6400,0.0000,-0.3838,-0.2733,0.0020,996,1502,1527,1502,2008,1000,1505,1000,1000,1003,1005,1013,1014,0.0819,-0.0104,-0.1195,-0.0217,0.0161,0.9982,-0.1085,0.6551,0.1125,-0.6591,0.8627,0.2400,0.1321,0.8627,0.2400,0.1321,0.3000,0.0600,0.0002,0,-4.9083,-256.2000,-0.5040,-4.9083,-256.2000,-0.5040,30.5883,39.5533,0.0200,0.2700,0.0000,0.0000,0.0000,0.0000,0.0000,0.0000
37.6087,33.2818,11.7033,0.0000,0.0000,0.1200,1.6200,0.6400,0.0000,-0.3835,-0.2732,0.0018,996,1502,1527,1502,2008,1000,1505,1000,1000,1003,1005,1013,1014,0.0752,0.0180,-0.0475,-0.0180,0.0150,1.0000,-0.1086,0.6549,0.1121,-0.6585,0.8627,0.2400,0.1321,0.8627,0.2400,0.1321,0.3000,0.0600,0.0002,0,-4.9083,-256.2000,-0.5040,-4.9083,-256.2000,-0.5040,30.5579,39.5262,0.0200,0.2700,0.0000,0.0000,0.0000,0.0000,0.0000,0.0000
37.5745,33.2616,11.6839,0.0000,0.0000,0.1800,1.6200,0.6400,0.0000,-0.3827,-0.2730,0.0020,996,1502,1527,1502,2008,1000,1505,1000,1000,1003,1005,1013,1014,0.0867,0.0166,-0.0974,-0.0207,0.0135,1.0021,-0.1077,0.6537,0.1117,-0.6577,0.8627,0.2400,0.1321,0.8627,0.2400,0.1321,0.3000,0.0600,0.0002,0,-4.9083,-256.2000,-0.5040,-4.9083,-256.2000,-0.5040,30.5269,39.4996,0.0300,0.2700,0.0000,0.0000,0.0000,0.0000,0.0000,0.0000
37.5401,33.2414,11.6641,0.0000,0.0000,0.1200,1.6200,0.6400,0.0000,-0.3829,-0.2729,0.0018,996,1502,1527,1502,2008,1000,1505,1000,1000,1003,1005,1013,1014,0.0871,0.0727,-0.0445,-0.0186,0.0187,0.9987,-0.1083,0.6540,0.1118,-0.6576,0.8627,0.2400,0.1321,0.8627,0.2400,0.1321,0.3000,0.0600,0.0002,0,-4.9083,-256.2000,-0.5040,-4.9083,-256.2000,-0.5040,30.4960,39.4723,0.0200,0.2700,0.0000,0.0000,0.0000,0.0000,0.0000,0.0000
37.5059,33.2213,11.6445,0.0000,0.0821,0.1200,1.6200,0.6400,0.0000,-0.3826,-0.2726,0.0018,996,1502,1527,1502,2008,1000,1505,1000,1000,1003,1005,1013,1014,0.0879,-0.0194,-0.0391,-0.0209,0.0149,0.9974,-0.1083,0.6535,0.1118,-0.6570,0.8627,0.2400,0.1321,0.8627,0.2400,0.1321,0.3000,0.0600,0.0002,0,-4.9083,-256.2000,-0.5040,-4.9083,-256.2000,-0.5040,30.4651,39.4453,0.0200,0.2700,0.0000,0.0000,0.0000,0.0000,0.0000,0.0000
37.4718,33.2004,11.6248,0.0000,0.0000,0.1200,1.6200,0.6400,0.0000,-0.3824,-0.2724,0.0018,996,1502,1527,1502,2008,1000,1505,1000,1000,1003,1005,1013,1014,0.1388,-0.0035,-0.0473,-0.0181,0.0148,1.0008,-0.1082,0.6531,0.1118,-0.6567,0.8627,0.2400,0.1321,0.8627,0.2400,0.1321,0.3000,0.0600,0.0002,0,-4.9083,-256.2000,-0.5040,-4.9083,-256.2000,-0.5040,30.4344,39.4189,0.0200,0.2700,0.0000,0.0000,0.0000,0.0000,0.0000,0.0000
37.4382,33.1793,11.6053,0.0000,0.0000,0.1200,1.6200,0.6400,0.0000,-0.3821,-0.2723,0.0016,996,1502,1527,1502,2008,1000,1505,1000,1000,1003,1005,1013,1014,0.1334,-0.0080,0.0089,-0.0181,0.0163,0.9998,-0.1083,0.6528,0.1115,-0.6560,0.8627,0.2400,0.1321,0.8627,0.2400,0.1321,0.3000,0.0600,0.0002,0,-4.9083,-256.2000,-0.5040,-4.9083,-256.2000,-0.5040,30.4039,39.3920,0.0200,0.2700,0.0000,0.0000,0.0000,0.0000,0.0000,0.0000
37.4049,33.1578,11.5863,0.0000,0.0000,0.1200,1.6200,0.6400,0.0000,-0.3818,-0.2721,0.0015,996,1502,1527,1502,2008,1000,1505,1000,1000,1003,1005,1013,1014,0.1195,0.0261,0.0795,-0.0158,0.0139,1.0002,-0.1082,0.6525,0.1112,-0.6554,0.8627,0.2400,0.1321,0.8627,0.2400,0.1321,0.3000,0.0600,0.0002,0,-4.9083,-256.2000,-0.5040,-4.9083,-256.2000,-0.5040,30.3733,39.3657,0.0200,0.2700,0.0000,0.0000,0.0000,0.0000,0.0000,0.0000
37.3707,33.1372,11.5668,-0.0829,0.0000,0.1800,1.6200,0.6400,0.0000,-0.3809,-0.2719,0.0018,996,1502,1527,1502,2008,1000,1505,1000,1000,1003,1005,1013,1014,0.0687,-0.0189,-0.0242,-0.0187,0.0126,0.9951,-0.1073,0.6510,0.1109,-0.6546,0.8627,0.2400,0.1321,0.8627,0.2400,0.1321,0.3000,0.0600,0.0002,0,-4.9083,-256.2000,-0.5040,-4.9083,-256.2000,-0.5040,30.3421,39.3390,0.0300,0.2700,0.0000,0.0000,0.0000,0.0000,0.0000,0.0000
37.3366,33.1166,11.5479,-0.0829,0.0821,0.1200,1.6200,0.6400,0.0000,-0.3811,-0.2718,0.0018,996,1502,1527,1502,2008,1000,1505,1000,1000,1003,1005,1013,1014,0.0269,0.0225,-0.0148,-0.0219,0.0171,0.9937,-0.1076,0.6511,0.1111,-0.6546,0.8627,0.2400,0.1321,0.8627,0.2400,0.1321,0.3000,0.0600,0.0002,0,-4.9083,-256.2000,-0.5040,-4.9083,-256.2000,-0.5040,30.3116,39.3123,0.0200,0.2700,0.0000,0.0000,0.0000,0.0000,0.0000,0.0000
37.3021,33.0956,11.5280,-0.0829,0.0821,0.1200,1.6200,0.6400,0.0000,-0.3808,-0.2715,0.0018,996,1502,1527,1502,2008,1000,1505,1000,1000,1003,1005,1013,1014,0.0558,-0.0498,-0.0483,-0.0192,0.0160,0.9986,-0.1076,0.6505,0.1112,-0.6541,0.8627,0.2400,0.1321,0.8627,0.2400,0.1321,0.3000,0.0600,0.0002,0,-4.9083,-256.2000,-0.5040,-4.9083,-256.2000,-0.5040,30.2815,39.2854,0.0200,0.2700,0.0000,0.0000,0.0000,0.0000,0.0000,0.0000
37.2680,33.0746,11.5088,0.0000,0.0000,0.1200,1.6200,0.6400,0.0000,-0.3806,-0.2713,0.0017,996,1502,1527,1502,2008,1000,1505,1000,1000,1003,1005,1013,1014,0.1247,-0.0151,-0.0002,-0.0178,0.0163,0.9988,-0.1076,0.6503,0.1110,-0.6537,0.8627,0.2400,0.1321,0.8627,0.2400,0.1321,0.3000,0.0600,0.0002,0,-4.9083,-256.2000,-0.5040,-4.9083,-256.2000,-0.5040,30.2515,39.2585,0.0200,0.2700,0.0000,0.0000,0.0000,0.0000,0.0000,0.0000
37.2338,33.0533,11.4890,0.0000,0.0000,0.1200,1.6200,0.6400,0.0000,-0.3803,-0.2710,0.0018,996,1502,1527,1502,2008,1000,1505,1000,1000,1003,1005,1013,1014,0.0898,-0.0986,-0.0337,-0.0218,0.0166,1.0017,-0.1074,0.6495,0.1111,-0.6532,0.8627,0.2400,0.1321,0.8627,0.2400,0.1321,0.3000,0.0600,0.0002,0,-4.9083,-256.2000,-0.5040,-4.9083,-256.2000,-0.5040,30.2204,39.2314,0.0200,0.2700,0.0000,0.0000,0.0000,0.0000,0.0000,0.0000
37.1995,33.0321,11.4691,-0.0829,0.0821,0.1200,1.6200,0.6400,0.0000,-0.3801,-0.2709,0.0020,996,1502,1527,1502,2008,1000,1505,1000,1000,1003,1005,1013,1014,0.1318,-0.0657,-0.0810,-0.0189,0.0149,0.9971,-0.1072,0.6490,0.1111,-0.6529,0.8627,0.2400,0.1321,0.8627,0.2400,0.1321,0.3000,0.0600,0.0002,0,-4.9083,-256.2000,-0.5040,-4.9083,-256.2000,-0.5040,30.1894,39.2042,0.0200,0.2700,0.0000,0.0000,0.0000,0.0000,0.0000,0.0000
37.1652,33.0110,11.4490,0.0000,0.0000,0.1800,1.6200,0.6400,0.0000,-0.3793,-0.2708,0.0019,996,1502,1527,1502,2008,1000,1505,1000,1000,1003,1005,1013,1014,0.1407,-0.0398,-0.0406,-0.0183,0.0127,0.9983,-0.1066,0.6482,0.1104,-0.6519,0.8627,0.2400,0.1321,0.8627,0.2400,0.1321,0.3000,0.0600,0.0002,0,-4.9083,-256.2000,-0.5040,-4.9083,-256.2000,-0.5040,30.1593,39.1772,0.0300,0.2700,0.0000,0.0000,0.0000,0.0000,0.0000,0.0000
37.1312,32.9907,11.4296,-0.0829,-0.0821,0.1200,1.6200,0.6400,0.0000,-0.3794,-0.2706,0.0019,996,1502,1527,1502,2008,1000,1505,1000,1000,1004,1005,1014,1014,0.0828,-0.0007,-0.0617,-0.0202,0.0164,0.9990,-0.1069,0.6481,0.1107,-0.6520,0.8627,0.2400,0.1321,0.8627,0.2400,0.1321,0.3000,0.0600,0.0002,0,-4.9280,-256.2000,-0.5060,-4.9280,-256.2000,-0.5060,30.1295,39.1505,0.0200,0.2700,0.0000,0.0000,0.0000,0.0000,0.0000,0.0000
37.0970,32.9700,11.4102,0.0000,0.0821,0.1200,1.6200,0.6400,0.0000,-0.3791,-0.2704,0.0019,996,1502,1527,1502,2008,1000,1505,1000,1000,1004,1005,1014,1014,0.0986,-0.0137,-0.0464,-0.0215,0.0145,0.9965,-0.1068,0.6477,0.1105,-0.6514,0.8627,0.2400,0.1321,0.8627,0.2400,0.1321,0.3000,0.0600,0.0002,0,-4.9280,-256.2000,-0.5060,-4.9280,-256.2000,-0.5060,30.0990,39.1236,0.0200,0.2700,0.0000,0.0000,0.0000,0.0000,0.0000,0.0000
37.0625,32.9495,11.3906,-0.1657,-0.1642,0.1200,1.6200,0.6400,0.0000,-0.3788,-0.2703,0.0018,996,1502,1527,1502,2008,1000,1505,1000,1000,1003,1005,1013,1014,0.0805,-0.0220,-0.0367,-0.0232,0.0129,0.9982,-0.1067,0.6472,0.1104,-0.6509,0.8627,0.2400,0.1321,0.8627,0.2400,0.1321,0.3000,0.0600,0.0002,0,-4.9083,-256.2000,-0.5040,-4.9083,-256.2000,-0.5040,30.0681,39.0963,0.0200,0.2700,0.0000,0.0000,0.0000,0.0000,0.0000,0.0000
37.0281,32.9283,11.3705,-0.0829,0.0821,0.1200,1.6200,0.6400,0.0000,-0.3785,-0.2700,0.0020,996,1502,1527,1502,2008,1000,1505,1000,1000,1003,1005,1013,1014,0.0662,-0.0357,-0.0775,-0.0201,0.0162,1.0012,-0.1065,0.6466,0.1104,-0.6505,0.8627,0.2400,0.1321,0.8627,0.2400,0.1321,0.3000,0.0600,0.0002,0,-4.9083,-256.2000,-0.5040,-4.9083,-256.2000,-0.5040,30.0373,39.0695,0.0200,0.2700,0.0000,0.0000,0.0000,0.0000,0.0000,0.0000
36.9937,32.9076,11.3510,-0.1657,-0.0821,0.1200,1.6200,0.6400,0.0000,-0.3782,-0.2700,0.0018,996,1502,1527,1502,2008,1000,1505,1000,1000,1003,1005,1013,1014,0.0886,0.0390,-0.0182,-0.0168,0.0154,0.9998,-0.1065,0.6464,0.1100,-0.6500,0.8627,0.2400,0.1321,0.8627,0.2400,0.1321,0.3000,0.0600,0.0002,0,-4.9083,-256.2000,-0.5040,-4.9083,-256.2000,-0.5040,30.0063,39.0422,0.0200,0.2700,0.0000,0.0000,0.0000,0.0000,0.0000,0.0000
36.9593,32.8867,11.3311,-0.0829,0.0000,0.1800,1.6200,0.6400,0.0000,-0.3774,-0.2697,0.0018,996,1502,1527,1502,2008,1000,1505,1000,1000,1004,1005,1013,1014,0.0912,-0.0661,-0.0372,-0.0206,0.0162,1.0004,-0.1059,0.6452,0.1096,-0.6489,0.8627,0.2400,0.1321,0.8627,0.2400,0.1321,0.3000,0.0600,0.0002,0,-4.9280,-256.2000,-0.5040,-4.9280,-256.2000,-0.5040,29.9755,39.0148,0.0300,0.2700,0.0000,0.0000,0.0000,0.0000,0.0000,0.0000
36.9251,32.8661,11.3115,0.0000,0.0000,0.1200,1.6200,0.6400,0.0000,-0.3776,-0.2696,0.0021,996,1502,1527,1502,2008,1000,1505,1000,1000,1004,1005,1013,1014,0.0893,0.0213,-0.1023,-0.0192,0.0137,0.9981,-0.1060,0.6451,0.1101,-0.6493,0.8627,0.2400,0.1321,0.8627,0.2400,0.1321,0.3000,0.0600,0.0002,0,-4.9280,-256.2000,-0.5040,-4.9280,-256.2000,-0.5040,29.9445,38.9880,0.0200,0.2700,0.0000,0.0000,0.0000,0.0000,0.0000,0.0000
36.8908,32.8457,11.2922,0.0000,0.0000,0.1200,1.6200,0.6400,0.0000,-0.3773,-0.2694,0.0019,996,1502,1527,1502,2008,1000,1505,1000,1000,1004,1005,1014,1014,0.0957,0.0418,-0.0373,-0.0205,0.0145,1.0007,-0.1060,0.6449,0.1098,-0.6487,0.8627,0.2400,0.1321,0.8627,0.2400,0.1321,0.3000,0.0600,0.0002,0,-4.9280,-256.2000,-0.5060,-4.9280,-256.2000,-0.5060,29.9141,38.9613,0.0200,0.2700,0.0000,0.0000,0.0000,0.0000,0.0000,0.0000
36.8567,32.8249,11.2731,0.0000,0.0000,0.1200,1.6200,0.6400,0.0000,-0.3770,-0.2692,0.0018,996,1502,1527,1502,2008,1000,1505,1000,1000,1004,1005,1014,1014,0.0675,-0.0054,-0.0101,-0.0200,0.0138,1.0051,-0.1060,0.6444,0.1096,-0.6480,0.8627,0.2400,0.1321,0.8627,0.2400,0.1321,0.3000,0.0600,0.0002,0,-4.9280,-256.2000,-0.5060,-4.9280,-256.2000,-0.5060,29.8833,38.9343,0.0200,0.2700,0.0000,0.0000,0.0000,0.0000,0.0000,0.0000
36.8222,32.8036,11.2537,-0.0829,0.0000,0.1200,1.6200,0.6400,0.0000,-0.3767,-0.2690,0.0019,996,1502,1527,1502,2008,1000,1505,1000,1000,1003,1005,1013,1014,0.0625,-0.0517,-0.0244,-0.0209,0.0160,0.9953,-0.1059,0.6438,0.1096,-0.6475,0.8627,0.2400,0.1321,0.8627,0.2400,0.1321,0.3000,0.0600,0.0002,0,-4.9083,-256.2000,-0.5040,-4.9083,-256.2000,-0.5040,29.8523,38.9074,0.0200,0.2700,0.0000,0.0000,0.0000,0.0000,0.0000,0.0000
36.7878,32.7831,11.2341,-0.0829,0.0000,0.1200,1.6200,0.6400,0.0000,-0.3765,-0.2689,0.0021,996,1502,1527,1502,2008,1000,1505,1000,1000,1003,1005,1013,1014,0.1014,0.0330,-0.1025,-0.0206,0.0162,0.9985,-0.1055,0.6433,0.1097,-0.6474,0.8627,0.2400,0.1321,0.8627,0.2400,0.1321,0.3000,0.0600,0.0002,0,-4.9083,-256.2000,-0.5040,-4.9083,-256.2000,-0.5040,29.8212,38.8804,0.0200,0.2700,0.0000,0.0000,0.0000,0.0000,0.0000,0.0000
36.7533,32.7624,11.2147,-0.0829,0.0000,0.1800,1.6200,0.6400,0.0000,-0.3756,-0.2687,0.0018,996,1502,1527,1502,2008,1000,1505,1000,1000,1004,1005,1013,1014,0.0802,0.0034,-0.0150,-0.0181,0.0140,0.9965,-0.1051,0.6425,0.1088,-0.6461,0.8627,0.2400,0.1321,0.8627,0.2400,0.1321,0.3000,0.0600,0.0002,0,-4.9280,-256.2000,-0.5040,-4.9280,-256.2000,-0.5040,29.7899,38.8532,0.0300,0.2700,0.0000,0.0000,0.0000,0.0000,0.0000,0.0000
36.7188,32.7413,11.1950,0.0000,0.0000,0.1200,1.6200,0.6400,0.0000,-0.3758,-0.2684,0.0019,996,1502,1527,1502,2008,1000,1505,1000,1000,1004,1005,1013,1014,0.0487,-0.0342,-0.0503,-0.0175,0.0150,0.9967,-0.1055,0.6423,0.1093,-0.6461,0.8627,0.2400,0.1321,0.8627,0.2400,0.1321,0.3000,0.0600,0.0002,0,-4.9280,-256.2000,-0.5040,-4.9280,-256.2000,-0.5040,29.7600,38.8259,0.0200,0.2700,0.0000,0.0000,0.0000,0.0000,0.0000,0.0000
36.6842,32.7205,11.1761,0.0000,0.0000,0.1200,1.6200,0.6400,0.0000,-0.3756,-0.2684,0.0019,996,1502,1527,1502,2008,1000,1505,1000,1000,1004,1005,1013,1014,0.0918,0.0629,-0.0032,-0.0217,0.0138,0.9956,-0.1053,0.6421,0.1090,-0.6458,0.8627,0.2400,0.1321,0.8627,0.2400,0.1321,0.3000,0.0600,0.0002,0,-4.9280,-256.2000,-0.5040,-4.9280,-256.2000,-0.5040,29.7302,38.7992,0.0200,0.2700,0.0000,0.0000,0.0000,0.0000,0.0000,0.0000
36.6499,32.7001,11.1572,0.0000,0.0000,0.1200,1.6200,0.6400,0.0000,-0.3753,-0.2681,0.0017,996,1502,1527,1502,2008,1000,1505,1000,1000,1003,1005,1013,1014,0.0853,-0.0163,0.0298,-0.0208,0.0140,0.9998,-0.1055,0.6417,0.1088,-0.6450,0.8627,0.2400,0.1321,0.8627,0.2400,0.1321,0.3000,0.0600,0.0002,0,-4.9083,-256.2000,-0.5040,-4.9083,-256.2000,-0.5040,29.6995,38.7718,0.0200,0.2700,0.0000,0.0000,0.0000,0.0000,0.0000,0.0000
36.6159,32.6793,11.1385,0.0000,0.0000,0.1200,1.6200,0.6400,0.0000,-0.3749,-0.2680,0.0020,996,1502,1527,1502,2008,1000,1505,1000,1000,1003,1005,1013,1014,0.0334,0.0430,-0.0742,-0.0179,0.0136,0.9992,-0.1048,0.6409,0.1089,-0.6449,0.8627,0.2400,0.1321,0.8627,0.2400,0.1321,0.3000,0.0600,0.0002,0,-4.9083,-256.2000,-0.5040,-4.9083,-256.2000,-0.5040,29.6689,38.7447,0.0200,0.2700,0.0000,0.0000,0.0000,0.0000,0.0000,0.0000
36.5818,32.6581,11.1194,0.0000,0.0000,0.1200,1.6200,0.6400,0.0000,-0.3747,-0.2677,0.0018,996,1502,1527,1502,2008,1000,1505,1000,1000,1003,1005,1013,1014,0.0923,-0.0519,0.0030,-0.0206,0.0157,0.9991,-0.1052,0.6405,0.1088,-0.6442,0.8627,0.2400,0.1321,0.8627,0.2400,0.1321,0.3000,0.0600,0.0002,0,-4.9083,-256.2000,-0.5040,-4.9083,-256.2000,-0.5040,29.6387,38.7178,0.0200,0.2700,0.0000,0.0000,0.0000,0.0000,0.0000,0.0000
36.5477,32.6372,11.1000,-0.0829,0.0000,0.1800,1.6200,0.6400,0.0000,-0.3739,-0.2676,0.0018,996,1502,1527,1502,2008,1000,1505,1000,1000,1004,1005,1013,1014,0.1019,0.0189,-0.0148,-0.0188,0.0110,1.0010,-0.1045,0.6397,0.1081,-0.6433,0.8627,0.2400,0.1321,0.8627,0.2400,0.1321,0.3000,0.0600,0.0002,0,-4.9280,-256.2000,-0.5040,-4.9280,-256.2000,-0.5040,29.6080,38.6902,0.0300,0.2700,0.0000,0.0000,0.0000,0.0000,0.0000,0.0000
36.5137,32.6163,11.0812,0.0000,0.0000,0.1200,1.6200,0.6400,0.0000,-0.3741,-0.2674,0.0020,996,1502,1527,1502,2008,1000,1505,1000,1000,1004,1005,1013,1014,0.0824,-0.0246,-0.0581,-0.0151,0.0150,0.9987,-0.1047,0.6395,0.1087,-0.6434,0.8627,0.2400,0.1321,0.8627,0.2400,0.1321,0.3000,0.0600,0.0002,0,-4.9280,-256.2000,-0.5040,-4.9280,-256.2000,-0.5040,29.5771,38.6629,0.0200,0.2700,0.0000,0.0000,0.0000,0.0000,0.0000,0.0000
36.4792,32.5955,11.0617,-0.0829,0.0000,0.1200,1.6200,0.6400,0.0000,-0.3738,-0.2673,0.0021,996,1502,1527,1502,2008,1000,1505,1000,1000,1003,1005,1013,1014,0.0858,0.0421,-0.0935,-0.0202,0.0137,0.9980,-0.1044,0.6390,0.1086,-0.6431,0.8627,0.2400,0.1321,0.8627,0.2400,0.1321,0.3000,0.0600,0.0002,0,-4.9083,-256.2000,-0.5040,-4.9083,-256.2000,-0.5040,29.5467,38.6359,0.0200,0.2700,0.0000,0.0000,0.0000,0.0000,0.0000,0.0000
36.4445,32.5745,11.0424,-0.1657,0.0000,0.1200,1.6200,0.6400,0.0000,-0.3734,-0.2670,0.0018,996,1502,1527,1502,2008,1000,1505,1000,1000,1003,1005,1013,1014,0.0410,-0.0343,-0.0012,-0.0192,0.0125,0.9972,-0.1047,0.6387,0.1082,-0.6422,0.8627,0.2400,0.1321,0.8627,0.2400,0.1321,0.3000,0.0600,0.0002,0,-4.9083,-256.2000,-0.5040,-4.9083,-256.2000,-0.5040,29.5159,38.6082,0.0200,0.2700,0.0000,0.0000,0.0000,0.0000,0.0000,0.0000
36.4101,32.5530,11.0234,-0.1657,-0.0821,0.1200,1.6200,0.6400,0.0000,-0.3731,-0.2668,0.0018,996,1502,1527,1502,2008,1000,1505,1000,1000,1003,1005,1013,1014,0.0290,-0.0187,0.0049,-0.0189,0.0161,1.0030,-0.1045,0.6382,0.1081,-0.6417,0.8627,0.2400,0.1321,0.8627,0.2400,0.1321,0.3000,0.0600,0.0002,0,-4.9083,-256.2000,-0.5040,-4.9083,-256.2000,-0.5040,29.4849,38.5811,0.0200,0.2700,0.0000,0.0000,0.0000,0.0000,0.0000,0.0000
36.3757,32.5320,11.0048,0.0000,0.0000,0.1200,1.6200,0.6400,0.0000,-0.3729,-0.2668,0.0019,996,1502,1527,1502,2008,1000,1505,1000,1000,1003,1005,1013,1014,0.0608,0.0594,-0.0454,-0.0201,0.0134,1.0019,-0.1042,0.6377,0.1081,-0.6416,0.8627,0.2400,0.1321,0.8627,0.2400,0.1321,0.3000,0.0600,0.0002,0,-4.9083,-256.2000,-0.5040,-4.9083,-256.2000,-0.5040,29.4550,38.5542,0.0200,0.2700,0.0000,0.0000,0.0000,0.0000,0.0000,0.0000
36.3415,32.5109,10.9858,-0.1657,0.0000,0.1800,1.6200,0.6400,0.0000,-0.3721,-0.2664,0.0018,996,1502,1527,1502,2008,1000,1505,1000,1000,1003,1005,1013,1014,0.0945,-0.0491,-0.0245,-0.0176,0.0159,0.9946,-0.1038,0.6367,0.1075,-0.6404,0.8627,0.2400,0.1321,0.8627,0.2400,0.1321,0.3000,0.0600,0.0002,0,-4.9083,-256.2000,-0.5040,-4.9083,-256.2000,-0.5040,29.4245,38.5268,0.0300,0.2700,0.0000,0.0000,0.0000,0.0000,0.0000,0.0000
36.3073,32.4898,10.9665,0.0000,0.0000,0.1200,1.6200,0.6400,0.0000,-0.3723,-0.2663,0.0020,996,1502,1527,1502,2008,1000,1505,1000,1000,1003,1005,1013,1014,0.1026,-0.0128,-0.0633,-0.0171,0.0158,0.9996,-0.1040,0.6366,0.1080,-0.6406,0.8627,0.2400,0.1321,0.8627,0.2400,0.1321,0.3000,0.0600,0.0002,0,-4.9083,-256.2000,-0.5040,-4.9083,-256.2000,-0.5040,29.3937,38.4997,0.0200,0.2700,0.0000,0.0000,0.0000,0.0000,0.0000,0.0000
36.2734,32.4688,10.9475,0.0000,0.0000,0.1200,1.6200,0.6400,0.0000,-0.3720,-0.2662,0.0019,996,1502,1527,1502,2008,1000,1505,1000,1000,1003,1005,1013,1014,0.0828,0.0597,-0.0177,-0.0185,0.0134,0.9998,-0.1039,0.6363,0.1077,-0.6401,0.8627,0.2400,0.1321,0.8627,0.2400,0.1321,0.3000,0.0600,0.0002,0,-4.9083,-256.2000,-0.5040,-4.9083,-256.2000,-0.5040,29.3628,38.4721,0.0200,0.2700,0.0000,0.0000,0.0000,0.0000,0.0000,0.0000
36.2390,32.4479,10.9283,-0.0829,0.0821,0.1200,1.6200,0.6400,0.0000,-0.3717,-0.2660,0.0020,996,1502,1527,1502,2008,1000,1505,1000,1000,1003,1005,1013,1014,0.0858,0.0090,-0.0601,-0.0237,0.0173,0.9967,-0.1038,0.6357,0.1077,-0.6397,0.8627,0.2400,0.1321,0.8627,0.2400,0.1321,0.3000,0.0600,0.0002,0,-4.9083,-256.2000,-0.5040,-4.9083,-256.2000,-0.5040,29.3327,38.4450,0.0200,0.2700,0.0000,0.0000,0.0000,0.0000,0.0000,0.0000
36.2050,32.4267,10.9096,-0.0829,0.0000,0.1200,1.6200,0.6400,0.0000,-0.3714,-0.2658,0.0018,996,1502,1527,1502,2008,1000,1505,1000,1000,1003,1005,1013,1014,0.0946,0.0238,0.0062,-0.0200,0.0149,0.9965,-0.1038,0.6354,0.1074,-0.6390,0.8627,0.2400,0.1321,0.8627,0.2400,0.1321,0.3000,0.0600,0.0002,0,-4.9083,-256.2000,-0.5040,-4.9083,-256.2000,-0.5040,29.3027,38.4177,0.0200,0.2700,0.0000,0.0000,0.0000,0.0000,0.0000,0.0000
36.1704,32.4057,10.8906,0.0000,0.0000,0.1200,1.6200,0.6400,0.0000,-0.3711,-0.2656,0.0021,996,1502,1527,1502,2008,1000,1505,1000,1000,1003,1005,1013,1014,0.0768,-0.0016,-0.0917,-0.0223,0.0143,0.9949,-0.1034,0.6346,0.1076,-0.6388,0.8627,0.2400,0.1321,0.8627,0.2400,0.1321,0.3000,0.0600,0.0002,0,-4.9083,-256.2000,-0.5040,-4.9083,-256.2000,-0.5040,29.2727,38.3902,0.0200,0.2700,0.0000,0.0000,0.0000,0.0000,0.0000,0.0000
36.1359,32.3844,10.8714,0.0000,0.0000,0.1800,1.6200,0.6400,0.0000,-0.3703,-0.2654,0.0018,996,1502,1527,1502,2008,1000,1505,1000,1000,1003,1005,1013,1014,0.0980,0.0100,0.0026,-0.0182,0.0150,0.9965,-0.1031,0.6339,0.1067,-0.6375,0.8627,0.2400,0.1321,0.8627,0.2400,0.1321,0.3000,0.0600,0.0002,0,-4.9083,-256.2000,-0.5040,-4.9083,-256.2000,-0.5040,29.2431,38.3631,0.0300,0.2700,0.0000,0.0000,0.0000,0.0000,0.0000,0.0000
36.1020,32.3626,10.8523,0.0000,0.0000,0.1200,1.6200,0.6400,0.0000,-0.3706,-0.2652,0.0019,996,1502,1527,1502,2008,1000,1505,1000,1000,1003,1005,1013,1014,0.1466,-0.0439,-0.0123,-0.0188,0.0153,0.9978,-0.1036,0.6339,0.1073,-0.6376,0.8627,0.2400,0.1321,0.8627,0.2400,0.1321,0.3000,0.0600,0.0002,0,-4.9083,-256.2000,-0.5040,-4.9083,-256.2000,-0.5040,29.2130,38.3359,0.0200,0.2700,0.0000,0.0000,0.0000,0.0000,0.0000,0.0000
36.0678,32.3415,10.8327,0.0000,0.0000,0.1200,1.6200,0.6400,0.0000,-0.3702,-0.2650,0.0022,996,1502,1527,1502,2008,1000,1505,1000,1000,1004,1005,1013,1014,0.0567,-0.0437,-0.1199,-0.0194,0.0154,0.9978,-0.1030,0.6330,0.1074,-0.6374,0.8627,0.2400,0.1321,0.8627,0.2400,0.1321,0.3000,0.0600,0.0002,0,-4.9280,-256.2000,-0.5040,-4.9280,-256.2000,-0.5040,29.1830,38.3085,0.0200,0.2700,0.0000,0.0000,0.0000,0.0000,0.0000,0.0000
36.0331,32.3200,10.8134,-0.0829,0.0000,0.1200,1.6200,0.6400,0.0000,-0.3699,-0.2649,0.0018,996,1502,1527,1502,2008,1000,1505,1000,1000,1004,1005,1013,1014,0.0447,0.0174,0.0091,-0.0174,0.0174,0.9975,-0.1032,0.6330,0.1068,-0.6365,0.8627,0.2400,0.1321,0.8627,0.2400,0.1321,0.3000,0.0600,0.0002,0,-4.9280,-256.2000,-0.5040,-4.9280,-256.2000,-0.5040,29.1528,38.2813,0.0200,0.2700,0.0000,0.0000,0.0000,0.0000,0.0000,0.0000
35.9995,32.2986,10.7950,0.0000,0.0000,0.1200,1.6200,0.6400,0.0000,-0.3697,-0.2647,0.0020,996,1502,1527,1502,2008,1000,1505,1000,1000,1003,1005,1013,1014,0.1173,0.0067,-0.0355,-0.0192,0.0144,1.0001,-0.1030,0.6324,0.1070,-0.6364,0.8627,0.2400,0.1321,0.8627,0.2400,0.1321,0.3000,0.0600,0.0002,0,-4.9083,-256.2000,-0.5040,-4.9083,-256.2000,-0.5040,29.1225,38.2536,0.0200,0.2700,0.0000,0.0000,0.0000,0.0000,0.0000,0.0000
35.9652,32.2777,10.7759,-0.0829,0.0000,0.1200,1.6200,0.6400,0.0000,-0.3693,-0.2645,0.0020,996,1502,1527,1502,2008,1000,1505,1000,1000,1003,1005,1013,1014,0.0714,0.0093,-0.0661,-0.0196,0.0164,0.9963,-0.1028,0.6318,0.1069,-0.6359,0.8627,0.2400,0.1321,0.8627,0.2400,0.1321,0.3000,0.0600,0.0002,0,-4.9083,-256.2000,-0.5040,-4.9083,-256.2000,-0.5040,29.0922,38.2260,0.0200,0.2700,0.0000,0.0000,0.0000,0.0000,0.0000,0.0000
35.9307,32.2567,10.7563,0.0000,0.0000,0.1800,1.6200,0.6400,0.0000,-0.3685,-0.2643,0.0022,996,1502,1527,1502,2008,1000,1505,1000,1000,1003,1005,1013,1014,0.0836,-0.0145,-0.1005,-0.0165,0.0152,0.9981,-0.1021,0.6307,0.1064,-0.6350,0.8627,0.2400,0.1321,0.8627,0.2400,0.1321,0.3000,0.0600,0.0002,0,-4.9083,-256.2000,-0.5040,-4.9083,-256.2000,-0.5040,29.0622,38.1989,0.0300,0.2700,0.0000,0.0000,0.0000,0.0000,0.0000,0.0000
35.8968,32.2358,10.7371,-0.1657,0.0821,0.1200,1.6200,0.6400,0.0000,-0.3688,-0.2642,0.0021,996,1502,1527,1502,2008,1000,1505,1000,1000,1003,1005,1013,1014,0.1317,0.0247,-0.0596,-0.0187,0.0143,0.9977,-0.1026,0.6309,0.1068,-0.6351,0.8627,0.2400,0.1321,0.8627,0.2400,0.1321,0.3000,0.0600,0.0002,0,-4.9083,-256.2000,-0.5040,-4.9083,-256.2000,-0.5040,29.0317,38.1718,0.0200,0.2700,0.0000,0.0000,0.0000,0.0000,0.0000,0.0000
35.8627,32.2146,10.7180,0.0000,0.0000,0.1200,1.6200,0.6400,0.0000,-0.3685,-0.2639,0.0020,996,1502,1527,1502,2008,1000,1505,1000,1000,1003,1005,1013,1014,0.1126,-0.0348,-0.0445,-0.0195,0.0127,1.0031,-0.1026,0.6304,0.1066,-0.6344,0.8627,0.2400,0.1321,0.8627,0.2400,0.1321,0.3000,0.0600,0.0002,0,-4.9083,-256.2000,-0.5040,-4.9083,-256.2000,-0.5040,29.0018,38.1450,0.0200,0.2700,0.0000,0.0000,0.0000,0.0000,0.0000,0.0000
35.8287,32.1929,10.6988,-0.0829,0.0000,0.1200,1.6200,0.6400,0.0000,-0.3682,-0.2637,0.0019,996,1502,1527,1502,2008,1000,1505,1000,1000,1003,1005,1013,1014,0.0962,-0.0506,-0.0152,-0.0202,0.0158,0.9971,-0.1026,0.6300,0.1064,-0.6338,0.8627,0.2400,0.1321,0.8627,0.2400,0.1321,0.3000,0.0600,0.0002,0,-4.9083,-256.2000,-0.5040,-4.9083,-256.2000,-0.5040,28.9715,38.1172,0.0200,0.2700,0.0000,0.0000,0.0000,0.0000,0.0000,0.0000
35.7944,32.1714,10.6796,-0.0829,0.0821,0.1200,1.6200,0.6400,0.0000,-0.3679,-0.2635,0.0021,996,1502,1527,1502,2008,1000,1505,1000,1000,1003,1005,1013,1014,0.1263,-0.0329,-0.0570,-0.0177,0.0147,0.9972,-0.1024,0.6294,0.1065,-0.6335,0.8627,0.2400,0.1321,0.8627,0.2400,0.1321,0.3000,0.0600,0.0002,0,-4.9083,-256.2000,-0.5040,-4.9083,-256.2000,-0.5040,28.9411,38.0896,0.0200,0.2700,0.0000,0.0000,0.0000,0.0000,0.0000,0.0000
35.7603,32.1497,10.6606,-0.1657,-0.0821,0.1200,1.6200,0.6400,0.0000,-0.3676,-0.2634,0.0019,996,1502,1527,1502,2008,1000,1505,1000,1000,1003,1005,1013,1014,0.0788,-0.0173,-0.0020,-0.0207,0.0149,0.9969,-0.1023,0.6290,0.1061,-0.6329,0.8627,0.2400,0.1321,0.8627,0.2400,0.1321,0.3000,0.0600,0.0002,0,-4.9083,-256.2000,-0.5040,-4.9083,-256.2000,-0.5040,28.9104,38.0621,0.0200,0.2700,0.0000,0.0000,0.0000,0.0000,0.0000,0.0000
35.7263,32.1280,10.6417,0.0000,-0.0821,0.1800,1.6200,0.6400,0.0000,-0.3668,-0.2633,0.0018,996,1502,1527,1502,2008,1000,1505,1000,1000,1003,1005,1013,1014,0.1011,0.0584,0.0153,-0.0195,0.0136,1.0012,-0.1017,0.6282,0.1054,-0.6319,0.8627,0.2400,0.1321,0.8627,0.2400,0.1321,0.3000,0.0600,0.0002,0,-4.9083,-256.2000,-0.5040,-4.9083,-256.2000,-0.5040,28.8793,38.0345,0.0300,0.2700,0.0000,0.0000,0.0000,0.0000,0.0000,0.0000
35.6925,32.1069,10.6234,-0.1657,-0.0821,0.1200,1.6200,0.6400,0.0000,-0.3670,-0.2630,0.0020,996,1502,1527,1502,2008,1000,1505,1000,1000,1003,1005,1013,1014,0.0995,0.0154,-0.0364,-0.0170,0.0143,1.0015,-0.1020,0.6280,0.1060,-0.6321,0.8627,0.2400,0.1321,0.8627,0.2400,0.1321,0.3000,0.0600,0.0002,0,-4.9083,-256.2000,-0.5040,-4.9083,-256.2000,-0.5040,28.8490,38.0069,0.0200,0.2700,0.0000,0.0000,0.0000,0.0000,0.0000,0.0000
35.6582,32.0855,10.6046,-0.0829,0.0000,0.1200,1.6200,0.6400,0.0000,-0.3667,-0.2629,0.0019,996,1502,1527,1502,2008,1000,1505,1000,1000,1003,1005,1013,1014,0.0725,0.0230,-0.0168,-0.0209,0.0128,0.9947,-0.1019,0.6276,0.1058,-0.6315,0.8627,0.2400,0.1321,0.8627,0.2400,0.1321,0.3000,0.0600,0.0002,0,-4.9083,-256.2000,-0.5040,-4.9083,-256.2000,-0.5040,28.8197,37.9794,0.0200,0.2700,0.0000,0.0000,0.0000,0.0000,0.0000,0.0000
35.6241,32.0642,10.5856,-0.0829,0.0000,0.1200,1.6200,0.6400,0.0000,-0.3663,-0.2627,0.0019,996,1502,1527,1502,2008,1000,1505,1000,1000,1003,1005,1013,1014,0.0392,0.0245,-0.0137,-0.0176,0.0128,0.9955,-0.1017,0.6271,0.1056,-0.6310,0.8627,0.2400,0.1321,0.8627,0.2400,0.1321,0.3000,0.0600,0.0002,0,-4.9083,-256.2000,-0.5040,-4.9083,-256.2000,-0.5040,28.7899,37.9514,0.0200,0.2700,0.0000,0.0000,0.0000,0.0000,0.0000,0.0000
35.5901,32.0427,10.5674,-0.0829,0.0000,0.1200,1.6200,0.6400,0.0000,-0.3661,-0.2625,0.0019,996,1502,1527,1502,2008,1000,1505,1000,1000,1003,1005,1014,1014,0.0821,0.0336,0.0186,-0.0165,0.0146,0.9991,-0.1017,0.6268,0.1055,-0.6305,0.8627,0.2400,0.1321,0.8627,0.2400,0.1321,0.3000,0.0600,0.0002,0,-4.9083,-256.2000,-0.5060,-4.9083,-256.2000,-0.5060,28.7595,37.9239,0.0200,0.2700,0.0000,0.0000,0.0000,0.0000,0.0000,0.0000
35.5563,32.0212,10.5489,-0.0829,0.0000,0.1200,1.6200,0.6400,0.0000,-0.3659,-0.2623,0.0019,996,1502,1527,1502,2008,1000,1505,1000,1000,1003,1005,1014,1014,0.1225,0.0099,-0.0054,-0.0195,0.0137,1.0020,-0.1017,0.6262,0.1055,-0.6301,0.8627,0.2400,0.1321,0.8627,0.2400,0.1321,0.3000,0.0600,0.0002,0,-4.9083,-256.2000,-0.5060,-4.9083,-256.2000,-0.5060,28.7293,37.8961,0.0200,0.2700,0.0000,0.0000,0.0000,0.0000,0.0000,0.0000
35.5229,31.9996,10.5301,0.0000,-0.0821,0.1800,1.6200,0.6400,0.0000,-0.3651,-0.2620,0.0021,996,1502,1527,1502,2008,1000,1505,1000,1000,1003,1005,1013,1014,0.1362,-0.0304,-0.0683,-0.0181,0.0161,0.9963,-0.1009,0.6250,0.1052,-0.6292,0.8627,0.2400,0.1321,0.8627,0.2400,0.1321,0.3000,0.0600,0.0002,0,-4.9083,-256.2000,-0.5040,-4.9083,-256.2000,-0.5040,28.6995,37.8682,0.0300,0.2700,0.0000,0.0000,0.0000,0.0000,0.0000,0.0000
35.4891,31.9778,10.5113,0.0000,0.0000,0.1200,1.6200,0.6400,0.0000,-0.3653,-0.2618,0.0018,996,1502,1527,1502,2008,1000,1505,1000,1000,1004,1005,1013,1014,0.0938,-0.0426,0.0301,-0.0195,0.0151,0.9980,-0.1016,0.6252,0.1053,-0.6289,0.8627,0.2400,0.1321,0.8627,0.2400,0.1321,0.3000,0.0600,0.0002,0,-4.9280,-256.2000,-0.5040,-4.9280,-256.2000,-0.5040,28.6696,37.8397,0.0200,0.2700,0.0000,0.0000,0.0000,0.0000,0.0000,0.0000
35.4555,31.9559,10.4930,-0.0829,0.0000,0.1200,1.6200,0.6400,0.0000,-0.3650,-0.2617,0.0020,996,1502,1527,1502,2008,1000,1505,1000,1000,1004,1005,1013,1014,0.0878,0.0026,-0.0067,-0.0162,0.0181,1.0023,-0.1013,0.6247,0.1052,-0.6286,0.8627,0.2400,0.1321,0.8627,0.2400,0.1321,0.3000,0.0600,0.0002,0,-4.9280,-256.2000,-0.5040,-4.9280,-256.2000,-0.5040,28.6392,37.8122,0.0200,0.2700,0.0000,0.0000,0.0000,0.0000,0.0000,0.0000
35.4217,31.9335,10.4746,0.0000,0.0000,0.1200,1.6200,0.6400,0.0000,-0.3647,-0.2615,0.0019,996,1502,1527,1502,2008,1000,1505,1000,1000,1003,1005,1013,1014,0.1198,0.0015,0.0137,-0.0191,0.0147,1.0015,-0.1013,0.6243,0.1051,-0.6281,0.8627,0.2400,0.1321,0.8627,0.2400,0.1321,0.3000,0.0600,0.0002,0,-4.9083,-256.2000,-0.5040,-4.9083,-256.2000,-0.5040,28.6084,37.7844,0.0200,0.2700,0.0000,0.0000,0.0000,0.0000,0.0000,0.0000
35.3884,31.9117,10.4563,-0.0829,0.0000,0.1200,1.6200,0.6400,0.0000,-0.3644,-0.2613,0.0019,996,1502,1527,1502,2008,1000,1505,1000,1000,1003,1005,1013,1014,0.1092,-0.0077,-0.0044,-0.0201,0.0146,0.9976,-0.1012,0.6238,0.1050,-0.6276,0.8627,0.2400,0.1321,0.8627,0.2400,0.1321,0.3000,0.0600,0.0002,0,-4.9083,-256.2000,-0.5040,-4.9083,-256.2000,-0.5040,28.5786,37.7567,0.0200,0.2700,0.0000,0.0000,0.0000,0.0000,0.0000,0.0000
35.3545,31.8896,10.4378,0.0000,0.0000,0.1200,1.6200,0.6400,0.0000,-0.3641,-0.2611,0.0019,996,1502,1527,1502,2008,1000,1505,1000,1000,1003,1005,1013,1014,0.0709,-0.0323,0.0248,-0.0206,0.0130,0.9970,-0.1011,0.6233,0.1049,-0.6270,0.8627,0.2400,0.1321,0.8627,0.2400,0.1321,0.3000,0.0600,0.0002,0,-4.9083,-256.2000,-0.5040,-4.9083,-256.2000,-0.5040,28.5491,37.7291,0.0200,0.2700,0.0000,0.0000,0.0000,0.0000,0.0000,0.0000
35.3204,31.8678,10.4192,-0.0829,-0.0821,0.1800,1.6200,0.6400,0.0000,-0.3633,-0.2609,0.0019,996,1502,1527,1502,2008,1000,1505,1000,1000,1003,1005,1013,1014,0.0858,-0.0379,0.0174,-0.0206,0.0148,0.9986,-0.1005,0.6223,0.1042,-0.6260,0.8627,0.2400,0.1321,0.8627,0.2400,0.1321,0.3000,0.0600,0.0002,0,-4.9083,-256.2000,-0.5040,-4.9083,-256.2000,-0.5040,28.5193,37.7011,0.0300,0.2700,0.0000,0.0000,0.0000,0.0000,0.0000,0.0000
35.2865,31.8457,10.4009,-0.0829,0.0821,0.1200,1.6200,0.6400,0.0000,-0.3634,-0.2607,0.0018,996,1502,1527,1502,2008,1000,1505,1000,1000,1003,1005,1013,1014,0.0509,-0.0118,0.0438,-0.0191,0.0143,0.9984,-0.1009,0.6224,0.1045,-0.6260,0.8627,0.2400,0.1321,0.8627,0.2400,0.1321,0.3000,0.0600,0.0002,0,-4.9083,-256.2000,-0.5040,-4.9083,-256.2000,-0.5040,28.4892,37.6727,0.0200,0.2700,0.0000,0.0000,0.0000,0.0000,0.0000,0.0000
35.2523,31.8234,10.3825,0.0000,0.0000,0.1200,1.6200,0.6400,0.0000,-0.3632,-0.2605,0.0022,996,1502,1527,1502,2008,1000,1505,1000,1000,1003,1005,1013,1014,0.0884,-0.0382,-0.0568,-0.0184,0.0154,0.9998,-0.1005,0.6216,0.1048,-0.6259,0.8627,0.2400,0.1321,0.8627,0.2400,0.1321,0.3000,0.0600,0.0002,0,-4.9083,-256.2000,-0.5040,-4.9083,-256.2000,-0.5040,28.4585,37.6443,0.0200,0.2700,0.0000,0.0000,0.0000,0.0000,0.0000,0.0000
35.2183,31.8017,10.3636,0.0000,0.0000,0.1200,1.6200,0.6400,0.0000,-0.3629,-0.2604,0.0022,996,1502,1527,1502,2008,1000,1505,1000,1000,1003,1005,1013,1014,0.0548,0.0072,-0.0660,-0.0205,0.0150,0.9966,-0.1003,0.6211,0.1046,-0.6254,0.8627,0.2400,0.1321,0.8627,0.2400,0.1321,0.3000,0.0600,0.0002,0,-4.9083,-256.2000,-0.5040,-4.9083,-256.2000,-0.5040,28.4285,37.6165,0.0200,0.2700,0.0000,0.0000,0.0000,0.0000,0.0000,0.0000
35.1843,31.7802,10.3446,0.0000,0.0000,0.1200,1.6200,0.6400,0.0000,-0.3627,-0.2602,0.0020,996,1502,1527,1502,2008,1000,1505,1000,1000,1003,1005,1013,1014,0.1378,-0.0030,-0.0244,-0.0182,0.0121,0.9998,-0.1005,0.6209,0.1045,-0.6248,0.8627,0.2400,0.1321,0.8627,0.2400,0.1321,0.3000,0.0600,0.0002,0,-4.9083,-256.2000,-0.5040,-4.9083,-256.2000,-0.5040,28.3987,37.5883,0.0200,0.2700,0.0000,0.0000,0.0000,0.0000,0.0000,0.0000
35.1505,31.7582,10.3260,-0.0829,0.0000,0.1200,1.6200,0.6400,0.0000,-0.3623,-0.2600,0.0019,996,1502,1527,1502,2008,1000,1505,1000,1000,1003,1005,1013,1014,0.0984,0.0358,0.0084,-0.0200,0.0146,0.9989,-0.1004,0.6205,0.1042,-0.6243,0.8627,0.2400,0.1321,0.8627,0.2400,0.1321,0.3000,0.0600,0.0002,0,-4.9083,-256.2000,-0.5040,-4.9083,-256.2000,-0.5040,28.3693,37.5604,0.0200,0.2700,0.0000,0.0000,0.0000,0.0000,0.0000,0.0000
35.1169,31.7366,10.3077,-0.1657,-0.0821,0.1800,1.6200,0.6400,0.0000,-0.3616,-0.2599,0.0022,996,1502,1527,1502,2008,1000,1505,1000,1000,1003,1005,1014,1014,0.1518,0.0298,-0.0499,-0.0193,0.0180,0.9973,-0.0996,0.6193,0.1039,-0.6236,0.8627,0.2400,0.1321,0.8627,0.2400,0.1321,0.3000,0.0600,0.0002,0,-4.9083,-256.2000,-0.5060,-4.9083,-256.2000,-0.5060,28.3400,37.5325,0.0300,0.2700,0.0000,0.0000,0.0000,0.0000,0.0000,0.0000
35.0834,31.7150,10.2893,0.0000,0.0000,0.1200,1.6200,0.6400,0.0000,-0.3618,-0.2596,0.0020,996,1502,1527,1502,2008,1000,1505,1000,1000,1004,1005,1014,1014,0.0947,0.0135,-0.0284,-0.0193,0.0142,0.9969,-0.1001,0.6194,0.1041,-0.6234,0.8627,0.2400,0.1321,0.8627,0.2400,0.1321,0.3000,0.0600,0.0002,0,-4.9280,-256.2000,-0.5060,-4.9280,-256.2000,-0.5060,28.3098,37.5045,0.0200,0.2700,0.0000,0.0000,0.0000,0.0000,0.0000,0.0000
35.0496,31.6933,10.2706,-0.1657,-0.0821,0.1200,1.6200,0.6400,0.0000,-0.3615,-0.2595,0.0023,996,1502,1527,1502,2008,1000,1505,1000,1000,1004,1005,1014,1014,0.1291,0.0113,-0.0976,-0.0203,0.0171,1.0030,-0.0997,0.6187,0.1044,-0.6233,0.8627,0.2400,0.1321,0.8627,0.2400,0.1321,0.3000,0.0600,0.0002,0,-4.9280,-256.2000,-0.5060,-4.9280,-256.2000,-0.5060,28.2793,37.4769,0.0200,0.2700,0.0000,0.0000,0.0000,0.0000,0.0000,0.0000
35.0154,31.6717,10.2514,-0.0829,0.0821,0.1200,1.6200,0.6400,0.0000,-0.3611,-0.2593,0.0023,996,1502,1527,1502,2008,1000,1505,1000,1000,1003,1005,1014,1014,0.0395,0.0227,-0.0811,-0.0203,0.0167,0.9954,-0.0995,0.6181,0.1041,-0.6226,0.8627,0.2400,0.1321,0.8627,0.2400,0.1321,0.3000,0.0600,0.0002,0,-4.9083,-256.2000,-0.5060,-4.9083,-256.2000,-0.5060,28.2492,37.4490,0.0200,0.2700,0.0000,0.0000,0.0000,0.0000,0.0000,0.0000
34.9809,31.6496,10.2330,-0.1657,-0.0821,0.1200,1.6200,0.6400,0.0000,-0.3608,-0.2591,0.0018,996,1502,1527,1502,2008,1000,1505,1000,1000,1003,1005,1014,1014,0.0450,-0.0062,0.0645,-0.0188,0.0192,0.9925,-0.1000,0.6181,0.1035,-0.6216,0.8627,0.2400,0.1321,0.8627,0.2400,0.1321,0.3000,0.0600,0.0002,0,-4.9083,-256.2000,-0.5060,-4.9083,-256.2000,-0.5060,28.2189,37.4207,0.0200,0.2700,0.0000,0.0000,0.0000,0.0000,0.0000,0.0000
34.9468,31.6269,10.2149,-0.0829,0.0000,0.1200,1.6200,0.6400,0.0000,-0.3606,-0.2588,0.0017,996,1502,1527,1502,2008,1000,1505,1000,1000,1003,1005,1013,1014,0.0907,-0.0362,0.0890,-0.0212,0.0180,0.9986,-0.1000,0.6177,0.1035,-0.6211,0.8627,0.2400,0.1321,0.8627,0.2400,0.1321,0.3000,0.0600,0.0002,0,-4.9083,-256.2000,-0.5040,-4.9083,-256.2000,-0.5040,28.1884,37.3930,0.0200,0.2700,0.0000,0.0000,0.0000,0.0000,0.0000,0.0000
34.9129,31.6051,10.1965,-0.0829,-0.0821,0.1800,1.6200,0.6400,0.0000,-0.3598,-0.2587,0.0022,996,1502,1527,1502,2008,1000,1505,1000,1000,1003,1005,1013,1014,0.0939,-0.0023,-0.0785,-0.0175,0.0152,0.9992,-0.0989,0.6162,0.1033,-0.6206,0.8627,0.2400,0.1321,0.8627,0.2400,0.1321,0.3000,0.0600,0.0002,0,-4.9083,-256.2000,-0.5040,-4.9083,-256.2000,-0.5040,28.1585,37.3649,0.0300,0.2700,0.0000,0.0000,0.0000,0.0000,0.0000,0.0000
34.8790,31.5830,10.1783,0.0000,0.0000,0.1200,1.6200,0.6400,0.0000,-0.3599,-0.2585,0.0021,996,1502,1527,1502,2008,1000,1505,1000,1000,1003,1005,1013,1014,0.0423,0.0056,-0.0127,-0.0199,0.0167,0.9936,-0.0994,0.6164,0.1035,-0.6205,0.8627,0.2400,0.1321,0.8627,0.2400,0.1321,0.3000,0.0600,0.0002,0,-4.9083,-256.2000,-0.5040,-4.9083,-256.2000,-0.5040,28.1287,37.3367,0.0200,0.2700,0.0000,0.0000,0.0000,0.0000,0.0000,0.0000
34.8447,31.5613,10.1597,0.0000,0.0000,0.1200,1.6200,0.6400,0.0000,-0.3596,-0.2583,0.0022,996,1502,1527,1502,2008,1000,1505,1000,1000,1003,1005,1013,1014,0.0422,-0.0139,-0.0583,-0.0195,0.0145,0.9967,-0.0992,0.6157,0.1035,-0.6201,0.8627,0.2400,0.1321,0.8627,0.2400,0.1321,0.3000,0.0600,0.0002,0,-4.9083,-256.2000,-0.5040,-4.9083,-256.2000,-0.5040,28.0992,37.3086,0.0200,0.2700,0.0000,0.0000,0.0000,0.0000,0.0000,0.0000
34.8102,31.5392,10.1412,0.0000,0.0000,0.1200,1.6200,0.6400,0.0000,-0.3594,-0.2581,0.0020,996,1502,1527,1502,2008,1000,1505,1000,1000,1003,1005,1013,1014,0.0915,-0.0018,-0.0062,-0.0207,0.0141,0.9947,-0.0993,0.6155,0.1033,-0.6195,0.8627,0.2400,0.1321,0.8627,0.2400,0.1321,0.3000,0.0600,0.0002,0,-4.9083,-256.2000,-0.5040,-4.9083,-256.2000,-0.5040,28.0690,37.2803,0.0200,0.2700,0.0000,0.0000,0.0000,0.0000,0.0000,0.0000
34.7763,31.5171,10.1227,-0.0829,0.0000,0.1200,1.6200,0.6400,0.0000,-0.3591,-0.2578,0.0021,996,1502,1527,1502,2008,1000,1505,1000,1000,1003,1005,1013,1014,0.0956,-0.0639,-0.0298,-0.0193,0.0147,0.9970,-0.0992,0.6148,0.1034,-0.6191,0.8627,0.2400,0.1321,0.8627,0.2400,0.1321,0.3000,0.0600,0.0002,0,-4.9083,-256.2000,-0.5040,-4.9083,-256.2000,-0.5040,28.0392,37.2526,0.0200,0.2700,0.0000,0.0000,0.0000,0.0000,0.0000,0.0000
34.7426,31.4953,10.1042,0.0000,0.0000,0.1200,1.6200,0.6400,0.0000,-0.3589,-0.2578,0.0021,996,1502,1527,1502,2008,1000,1505,1000,1000,1003,1005,1013,1014,0.1375,0.0376,-0.0209,-0.0198,0.0140,1.0027,-0.0990,0.6146,0.1032,-0.6187,0.8627,0.2400,0.1321,0.8627,0.2400,0.1321,0.3000,0.0600,0.0002,0,-4.9083,-256.2000,-0.5040,-4.9083,-256.2000,-0.5040,28.0090,37.2252,0.0200,0.2700,0.0000,0.0000,0.0000,0.0000,0.0000,0.0000
34.7094,31.4739,10.0863,0.0000,0.0821,0.1800,1.6200,0.6400,0.0000,-0.3580,-0.2576,0.0021,996,1502,1527,1502,2008,1000,1505,1000,1000,1003,1005,1013,1014,0.1234,0.0343,-0.0188,-0.0178,0.0149,0.9961,-0.0984,0.6136,0.1025,-0.6177,0.8627,0.2400,0.1321,0.8627,0.2400,0.1321,0.3000,0.0600,0.0002,0,-4.9083,-256.2000,-0.5040,-4.9083,-256.2000,-0.5040,27.9789,37.1972,0.0300,0.2700,0.0000,0.0000,0.0000,0.0000,0.0000,0.0000
34.6757,31.4524,10.0679,0.0000,0.0000,0.1200,1.6200,0.6400,0.0000,-0.3583,-0.2574,0.0022,996,1502,1527,1502,2008,1000,1505,1000,1000,1003,1005,1013,1014,0.1164,-0.0103,-0.0550,-0.0210,0.0132,1.0007,-0.0987,0.6134,0.1031,-0.6178,0.8627,0.2400,0.1321,0.8627,0.2400,0.1321,0.3000,0.0600,0.0002,0,-4.9083,-256.2000,-0.5040,-4.9083,-256.2000,-0.5040,27.9493,37.1693,0.0200,0.2700,0.0000,0.0000,0.0000,0.0000,0.0000,0.0000
34.6416,31.4306,10.0489,-0.0829,0.0000,0.1200,1.6200,0.6400,0.0000,-0.3579,-0.2571,0.0020,996,1502,1527,1502,2008,1000,1505,1000,1000,1003,1005,1013,1014,0.0947,-0.0487,-0.0100,-0.0218,0.0128,0.9996,-0.0988,0.6130,0.1029,-0.6171,0.8627,0.2400,0.1321,0.8627,0.2400,0.1321,0.3000,0.0600,0.0002,0,-4.9083,-256.2000,-0.5040,-4.9083,-256.2000,-0.5040,27.9194,37.1411,0.0200,0.2700,0.0000,0.0000,0.0000,0.0000,0.0000,0.0000
34.6077,31.4080,10.0304,-0.0829,0.0000,0.1200,1.6200,0.6400,0.0000,-0.3577,-0.2569,0.0021,996,1502,1527,1502,2008,1000,1505,1000,1000,1003,1005,1013,1014,0.0955,-0.0337,0.0062,-0.0210,0.0147,0.9978,-0.0987,0.6125,0.1028,-0.6167,0.8627,0.2400,0.1321,0.8627,0.2400,0.1321,0.3000,0.0600,0.0002,0,-4.9083,-256.2000,-0.5040,-4.9083,-256.2000,-0.5040,27.8895,37.1127,0.0200,0.2700,0.0000,0.0000,0.0000,0.0000,0.0000,0.0000
34.5740,31.3859,10.0118,-0.0829,0.0000,0.1200,1.6200,0.6400,0.0000,-0.3574,-0.2568,0.0021,996,1502,1527,1502,2008,1000,1505,1000,1000,1003,1005,1013,1014,0.0952,-0.0196,-0.0178,-0.0215,0.0163,0.9983,-0.0985,0.6120,0.1027,-0.6162,0.8627,0.2400,0.1321,0.8627,0.2400,0.1321,0.3000,0.0600,0.0002,0,-4.9083,-256.2000,-0.5040,-4.9083,-256.2000,-0.5040,27.8597,37.0843,0.0200,0.2700,0.0000,0.0000,0.0000,0.0000,0.0000,0.0000
34.5401,31.3639,9.9928,0.0000,0.0000,0.1200,1.6200,0.6400,0.0000,-0.3571,-0.2566,0.0023,996,1502,1527,1502,2008,1000,1505,1000,1000,1004,1005,1013,1014,0.0908,-0.0043,-0.0930,-0.0189,0.0145,0.9979,-0.0982,0.6113,0.1028,-0.6160,0.8627,0.2400,0.1321,0.8627,0.2400,0.1321,0.3000,0.0600,0.0002,0,-4.9280,-256.2000,-0.5040,-4.9280,-256.2000,-0.5040,27.8297,37.0564,0.0200,0.2700,0.0000,0.0000,0.0000,0.0000,0.0000,0.0000
34.5061,31.3426,9.9744,0.0000,0.0000,0.1800,1.6200,0.6400,0.0000,-0.3563,-0.2566,0.0023,996,1502,1527,1502,2008,1000,1505,1000,1000,1003,1005,1013,1014,0.0941,0.1176,-0.0867,-0.0200,0.0154,0.9987,-0.0974,0.6105,0.1020,-0.6151,0.8627,0.2400,0.1321,0.8627,0.2400,0.1321,0.3000,0.0600,0.0002,0,-4.9083,-256.2000,-0.5040,-4.9083,-256.2000,-0.5040,27.8001,37.0282,0.0300,0.2700,0.0000,0.0000,0.0000,0.0000,0.0000,0.0000
34.4720,31.3208,9.9561,-0.0829,0.0000,0.1200,1.6200,0.6400,0.0000,-0.3564,-0.2562,0.0021,996,1502,1527,1502,2008,1000,1505,1000,1000,1003,1005,1013,1014,0.0424,-0.0005,-0.0311,-0.0203,0.0151,0.9972,-0.0981,0.6105,0.1023,-0.6148,0.8627,0.2400,0.1321,0.8627,0.2400,0.1321,0.3000,0.0600,0.0002,0,-4.9083,-256.2000,-0.5040,-4.9083,-256.2000,-0.5040,27.7709,36.9998,0.0200,0.2700,0.0000,0.0000,0.0000,0.0000,0.0000,0.0000
34.4377,31.2987,9.9374,0.0000,0.0000,0.1200,1.6200,0.6400,0.0000,-0.3562,-0.2559,0.0021,996,1502,1527,1502,2008,1000,1505,1000,1000,1004,1005,1013,1014,0.1113,-0.0895,-0.0292,-0.0191,0.0151,1.0003,-0.0981,0.6100,0.1024,-0.6143,0.8627,0.2400,0.1321,0.8627,0.2400,0.1321,0.3000,0.0600,0.0002,0,-4.9280,-256.2000,-0.5040,-4.9280,-256.2000,-0.5040,27.7408,36.9714,0.0200,0.2700,0.0000,0.0000,0.0000,0.0000,0.0000,0.0000
34.4039,31.2762,9.9193,-0.1657,-0.1642,0.1200,1.6200,0.6400,0.0000,-0.3559,-0.2558,0.0020,996,1502,1527,1502,2008,1000,1505,1000,1000,1004,1005,1013,1014,0.1004,-0.0463,0.0083,-0.0177,0.0163,0.9993,-0.0981,0.6096,0.1022,-0.6137,0.8627,0.2400,0.1321,0.8627,0.2400,0.1321,0.3000,0.0600,0.0002,0,-4.9280,-256.2000,-0.5040,-4.9280,-256.2000,-0.5040,27.7108,36.9428,0.0200,0.2700,0.0000,0.0000,0.0000,0.0000,0.0000,0.0000
34.3698,31.2540,9.9007,0.0000,0.0000,0.1200,1.6200,0.6400,0.0000,-0.3556,-0.2557,0.0022,996,1502,1527,1502,2008,1000,1505,1000,1000,1003,1005,1013,1014,0.0597,0.0335,-0.0407,-0.0175,0.0144,1.0002,-0.0977,0.6091,0.1020,-0.6134,0.8627,0.2400,0.1321,0.8627,0.2400,0.1321,0.3000,0.0600,0.0002,0,-4.9083,-256.2000,-0.5040,-4.9083,-256.2000,-0.5040,27.6809,36.9140,0.0200,0.2700,0.0000,0.0000,0.0000,0.0000,0.0000,0.0000
34.3360,31.2319,9.8823,-0.2486,-0.1642,0.1200,1.6200,0.6400,0.0000,-0.3553,-0.2554,0.0022,996,1502,1527,1502,2008,1000,1505,1000,1000,1003,1005,1013,1014,0.1081,-0.0098,-0.0516,-0.0200,0.0147,0.9947,-0.0977,0.6086,0.1021,-0.6130,0.8627,0.2400,0.1321,0.8627,0.2400,0.1321,0.3000,0.0600,0.0002,0,-4.9083,-256.2000,-0.5040,-4.9083,-256.2000,-0.5040,27.6515,36.8860,0.0200,0.2700,0.0000,0.0000,0.0000,0.0000,0.0000,0.0000
34.3022,31.2095,9.8639,0.0000,0.0000,0.1800,1.6200,0.6400,0.0000,-0.3545,-0.2552,0.0021,996,1502,1527,1502,2008,1000,1505,1000,1000,1003,1005,1013,1014,0.0901,-0.0145,-0.0225,-0.0197,0.0164,0.9978,-0.0971,0.6076,0.1014,-0.6119,0.8627,0.2400,0.1321,0.8627,0.2400,0.1321,0.3000,0.0600,0.0002,0,-4.9083,-256.2000,-0.5040,-4.9083,-256.2000,-0.5040,27.6215,36.8576,0.0300,0.2700,0.0000,0.0000,0.0000,0.0000,0.0000,0.0000
34.2684,31.1872,9.8455,-0.0829,0.0000,0.1200,1.6200,0.6400,0.0000,-0.3547,-0.2551,0.0021,996,1502,1527,1502,2008,1000,1505,1000,1000,1003,1005,1013,1014,0.1085,0.0062,-0.0027,-0.0189,0.0141,1.0014,-0.0976,0.6078,0.1017,-0.6119,0.8627,0.2400,0.1321,0.8627,0.2400,0.1321,0.3000,0.0600,0.0002,0,-4.9083,-256.2000,-0.5040,-4.9083,-256.2000,-0.5040,27.5917,36.8290,0.0200,0.2700,0.0000,0.0000,0.0000,0.0000,0.0000,0.0000
34.2341,31.1649,9.8269,-0.0829,0.0000,0.1200,1.6200,0.6400,0.0000,-0.3543,-0.2549,0.0022,996,1502,1527,1502,2008,1000,1505,1000,1000,1003,1005,1013,1014,0.0220,0.0226,-0.0442,-0.0200,0.0160,1.0000,-0.0972,0.6070,0.1016,-0.6115,0.8627,0.2400,0.1321,0.8627,0.2400,0.1321,0.3000,0.0600,0.0002,0,-4.9083,-256.2000,-0.5040,-4.9083,-256.2000,-0.5040,27.5620,36.8010,0.0200,0.2700,0.0000,0.0000,0.0000,0.0000,0.0000,0.0000
34.2000,31.1433,9.8088,0.0000,0.0000,0.1200,1.6200,0.6400,0.0000,-0.3541,-0.2548,0.0023,996,1502,1527,1502,2008,1000,1505,1000,1000,1004,1005,1013,1014,0.0886,0.0406,-0.0577,-0.0200,0.0149,0.9986,-0.0971,0.6066,0.1016,-0.6111,0.8627,0.2400,0.1321,0.8627,0.2400,0.1321,0.3000,0.0600,0.0002,0,-4.9280,-256.2000,-0.5040,-4.9280,-256.2000,-0.5040,27.5321,36.7727,0.0200,0.2700,0.0000,0.0000,0.0000,0.0000,0.0000,0.0000
34.1661,31.1216,9.7905,-0.0829,0.0000,0.1200,1.6200,0.6400,0.0000,-0.3538,-0.2545,0.0022,996,1502,1527,1502,2008,1000,1505,1000,1000,1004,1005,1013,1014,0.0957,0.0070,-0.0568,-0.0179,0.0160,1.0021,-0.0971,0.6061,0.1016,-0.6106,0.8627,0.2400,0.1321,0.8627,0.2400,0.1321,0.3000,0.0600,0.0002,0,-4.9280,-256.2000,-0.5040,-4.9280,-256.2000,-0.5040,27.5019,36.7442,0.0200,0.2700,0.0000,0.0000,0.0000,0.0000,0.0000,0.0000
34.1321,31.0994,9.7716,0.0000,0.0821,0.1200,1.6200,0.6400,0.0000,-0.3536,-0.2543,0.0025,996,1502,1527,1502,2008,1000,1505,1000,1000,1003,1005,1013,1014,0.1027,-0.0263,-0.1458,-0.0204,0.0145,1.0000,-0.0967,0.6053,0.1018,-0.6104,0.8627,0.2400,0.1321,0.8627,0.2400,0.1321,0.3000,0.0600,0.0002,0,-4.9083,-256.2000,-0.5040,-4.9083,-256.2000,-0.5040,27.4721,36.7161,0.0200,0.2700,0.0000,0.0000,0.0000,0.0000,0.0000,0.0000
34.0979,31.0772,9.7526,-0.0829,0.0000,0.1800,1.6200,0.6400,0.0000,-0.3528,-0.2541,0.0022,996,1502,1527,1502,2008,1000,1505,1000,1000,1003,1005,1013,1014,0.1148,-0.0482,-0.0425,-0.0243,0.0156,0.9976,-0.0965,0.6046,0.1009,-0.6090,0.8627,0.2400,0.1321,0.8627,0.2400,0.1321,0.3000,0.0600,0.0002,0,-4.9083,-256.2000,-0.5040,-4.9083,-256.2000,-0.5040,27.4426,36.6881,0.0300,0.2700,0.0000,0.0000,0.0000,0.0000,0.0000,0.0000
34.0641,31.0544,9.7341,-0.0829,0.0000,0.1200,1.6200,0.6400,0.0000,-0.3530,-0.2539,0.0021,996,1502,1527,1502,2008,1000,1505,1000,1000,1003,1005,1013,1014,0.1285,-0.0526,0.0120,-0.0200,0.0168,0.9982,-0.0971,0.6048,0.1012,-0.6089,0.8627,0.2400,0.1321,0.8627,0.2400,0.1321,0.3000,0.0600,0.0002,0,-4.9083,-256.2000,-0.5040,-4.9083,-256.2000,-0.5040,27.4136,36.6594,0.0200,0.2700,0.0000,0.0000,0.0000,0.0000,0.0000,0.0000
34.0305,31.0319,9.7161,0.0000,0.0821,0.1200,1.6200,0.6400,0.0000,-0.3527,-0.2537,0.0020,996,1502,1527,1502,2008,1000,1505,1000,1000,1003,1005,1013,1014,0.1033,0.0074,-0.0011,-0.0196,0.0154,0.9961,-0.0969,0.6044,0.1010,-0.6084,0.8627,0.2400,0.1321,0.8627,0.2400,0.1321,0.3000,0.0600,0.0002,0,-4.9083,-256.2000,-0.5040,-4.9083,-256.2000,-0.5040,27.3843,36.6308,0.0200,0.2700,0.0000,0.0000,0.0000,0.0000,0.0000,0.0000
33.9967,31.0096,9.6979,-0.0829,0.0000,0.1200,1.6200,0.6400,0.0000,-0.3524,-0.2535,0.0022,996,1502,1527,1502,2008,1000,1505,1000,1000,1003,1005,1013,1014,0.0836,-0.0038,-0.0416,-0.0210,0.0167,0.9994,-0.0966,0.6037,0.1010,-0.6081,0.8627,0.2400,0.1321,0.8627,0.2400,0.1321,0.3000,0.0600,0.0002,0,-4.9083,-256.2000,-0.5040,-4.9083,-256.2000,-0.5040,27.3552,36.6024,0.0200,0.2700,0.0000,0.0000,0.0000,0.0000,0.0000,0.0000
33.9631,30.9876,9.6800,-0.0829,0.0000,0.1200,1.6200,0.6400,0.0000,-0.3521,-0.2534,0.0022,996,1502,1527,1502,2008,1000,1505,1000,1000,1003,1005,1013,1014,0.0997,0.0185,-0.0061,-0.0191,0.0158,0.9973,-0.0966,0.6033,0.1009,-0.6076,0.8627,0.2400,0.1321,0.8627,0.2400,0.1321,0.3000,0.0600,0.0002,0,-4.9083,-256.2000,-0.5040,-4.9083,-256.2000,-0.5040,27.3253,36.5738,0.0200,0.2700,0.0000,0.0000,0.0000,0.0000,0.0000,0.0000
33.9292,30.9649,9.6615,0.0000,0.0000,0.1200,1.6200,0.6400,0.0000,-0.3517,-0.2532,0.0022,996,1502,1527,1502,2008,1000,1505,1000,1000,1003,1005,1013,1014,0.0522,-0.0043,-0.0234,-0.0177,0.0174,0.9971,-0.0964,0.6027,0.1008,-0.6071,0.8627,0.2400,0.1321,0.8627,0.2400,0.1321,0.3000,0.0600,0.0002,0,-4.9083,-256.2000,-0.5040,-4.9083,-256.2000,-0.5040,27.2953,36.5452,0.0200,0.2700,0.0000,0.0000,0.0000,0.0000,0.0000,0.0000
33.8951,30.9423,9.6434,-0.0829,0.0000,0.1800,1.6200,0.6400,0.0000,-0.3510,-0.2529,0.0022,996,1502,1527,1502,2008,1000,1505,1000,1000,1004,1005,1014,1014,0.1235,-0.0209,-0.0318,-0.0204,0.0153,0.9991,-0.0958,0.6017,0.1003,-0.6062,0.8627,0.2400,0.1321,0.8627,0.2400,0.1321,0.3000,0.0600,0.0002,0,-4.9280,-256.2000,-0.5060,-4.9280,-256.2000,-0.5060,27.2661,36.5167,0.0300,0.2700,0.0000,0.0000,0.0000,0.0000,0.0000,0.0000
33.8611,30.9197,9.6250,-0.0829,0.0000,0.1200,1.6200,0.6400,0.0000,-0.3512,-0.2527,0.0024,996,1502,1527,1502,2008,1000,1505,1000,1000,1003,1005,1014,1014,0.0730,-0.0330,-0.0714,-0.0214,0.0173,1.0012,-0.0961,0.6015,0.1009,-0.6063,0.8627,0.2400,0.1321,0.8627,0.2400,0.1321,0.3000,0.0600,0.0002,0,-4.9083,-256.2000,-0.5060,-4.9083,-256.2000,-0.5060,27.2361,36.4883,0.0200,0.2700,0.0000,0.0000,0.0000,0.0000,0.0000,0.0000
33.8269,30.8980,9.6067,0.0000,0.0821,0.1200,1.6200,0.6400,0.0000,-0.3509,-0.2527,0.0025,996,1502,1527,1502,2008,1000,1505,1000,1000,1003,1005,1014,1014,0.0663,0.0988,-0.1240,-0.0220,0.0140,1.0014,-0.0957,0.6011,0.1007,-0.6061,0.8627,0.2400,0.1321,0.8627,0.2400,0.1321,0.3000,0.0600,0.0002,0,-4.9083,-256.2000,-0.5060,-4.9083,-256.2000,-0.5060,27.2060,36.4604,0.0200,0.2700,0.0000,0.0000,0.0000,0.0000,0.0000,0.0000
33.7927,30.8762,9.5887,0.0000,0.0000,0.1200,1.6200,0.6400,0.0000,-0.3506,-0.2524,0.0023,996,1502,1527,1502,2008,1000,1505,1000,1000,1004,1005,1013,1014,0.0445,0.0320,-0.0348,-0.0185,0.0152,0.9994,-0.0959,0.6007,0.1004,-0.6052,0.8627,0.2400,0.1321,0.8627,0.2400,0.1321,0.3000,0.0600,0.0002,0,-4.9280,-256.2000,-0.5040,-4.9280,-256.2000,-0.5040,27.1765,36.4322,0.0200,0.2700,0.0000,0.0000,0.0000,0.0000,0.0000,0.0000
33.7590,30.8540,9.5710,-0.1657,-0.0821,0.1200,1.6200,0.6400,0.0000,-0.3503,-0.2522,0.0019,996,1502,1527,1502,2008,1000,1505,1000,1000,1004,1005,1013,1014,0.0932,0.0335,0.0771,-0.0190,0.0152,0.9944,-0.0962,0.6007,0.1000,-0.6045,0.8627,0.2400,0.1321,0.8627,0.2400,0.1321,0.3000,0.0600,0.0002,0,-4.9280,-256.2000,-0.5040,-4.9280,-256.2000,-0.5040,27.1472,36.4037,0.0200,0.2700,0.0000,0.0000,0.0000,0.0000,0.0000,0.0000
33.7253,30.8310,9.5537,0.0000,0.0000,0.1200,1.6200,0.6400,0.0000,-0.3499,-0.2521,0.0021,996,1502,1527,1502,2008,1000,1505,1000,1000,1004,1005,1013,1014,0.0193,0.0598,0.0052,-0.0203,0.0160,0.9998,-0.0957,0.5999,0.1000,-0.6041,0.8627,0.2400,0.1321,0.8627,0.2400,0.1321,0.3000,0.0600,0.0002,0,-4.9280,-256.2000,-0.5040,-4.9280,-256.2000,-0.5040,27.1171,36.3752,0.0200,0.2700,0.0000,0.0000,0.0000,0.0000,0.0000,0.0000
33.6909,30.8085,9.5355,-0.1657,-0.0821,0.1800,1.6200,0.6400,0.0000,-0.3492,-0.2518,0.0023,996,1502,1527,1502,2008,1000,1505,1000,1000,1003,1005,1013,1014,0.0526,-0.0054,-0.0586,-0.0198,0.0147,1.0027,-0.0950,0.5986,0.0997,-0.6033,0.8627,0.2400,0.1321,0.8627,0.2400,0.1321,0.3000,0.0600,0.0002,0,-4.9083,-256.2000,-0.5040,-4.9083,-256.2000,-0.5040,27.0870,36.3463,0.0300,0.2700,0.0000,0.0000,0.0000,0.0000,0.0000,0.0000
33.6569,30.7861,9.5173,0.0000,0.0000,0.1200,1.6200,0.6400,0.0000,-0.3495,-0.2515,0.0023,996,1502,1527,1502,2008,1000,1505,1000,1000,1003,1005,1013,1014,0.1104,-0.0594,-0.0503,-0.0173,0.0174,0.9959,-0.0956,0.5987,0.1002,-0.6033,0.8627,0.2400,0.1321,0.8627,0.2400,0.1321,0.3000,0.0600,0.0002,0,-4.9083,-256.2000,-0.5040,-4.9083,-256.2000,-0.5040,27.0574,36.3171,0.0200,0.2700,0.0000,0.0000,0.0000,0.0000,0.0000,0.0000
33.6235,30.7631,9.4998,-0.1657,-0.0821,0.1200,1.6200,0.6400,0.0000,-0.3492,-0.2514,0.0020,996,1502,1527,1502,2008,1000,1505,1000,1000,1004,1005,1014,1014,0.1282,0.0083,0.0362,-0.0219,0.0147,0.9967,-0.0957,0.5986,0.0998,-0.6027,0.8627,0.2400,0.1321,0.8627,0.2400,0.1321,0.3000,0.0600,0.0002,0,-4.9280,-256.2000,-0.5060,-4.9280,-256.2000,-0.5060,27.0277,36.2881,0.0200,0.2700,0.0000,0.0000,0.0000,0.0000,0.0000,0.0000
33.5898,30.7402,9.4816,-0.0829,0.0000,0.1200,1.6200,0.6400,0.0000,-0.3488,-0.2511,0.0022,996,1502,1527,1502,2008,1000,1505,1000,1000,1004,1005,1014,1014,0.0604,-0.0591,-0.0143,-0.0209,0.0137,0.9968,-0.0955,0.5978,0.0999,-0.6022,0.8627,0.2400,0.1321,0.8627,0.2400,0.1321,0.3000,0.0600,0.0002,0,-4.9280,-256.2000,-0.5060,-4.9280,-256.2000,-0.5060,26.9978,36.2594,0.0200,0.2700,0.0000,0.0000,0.0000,0.0000,0.0000,0.0000
33.5562,30.7179,9.4639,-0.0829,0.0821,0.1200,1.6200,0.6400,0.0000,-0.3486,-0.2511,0.0024,996,1502,1527,1502,2008,1000,1505,1000,1000,1003,1005,1013,1014,0.1233,0.0864,-0.0491,-0.0194,0.0142,0.9978,-0.0951,0.5974,0.0998,-0.6021,0.8627,0.2400,0.1321,0.8627,0.2400,0.1321,0.3000,0.0600,0.0002,0,-4.9083,-256.2000,-0.5040,-4.9083,-256.2000,-0.5040,26.9674,36.2308,0.0200,0.2700,0.0000,0.0000,0.0000,0.0000,0.0000,0.0000
33.5222,30.6962,9.4456,-0.0829,0.0821,0.1200,1.6200,0.6400,0.0000,-0.3482,-0.2508,0.0022,996,1502,1527,1502,2008,1000,1505,1000,1000,1003,1005,1013,1014,0.0673,-0.0084,-0.0286,-0.0211,0.0152,0.9937,-0.0952,0.5968,0.0997,-0.6013,0.8627,0.2400,0.1321,0.8627,0.2400,0.1321,0.3000,0.0600,0.0002,0,-4.9083,-256.2000,-0.5040,-4.9083,-256.2000,-0.5040,26.9372,36.2020,0.0200,0.2700,0.0000,0.0000,0.0000,0.0000,0.0000,0.0000
33.4884,30.6736,9.4277,0.0000,0.0000,0.1800,1.6200,0.6400,0.0000,-0.3475,-0.2506,0.0022,996,1502,1527,1502,2008,1000,1505,1000,1000,1004,1005,1013,1014,0.0888,-0.0111,-0.0305,-0.0200,0.0147,0.9964,-0.0946,0.5959,0.0991,-0.6003,0.8627,0.2400,0.1321,0.8627,0.2400,0.1321,0.3000,0.0600,0.0002,0,-4.9280,-256.2000,-0.5040,-4.9280,-256.2000,-0.5040,26.9077,36.1735,0.0300,0.2700,0.0000,0.0000,0.0000,0.0000,0.0000,0.0000
33.4551,30.6509,9.4102,-0.0829,0.0000,0.1200,1.6200,0.6400,0.0000,-0.3477,-0.2504,0.0023,996,1502,1527,1502,2008,1000,1505,1000,1000,1004,1005,1013,1014,0.1223,0.0003,-0.0141,-0.0158,0.0137,0.9989,-0.0950,0.5959,0.0996,-0.6005,0.8627,0.2400,0.1321,0.8627,0.2400,0.1321,0.3000,0.0600,0.0002,0,-4.9280,-256.2000,-0.5040,-4.9280,-256.2000,-0.5040,26.8779,36.1448,0.0200,0.2700,0.0000,0.0000,0.0000,0.0000,0.0000,0.0000
33.4212,30.6276,9.3919,-0.0829,0.0000,0.1200,1.6200,0.6400,0.0000,-0.3474,-0.2502,0.0023,996,1502,1527,1502,2008,1000,1505,1000,1000,1004,1005,1013,1014,0.0984,-0.0201,-0.0438,-0.0212,0.0130,0.9998,-0.0949,0.5953,0.0995,-0.6000,0.8627,0.2400,0.1321,0.8627,0.2400,0.1321,0.3000,0.0600,0.0002,0,-4.9280,-256.2000,-0.5040,-4.9280,-256.2000,-0.5040,26.8491,36.1164,0.0200,0.2700,0.0000,0.0000,0.0000,0.0000,0.0000,0.0000
33.3874,30.6049,9.3736,0.0000,0.0000,0.1200,1.6200,0.6400,0.0000,-0.3472,-0.2500,0.0024,996,1502,1527,1502,2008,1000,1505,1000,1000,1003,1005,1013,1014,0.1594,-0.0064,-0.0818,-0.0201,0.0166,1.0004,-0.0947,0.5948,0.0996,-0.5997,0.8627,0.2400,0.1321,0.8627,0.2400,0.1321,0.3000,0.0600,0.0002,0,-4.9083,-256.2000,-0.5040,-4.9083,-256.2000,-0.5040,26.8202,36.0876,0.0200,0.2700,0.0000,0.0000,0.0000,0.0000,0.0000,0.0000
33.3538,30.5825,9.3551,0.0000,0.0000,0.1200,1.6200,0.6400,0.0000,-0.3469,-0.2498,0.0024,996,1502,1527,1502,2008,1000,1505,1000,1000,1003,1005,1013,1014,0.1441,-0.0214,-0.0617,-0.0191,0.0156,0.9964,-0.0947,0.5944,0.0994,-0.5991,0.8627,0.2400,0.1321,0.8627,0.2400,0.1321,0.3000,0.0600,0.0002,0,-4.9083,-256.2000,-0.5040,-4.9083,-256.2000,-0.5040,26.7910,36.0588,0.0200,0.2700,0.0000,0.0000,0.0000,0.0000,0.0000,0.0000
33.3203,30.5601,9.3368,-0.0829,0.0000,0.1200,1.6200,0.6400,0.0000,-0.3466,-0.2496,0.0024,996,1502,1527,1502,2008,1000,1505,1000,1000,1003,1005,1013,1014,0.1465,-0.0231,-0.0662,-0.0168,0.0150,0.9978,-0.0946,0.5939,0.0994,-0.5986,0.8627,0.2400,0.1321,0.8627,0.2400,0.1321,0.3000,0.0600,0.0002,0,-4.9083,-256.2000,-0.5040,-4.9083,-256.2000,-0.5040,26.7620,36.0303,0.0200,0.2700,0.0000,0.0000,0.0000,0.0000,0.0000,0.0000
33.2866,30.5369,9.3184,0.0000,0.0000,0.1800,1.6200,0.6400,0.0000,-0.3457,-0.2493,0.0022,996,1502,1527,1502,2008,1000,1505,1000,1000,1003,1005,1013,1014,0.0989,-0.1334,-0.0108,-0.0170,0.0147,0.9983,-0.0942,0.5928,0.0987,-0.5973,0.8627,0.2400,0.1321,0.8627,0.2400,0.1321,0.3000,0.0600,0.0002,0,-4.9083,-256.2000,-0.5040,-4.9083,-256.2000,-0.5040,26.7329,36.0015,0.0300,0.2700,0.0000,0.0000,0.0000,0.0000,0.0000,0.0000
33.2527,30.5134,9.2999,0.0000,0.0000,0.1200,1.6200,0.6400,0.0000,-0.3460,-0.2492,0.0025,996,1502,1527,1502,2008,1000,1505,1000,1000,1003,1005,1013,1014,0.1542,-0.0634,-0.0912,-0.0175,0.0179,0.9970,-0.0944,0.5927,0.0994,-0.5977,0.8627,0.2400,0.1321,0.8627,0.2400,0.1321,0.3000,0.0600,0.0002,0,-4.9083,-256.2000,-0.5040,-4.9083,-256.2000,-0.5040,26.7046,35.9719,0.0200,0.2700,0.0000,0.0000,0.0000,0.0000,0.0000,0.0000
33.2186,30.4906,9.2812,0.0000,0.0000,0.1200,1.6200,0.6400,0.0000,-0.3456,-0.2490,0.0025,996,1502,1527,1502,2008,1000,1505,1000,1000,1003,1005,1013,1014,0.0775,-0.0488,-0.1064,-0.0205,0.0167,0.9983,-0.0941,0.5921,0.0992,-0.5972,0.8627,0.2400,0.1321,0.8627,0.2400,0.1321,0.3000,0.0600,0.0002,0,-4.9083,-256.2000,-0.5040,-4.9083,-256.2000,-0.5040,26.6755,35.9429,0.0200,0.2700,0.0000,0.0000,0.0000,0.0000,0.0000,0.0000
33.1843,30.4674,9.2628,-0.0829,-0.0821,0.1200,1.6200,0.6400,0.0000,-0.3454,-0.2489,0.0022,996,1502,1527,1502,2008,1000,1505,1000,1000,1003,1005,1013,1014,0.0891,-0.0048,-0.0090,-0.0216,0.0166,0.9993,-0.0943,0.5920,0.0987,-0.5964,0.8627,0.2400,0.1321,0.8627,0.2400,0.1321,0.3000,0.0600,0.0002,0,-4.9083,-256.2000,-0.5040,-4.9083,-256.2000,-0.5040,26.6456,35.9144,0.0200,0.2700,0.0000,0.0000,0.0000,0.0000,0.0000,0.0000
33.1506,30.4445,9.2448,-0.0829,0.0000,0.1200,1.6200,0.6400,0.0000,-0.3451,-0.2486,0.0025,996,1502,1527,1502,2008,1000,1505,1000,1000,1004,1005,1014,1014,0.1075,-0.0680,-0.0715,-0.0195,0.0143,0.9984,-0.0941,0.5912,0.0990,-0.5961,0.8627,0.2400,0.1321,0.8627,0.2400,0.1321,0.3000,0.0600,0.0002,0,-4.9280,-256.2000,-0.5060,-4.9280,-256.2000,-0.5060,26.6167,35.8860,0.0200,0.2700,0.0000,0.0000,0.0000,0.0000,0.0000,0.0000
33.1168,30.4212,9.2267,-0.0829,0.0000,0.1200,1.6200,0.6400,0.0000,-0.3448,-0.2484,0.0024,996,1502,1527,1502,2008,1000,1505,1000,1000,1004,1005,1014,1014,0.0859,-0.0789,-0.0485,-0.0198,0.0162,0.9978,-0.0940,0.5907,0.0988,-0.5955,0.8627,0.2400,0.1321,0.8627,0.2400,0.1321,0.3000,0.0600,0.0002,0,-4.9280,-256.2000,-0.5060,-4.9280,-256.2000,-0.5060,26.5880,35.8576,0.0200,0.2700,0.0000,0.0000,0.0000,0.0000,0.0000,0.0000
33.0831,30.3983,9.2092,0.0000,0.0000,0.1800,1.6200,0.6400,0.0000,-0.3439,-0.2483,0.0023,996,1502,1527,1502,2008,1000,1505,1000,1000,1003,1005,1013,1014,0.0716,0.0113,0.0008,-0.0179,0.0160,0.9977,-0.0934,0.5900,0.0979,-0.5945,0.8627,0.2400,0.1321,0.8627,0.2400,0.1321,0.3000,0.0600,0.0002,0,-4.9083,-256.2000,-0.5040,-4.9083,-256.2000,-0.5040,26.5587,35.8284,0.0300,0.2700,0.0000,0.0000,0.0000,0.0000,0.0000,0.0000
33.0490,30.3750,9.1916,-0.0829,-0.0821,0.1200,1.6200,0.6400,0.0000,-0.3441,-0.2480,0.0023,996,1502,1527,1502,2008,1000,1505,1000,1000,1003,1005,1014,1014,0.0543,-0.0492,-0.0218,-0.0197,0.0136,0.9935,-0.0938,0.5898,0.0985,-0.5945,0.8627,0.2400,0.1321,0.8627,0.2400,0.1321,0.3000,0.0600,0.0002,0,-4.9083,-256.2000,-0.5060,-4.9083,-256.2000,-0.5060,26.5298,35.7991,0.0200,0.2700,0.0000,0.0000,0.0000,0.0000,0.0000,0.0000
33.0149,30.3522,9.1736,0.0000,0.0000,0.1200,1.6200,0.6400,0.0000,-0.3439,-0.2479,0.0023,996,1502,1527,1502,2008,1000,1505,1000,1000,1003,1005,1014,1014,0.0766,0.0078,-0.0297,-0.0178,0.0148,0.9977,-0.0937,0.5895,0.0983,-0.5941,0.8627,0.2400,0.1321,0.8627,0.2400,0.1321,0.3000,0.0600,0.0002,0,-4.9083,-256.2000,-0.5060,-4.9083,-256.2000,-0.5060,26.5000,35.7699,0.0200,0.2700,0.0000,0.0000,0.0000,0.0000,0.0000,0.0000
32.9808,30.3294,9.1557,-0.1657,-0.1642,0.1200,1.6200,0.6400,0.0000,-0.3436,-0.2477,0.0021,996,1502,1527,1502,2008,1000,1505,1000,1000,1003,1005,1013,1014,0.0782,-0.0167,0.0221,-0.0206,0.0184,0.9991,-0.0938,0.5891,0.0981,-0.5934,0.8627,0.2400,0.1321,0.8627,0.2400,0.1321,0.3000,0.0600,0.0002,0,-4.9083,-256.2000,-0.5040,-4.9083,-256.2000,-0.5040,26.4712,35.7409,0.0200,0.2700,0.0000,0.0000,0.0000,0.0000,0.0000,0.0000
32.9473,30.3059,9.1388,0.0000,0.0000,0.1200,1.6200,0.6400,0.0000,-0.3433,-0.2474,0.0023,996,1502,1527,1502,2008,1000,1505,1000,1000,1003,1005,1013,1014,0.0692,-0.0234,0.0074,-0.0201,0.0176,0.9976,-0.0936,0.5884,0.0981,-0.5930,0.8627,0.2400,0.1321,0.8627,0.2400,0.1321,0.3000,0.0600,0.0002,0,-4.9083,-256.2000,-0.5040,-4.9083,-256.2000,-0.5040,26.4422,35.7118,0.0200,0.2700,0.0000,0.0000,0.0000,0.0000,0.0000,0.0000
32.9132,30.2826,9.1206,-0.0829,-0.0821,0.1200,1.6200,0.6400,0.0000,-0.3430,-0.2473,0.0022,996,1502,1527,1502,2008,1000,1505,1000,1000,1003,1005,1013,1014,0.1004,0.0099,-0.0045,-0.0191,0.0116,0.9970,-0.0935,0.5881,0.0980,-0.5925,0.8627,0.2400,0.1321,0.8627,0.2400,0.1321,0.3000,0.0600,0.0002,0,-4.9083,-256.2000,-0.5040,-4.9083,-256.2000,-0.5040,26.4133,35.6824,0.0200,0.2700,0.0000,0.0000,0.0000,0.0000,0.0000,0.0000
32.8794,30.2605,9.1031,0.0000,0.0000,0.1800,1.6200,0.6400,0.0000,-0.3422,-0.2471,0.0026,996,1502,1527,1502,2008,1000,1505,1000,1000,1003,1005,1013,1014,0.0541,0.0216,-0.0931,-0.0197,0.0146,0.9998,-0.0925,0.5867,0.0976,-0.5918,0.8627,0.2400,0.1321,0.8627,0.2400,0.1321,0.3000,0.0600,0.0002,0,-4.9083,-256.2000,-0.5040,-4.9083,-256.2000,-0.5040,26.3843,35.6534,0.0300,0.2700,0.0000,0.0000,0.0000,0.0000,0.0000,0.0000
32.8456,30.2379,9.0856,0.0000,0.0000,0.1200,1.6200,0.6400,0.0000,-0.3424,-0.2469,0.0021,996,1502,1527,1502,2008,1000,1505,1000,1000,1003,1005,1013,1014,0.0819,-0.0026,0.0388,-0.0180,0.0152,0.9983,-0.0934,0.5872,0.0977,-0.5915,0.8627,0.2400,0.1321,0.8627,0.2400,0.1321,0.3000,0.0600,0.0002,0,-4.9083,-256.2000,-0.5040,-4.9083,-256.2000,-0.5040,26.3555,35.6242,0.0200,0.2700,0.0000,0.0000,0.0000,0.0000,0.0000,0.0000
32.8123,30.2147,9.0686,0.0000,0.0000,0.1200,1.6200,0.6400,0.0000,-0.3421,-0.2467,0.0023,996,1502,1527,1502,2008,1000,1505,1000,1000,1004,1005,1013,1014,0.0769,-0.0135,-0.0233,-0.0198,0.0150,1.0011,-0.0931,0.5865,0.0978,-0.5911,0.8627,0.2400,0.1321,0.8627,0.2400,0.1321,0.3000,0.0600,0.0002,0,-4.9280,-256.2000,-0.5040,-4.9280,-256.2000,-0.5040,26.3256,35.5956,0.0200,0.2700,0.0000,0.0000,0.0000,0.0000,0.0000,0.0000
32.7789,30.1921,9.0511,0.0000,0.0000,0.1200,1.6200,0.6400,0.0000,-0.3419,-0.2465,0.0022,996,1502,1527,1502,2008,1000,1505,1000,1000,1004,1005,1013,1014,0.1076,-0.0124,0.0151,-0.0199,0.0149,0.9943,-0.0932,0.5862,0.0976,-0.5906,0.8627,0.2400,0.1321,0.8627,0.2400,0.1321,0.3000,0.0600,0.0002,0,-4.9280,-256.2000,-0.5040,-4.9280,-256.2000,-0.5040,26.2961,35.5670,0.0200,0.2700,0.0000,0.0000,0.0000,0.0000,0.0000,0.0000
32.7450,30.1691,9.0334,0.0000,0.0821,0.1200,1.6200,0.6400,0.0000,-0.3415,-0.2463,0.0024,996,1502,1527,1502,2008,1000,1505,1000,1000,1004,1005,1013,1014,0.0554,0.0003,-0.0503,-0.0176,0.0155,0.9983,-0.0928,0.5854,0.0976,-0.5902,0.8627,0.2400,0.1321,0.8627,0.2400,0.1321,0.3000,0.0600,0.0002,0,-4.9280,-256.2000,-0.5040,-4.9280,-256.2000,-0.5040,26.2671,35.5380,0.0200,0.2700,0.0000,0.0000,0.0000,0.0000,0.0000,0.0000
32.7113,30.1459,9.0159,0.0000,0.0000,0.1200,1.6200,0.6400,0.0000,-0.3413,-0.2460,0.0023,996,1502,1527,1502,2008,1000,1505,1000,1000,1004,1005,1013,1014,0.1304,-0.0611,-0.0163,-0.0199,0.0153,0.9953,-0.0930,0.5850,0.0977,-0.5897,0.8627,0.2400,0.1321,0.8627,0.2400,0.1321,0.3000,0.0600,0.0002,0,-4.9280,-256.2000,-0.5040,-4.9280,-256.2000,-0.5040,26.2385,35.5088,0.0200,0.2700,0.0000,0.0000,0.0000,0.0000,0.0000,0.0000
32.6779,30.1226,8.9977,-0.0829,0.0000,0.1800,1.6200,0.6400,0.0000,-0.3405,-0.2458,0.0025,996,1502,1527,1502,2008,1000,1505,1000,1000,1003,1005,1014,1014,0.1344,-0.0419,-0.0857,-0.0210,0.0164,0.9987,-0.0922,0.5838,0.0972,-0.5889,0.8627,0.2400,0.1321,0.8627,0.2400,0.1321,0.3000,0.0600,0.0002,0,-4.9083,-256.2000,-0.5060,-4.9083,-256.2000,-0.5060,26.2097,35.4798,0.0300,0.2700,0.0000,0.0000,0.0000,0.0000,0.0000,0.0000
32.6446,30.0998,8.9802,-0.0829,0.0000,0.1200,1.6200,0.6400,0.0000,-0.3407,-0.2458,0.0024,996,1502,1527,1502,2008,1000,1505,1000,1000,1004,1005,1013,1014,0.0978,0.0647,-0.0334,-0.0193,0.0138,0.9982,-0.0926,0.5841,0.0973,-0.5889,0.8627,0.2400,0.1321,0.8627,0.2400,0.1321,0.3000,0.0600,0.0002,0,-4.9280,-256.2000,-0.5040,-4.9280,-256.2000,-0.5040,26.1796,35.4508,0.0200,0.2700,0.0000,0.0000,0.0000,0.0000,0.0000,0.0000
32.6110,30.0774,8.9627,-0.0829,0.0000,0.1200,1.6200,0.6400,0.0000,-0.3404,-0.2455,0.0025,996,1502,1527,1502,2008,1000,1505,1000,1000,1004,1005,1013,1014,0.1011,-0.0087,-0.0589,-0.0202,0.0160,0.9983,-0.0925,0.5835,0.0974,-0.5884,0.8627,0.2400,0.1321,0.8627,0.2400,0.1321,0.3000,0.0600,0.0002,0,-4.9280,-256.2000,-0.5040,-4.9280,-256.2000,-0.5040,26.1498,35.4211,0.0200,0.2700,0.0000,0.0000,0.0000,0.0000,0.0000,0.0000
32.5771,30.0543,8.9447,-0.0829,0.0000,0.1200,1.6200,0.6400,0.0000,-0.3401,-0.2453,0.0025,996,1502,1527,1502,2008,1000,1505,1000,1000,1003,1005,1013,1014,0.0904,0.0118,-0.0607,-0.0205,0.0140,0.9963,-0.0923,0.5830,0.0973,-0.5879,0.8627,0.2400,0.1321,0.8627,0.2400,0.1321,0.3000,0.0600,0.0002,0,-4.9083,-256.2000,-0.5040,-4.9083,-256.2000,-0.5040,26.1203,35.3923,0.0200,0.2700,0.0000,0.0000,0.0000,0.0000,0.0000,0.0000
32.5436,30.0312,8.9272,0.0000,0.0821,0.1200,1.6200,0.6400,0.0000,-0.3398,-0.2451,0.0023,996,1502,1527,1502,2008,1000,1505,1000,1000,1003,1005,1013,1014,0.0952,-0.0082,-0.0146,-0.0202,0.0159,0.9970,-0.0924,0.5826,0.0971,-0.5873,0.8627,0.2400,0.1321,0.8627,0.2400,0.1321,0.3000,0.0600,0.0002,0,-4.9083,-256.2000,-0.5040,-4.9083,-256.2000,-0.5040,26.0914,35.3627,0.0200,0.2700,0.0000,0.0000,0.0000,0.0000,0.0000,0.0000
32.5102,30.0078,8.9099,0.0000,0.0000,0.1200,1.6200,0.6400,0.0000,-0.3396,-0.2449,0.0024,996,1502,1527,1502,2008,1000,1505,1000,1000,1003,1005,1013,1014,0.1112,-0.0166,-0.0324,-0.0225,0.0166,0.9960,-0.0923,0.5820,0.0971,-0.5869,0.8627,0.2400,0.1321,0.8627,0.2400,0.1321,0.3000,0.0600,0.0002,0,-4.9083,-256.2000,-0.5040,-4.9083,-256.2000,-0.5040,26.0629,35.3335,0.0200,0.2700,0.0000,0.0000,0.0000,0.0000,0.0000,0.0000
32.4771,29.9850,8.8929,0.0000,0.0000,0.1800,1.6200,0.6400,0.0000,-0.3388,-0.2448,0.0025,996,1502,1527,1502,2008,1000,1505,1000,1000,1004,1005,1013,1014,0.1049,0.0959,-0.0481,-0.0182,0.0130,1.0005,-0.0915,0.5811,0.0964,-0.5861,0.8627,0.2400,0.1321,0.8627,0.2400,0.1321,0.3000,0.0600,0.0002,0,-4.9280,-256.2000,-0.5040,-4.9280,-256.2000,-0.5040,26.0341,35.3047,0.0300,0.2700,0.0000,0.0000,0.0000,0.0000,0.0000,0.0000
32.4440,29.9620,8.8757,0.0000,0.0000,0.1200,1.6200,0.6400,0.0000,-0.3390,-0.2445,0.0024,996,1502,1527,1502,2008,1000,1505,1000,1000,1004,1005,1013,1014,0.0974,-0.0187,-0.0279,-0.0157,0.0120,0.9947,-0.0921,0.5811,0.0969,-0.5859,0.8627,0.2400,0.1321,0.8627,0.2400,0.1321,0.3000,0.0600,0.0002,0,-4.9280,-256.2000,-0.5040,-4.9280,-256.2000,-0.5040,26.0050,35.2754,0.0200,0.2700,0.0000,0.0000,0.0000,0.0000,0.0000,0.0000
32.4102,29.9392,8.8581,-0.0829,-0.0821,0.1200,1.6200,0.6400,0.0000,-0.3386,-0.2444,0.0024,996,1502,1527,1502,2008,1000,1505,1000,1000,1003,1005,1013,1014,0.0547,0.0491,-0.0624,-0.0180,0.0161,0.9977,-0.0918,0.5806,0.0967,-0.5855,0.8627,0.2400,0.1321,0.8627,0.2400,0.1321,0.3000,0.0600,0.0002,0,-4.9083,-256.2000,-0.5040,-4.9083,-256.2000,-0.5040,25.9761,35.2462,0.0200,0.2700,0.0000,0.0000,0.0000,0.0000,0.0000,0.0000
32.3762,29.9166,8.8401,-0.0829,0.0000,0.1200,1.6200,0.6400,0.0000,-0.3384,-0.2442,0.0024,996,1502,1527,1502,2008,1000,1505,1000,1000,1003,1005,1013,1014,0.1006,0.0528,-0.0542,-0.0192,0.0127,0.9961,-0.0918,0.5802,0.0966,-0.5850,0.8627,0.2400,0.1321,0.8627,0.2400,0.1321,0.3000,0.0600,0.0002,0,-4.9083,-256.2000,-0.5040,-4.9083,-256.2000,-0.5040,25.9466,35.2165,0.0200,0.2700,0.0000,0.0000,0.0000,0.0000,0.0000,0.0000
32.3430,29.8938,8.8233,-0.2486,-0.1642,0.1200,1.6200,0.6400,0.0000,-0.3381,-0.2440,0.0023,996,1502,1527,1502,2008,1000,1505,1000,1000,1003,1005,1014,1014,0.1130,0.0524,0.0161,-0.0199,0.0160,0.9955,-0.0919,0.5798,0.0964,-0.5844,0.8627,0.2400,0.1321,0.8627,0.2400,0.1321,0.3000,0.0600,0.0002,0,-4.9083,-256.2000,-0.5060,-4.9083,-256.2000,-0.5060,25.9178,35.1868,0.0200,0.2700,0.0000,0.0000,0.0000,0.0000,0.0000,0.0000
32.3096,29.8705,8.8066,0.0000,0.0000,0.1200,1.6200,0.6400,0.0000,-0.3378,-0.2438,0.0023,996,1502,1527,1502,2008,1000,1505,1000,1000,1003,1005,1014,1014,0.0389,0.0445,0.0081,-0.0182,0.0152,0.9976,-0.0917,0.5792,0.0963,-0.5838,0.8627,0.2400,0.1321,0.8627,0.2400,0.1321,0.3000,0.0600,0.0002,0,-4.9083,-256.2000,-0.5060,-4.9083,-256.2000,-0.5060,25.8884,35.1579,0.0200,0.2700,0.0000,0.0000,0.0000,0.0000,0.0000,0.0000
32.2769,29.8479,8.7899,-0.1657,-0.0821,0.2400,1.6800,0.6400,0.0000,-0.3365,-0.2429,0.0024,997,1503,1527,1502,2008,1000,1505,1000,1000,1003,1005,1013,1014,0.0849,-0.0457,-0.0146,-0.0202,0.0138,0.9977,-0.0912,0.5771,0.0959,-0.5818,0.8627,0.2400,0.1321,0.8627,0.2400,0.1321,0.3000,0.0600,0.0002,0,-4.9083,-256.2000,-0.5040,-4.9083,-256.2000,-0.5040,25.8599,35.1295,0.0400,0.2800,0.0000,0.0000,0.0000,0.0000,0.0000,0.0000
32.2432,29.8245,8.7721,0.0000,0.0000,0.1200,1.6200,0.6400,0.0000,-0.3373,-0.2433,0.0024,996,1502,1527,1502,2008,1000,1505,1000,1000,1004,1005,1013,1014,0.1006,-0.0182,-0.0343,-0.0185,0.0146,0.9927,-0.0915,0.5781,0.0964,-0.5830,0.8627,0.2400,0.1321,0.8627,0.2400,0.1321,0.3000,0.0600,0.0002,0,-4.9280,-256.2000,-0.5040,-4.9280,-256.2000,-0.5040,25.8309,35.0997,0.0200,0.2700,0.0000,0.0000,0.0000,0.0000,0.0000,0.0000
32.2098,29.8012,8.7545,-0.0829,0.0000,0.1200,1.6200,0.6400,0.0000,-0.3370,-0.2432,0.0023,996,1502,1527,1502,2008,1000,1505,1000,1000,1004,1005,1013,1014,0.1468,0.0528,-0.0117,-0.0182,0.0139,0.9971,-0.0915,0.5779,0.0962,-0.5825,0.8627,0.2400,0.1321,0.8627,0.2400,0.1321,0.3000,0.0600,0.0002,0,-4.9280,-256.2000,-0.5040,-4.9280,-256.2000,-0.5040,25.8018,35.0701,0.0200,0.2700,0.0000,0.0000,0.0000,0.0000,0.0000,0.0000
32.1768,29.7781,8.7376,-0.0829,0.0000,0.1200,1.6200,0.6400,0.0000,-0.3366,-0.2430,0.0022,996,1502,1527,1502,2008,1000,1505,1000,1000,1003,1005,1013,1014,0.0709,0.0806,0.0250,-0.0141,0.0132,1.0016,-0.0914,0.5774,0.0959,-0.5819,0.8627,0.2400,0.1321,0.8627,0.2400,0.1321,0.3000,0.0600,0.0002,0,-4.9083,-256.2000,-0.5040,-4.9083,-256.2000,-0.5040,25.7724,35.0409,0.0200,0.2700,0.0000,0.0000,0.0000,0.0000,0.0000,0.0000
32.1430,29.7551,8.7202,-0.0829,0.0000,0.1200,1.6200,0.6400,0.0000,-0.3364,-0.2427,0.0027,996,1502,1527,1502,2008,1000,1505,1000,1000,1003,1005,1013,1014,0.0800,-0.0103,-0.0921,-0.0201,0.0158,0.9997,-0.0910,0.5764,0.0963,-0.5817,0.8627,0.2400,0.1321,0.8627,0.2400,0.1321,0.3000,0.0600,0.0002,0,-4.9083,-256.2000,-0.5040,-4.9083,-256.2000,-0.5040,25.7435,35.0114,0.0200,0.2700,0.0000,0.0000,0.0000,0.0000,0.0000,0.0000
32.1091,29.7323,8.7022,0.0000,0.0000,0.1200,1.6200,0.6400,0.0000,-0.3361,-0.2426,0.0024,996,1502,1527,1502,2008,1000,1505,1000,1000,1004,1005,1014,1014,0.0879,0.0286,-0.0272,-0.0204,0.0117,0.9968,-0.0911,0.5762,0.0960,-0.5811,0.8627,0.2400,0.1321,0.8627,0.2400,0.1321,0.3000,0.0600,0.0002,0,-4.9280,-256.2000,-0.5060,-4.9280,-256.2000,-0.5060,25.7153,34.9820,0.0200,0.2700,0.0000,0.0000,0.0000,0.0000,0.0000,0.0000
32.0758,29.7090,8.6850,-0.0829,0.0000,0.2400,1.6800,0.6400,0.0000,-0.3348,-0.2418,0.0024,997,1503,1527,1502,2008,1000,1505,1000,1000,1003,1005,1013,1014,0.1160,-0.0298,-0.0015,-0.0205,0.0143,1.0013,-0.0907,0.5742,0.0954,-0.5789,0.8627,0.2400,0.1321,0.8627,0.2400,0.1321,0.3000,0.0600,0.0002,0,-4.9083,-256.2000,-0.5040,-4.9083,-256.2000,-0.5040,25.6861,34.9530,0.0400,0.2800,0.0000,0.0000,0.0000,0.0000,0.0000,0.0000
32.0423,29.6856,8.6675,0.0000,0.0000,0.1200,1.6200,0.6400,0.0000,-0.3355,-0.2421,0.0025,996,1502,1527,1502,1000,1000,1505,1000,1000,1003,1005,1013,1014,0.1066,0.0131,-0.0274,-0.0191,0.0146,1.0003,-0.0909,0.5752,0.0959,-0.5801,0.8627,0.2400,0.1321,0.8627,0.2400,0.1321,0.3000,0.0600,0.0002,0,-4.9083,-256.2000,-0.5040,-4.9083,-256.2000,-0.5040,25.6574,34.9236,0.0200,0.2700,0.0000,0.0000,0.0000,0.0000,0.0000,0.0000
32.0091,29.6625,8.6503,0.0000,0.0821,0.1200,1.6200,0.6400,0.0000,-0.3353,-0.2419,0.0024,996,1502,1527,1502,1000,1000,1505,1000,1000,1003,1005,1013,1014,0.1215,0.0181,-0.0140,-0.0209,0.0127,0.9947,-0.0909,0.5748,0.0957,-0.5796,0.8627,0.2400,0.1321,0.8627,0.2400,0.1321,0.3000,0.0600,0.0002,0,-4.9083,-256.2000,-0.5040,-4.9083,-256.2000,-0.5040,25.6286,34.8940,0.0200,0.2700,0.0000,0.0000,0.0000,0.0000,0.0000,0.0000
31.9755,29.6391,8.6333,0.0000,0.0000,0.1200,1.6200,0.6400,0.0000,-0.3350,-0.2418,0.0025,996,1502,1527,1502,1000,1000,1505,1000,1000,1003,1005,1013,1014,0.1017,0.0583,-0.0294,-0.0197,0.0137,0.9972,-0.0907,0.5743,0.0956,-0.5792,0.8627,0.2400,0.1321,0.8627,0.2400,0.1321,0.3000,0.0600,0.0002,0,-4.9083,-256.2000,-0.5040,-4.9083,-256.2000,-0.5040,25.5999,34.8643,0.0200,0.2700,0.0000,0.0000,0.0000,0.0000,0.0000,0.0000
31.9417,29.6164,8.6161,0.0000,-0.0821,0.1200,1.6200,0.6400,0.0000,-0.3346,-0.2416,0.0025,996,1502,1527,1502,1000,1000,1505,1000,1000,1003,1005,1013,1014,0.0891,0.0700,-0.0532,-0.0180,0.0152,0.9982,-0.0905,0.5737,0.0956,-0.5788,0.8627,0.2400,0.1321,0.8627,0.2400,0.1321,0.3000,0.0600,0.0002,0,-4.9083,-256.2000,-0.5040,-4.9083,-256.2000,-0.5040,25.5710,34.8342,0.0200,0.2700,0.0000,0.0000,0.0000,0.0000,0.0000,0.0000
31.9079,29.5926,8.5986,0.0000,0.0000,0.1200,1.6200,0.6400,0.0000,-0.3343,-0.2412,0.0025,996,1502,1527,1502,1000,1000,1505,1000,1000,1003,1005,1013,1014,0.0745,-0.0584,-0.0236,-0.0220,0.0183,0.9983,-0.0906,0.5731,0.0956,-0.5780,0.8627,0.2400,0.1321,0.8627,0.2400,0.1321,0.3000,0.0600,0.0002,0,-4.9083,-256.2000,-0.5040,-4.9083,-256.2000,-0.5040,25.5418,34.8045,0.0200,0.2700,0.0000,0.0000,0.0000,0.0000,0.0000,0.0000
31.8747,29.5688,8.5819,0.0000,0.0000,0.2400,1.6800,0.6400,0.0000,-0.3330,-0.2406,0.0022,997,1503,1527,1502,1000,1000,1505,1000,1000,1003,1005,1013,1014,0.1012,0.0242,0.0601,-0.0223,0.0146,0.9986,-0.0902,0.5715,0.0946,-0.5759,0.8627,0.2400,0.1321,0.8627,0.2400,0.1321,0.3000,0.0600,0.0002,0,-4.9083,-256.2000,-0.5040,-4.9083,-256.2000,-0.5040,25.5125,34.7754,0.0400,0.2800,0.0000,0.0000,0.0000,0.0000,0.0000,0.0000
31.8416,29.5454,8.5654,0.0000,0.0000,0.1200,1.6200,0.6400,0.0000,-0.3338,-0.2410,0.0023,996,1502,1527,1502,1000,1000,1505,1000,1000,1004,1005,1014,1014,0.1245,0.0346,0.0194,-0.0197,0.0160,0.9997,-0.0905,0.5724,0.0952,-0.5771,0.8627,0.2400,0.1321,0.8627,0.2400,0.1321,0.3000,0.0600,0.0002,0,-4.9280,-256.2000,-0.5060,-4.9280,-256.2000,-0.5060,25.4832,34.7459,0.0200,0.2700,0.0000,0.0000,0.0000,0.0000,0.0000,0.0000
31.8080,29.5217,8.5482,-0.0829,0.0821,0.1200,1.6200,0.6400,0.0000,-0.3335,-0.2407,0.0025,996,1502,1527,1502,1000,1000,1505,1000,1000,1004,1005,1014,1014,0.0735,-0.0279,-0.0407,-0.0194,0.0152,0.9986,-0.0903,0.5716,0.0953,-0.5766,0.8627,0.2400,0.1321,0.8627,0.2400,0.1321,0.3000,0.0600,0.0002,0,-4.9280,-256.2000,-0.5060,-4.9280,-256.2000,-0.5060,25.4542,34.7162,0.0200,0.2700,0.0000,0.0000,0.0000,0.0000,0.0000,0.0000
31.7740,29.4984,8.5304,0.0000,0.0821,0.1200,1.6200,0.6400,0.0000,-0.3332,-0.2405,0.0024,996,1502,1527,1502,1000,1000,1505,1000,1000,1004,1005,1013,1014,0.0744,-0.0237,-0.0376,-0.0198,0.0157,0.9936,-0.0903,0.5712,0.0951,-0.5761,0.8627,0.2400,0.1321,0.8627,0.2400,0.1321,0.3000,0.0600,0.0002,0,-4.9280,-256.2000,-0.5040,-4.9280,-256.2000,-0.5040,25.4252,34.6863,0.0200,0.2700,0.0000,0.0000,0.0000,0.0000,0.0000,0.0000
31.7405,29.4747,8.5131,0.0000,0.0000,0.1200,1.6200,0.6400,0.0000,-0.3329,-0.2403,0.0024,996,1502,1527,1502,1000,1000,1505,1000,1000,1004,1005,1013,1014,0.0791,0.0232,-0.0406,-0.0199,0.0147,1.0031,-0.0901,0.5708,0.0950,-0.5757,0.8627,0.2400,0.1321,0.8627,0.2400,0.1321,0.3000,0.0600,0.0002,0,-4.9280,-256.2000,-0.5040,-4.9280,-256.2000,-0.5040,25.3965,34.6560,0.0200,0.2700,0.0000,0.0000,0.0000,0.0000,0.0000,0.0000
31.7069,29.4518,8.4961,-0.1657,-0.0821,0.1200,1.6200,0.6400,0.0000,-0.3326,-0.2401,0.0023,996,1502,1527,1502,1000,1000,1505,1000,1000,1003,1005,1013,1014,0.0634,-0.0005,0.0116,-0.0210,0.0145,1.0001,-0.0902,0.5704,0.0948,-0.5750,0.8627,0.2400,0.1321,0.8627,0.2400,0.1321,0.3000,0.0600,0.0002,0,-4.9083,-256.2000,-0.5040,-4.9083,-256.2000,-0.5040,25.3679,34.6263,0.0200,0.2700,0.0000,0.0000,0.0000,0.0000,0.0000,0.0000
31.6734,29.4280,8.4795,-0.0829,0.0821,0.2400,1.6800,0.6400,0.0000,-0.3312,-0.2394,0.0024,997,1503,1527,1502,1000,1000,1505,1000,1000,1004,1005,1013,1014,0.0555,-0.0224,0.0103,-0.0205,0.0128,1.0015,-0.0895,0.5682,0.0943,-0.5730,0.8627,0.2400,0.1321,0.8627,0.2400,0.1321,0.3000,0.0600,0.0002,0,-4.9280,-256.2000,-0.5040,-4.9280,-256.2000,-0.5040,25.3388,34.5968,0.0400,0.2800,0.0000,0.0000,0.0000,0.0000,0.0000,0.0000
31.6399,29.4047,8.4623,-0.2486,-0.1642,0.1200,1.6200,0.6400,0.0000,-0.3321,-0.2397,0.0027,996,1502,1527,1502,1000,1000,1505,1000,1000,1004,1005,1013,1014,0.1133,0.0261,-0.0998,-0.0167,0.0160,0.9977,-0.0896,0.5691,0.0950,-0.5745,0.8627,0.2400,0.1321,0.8627,0.2400,0.1321,0.3000,0.0600,0.0002,0,-4.9280,-256.2000,-0.5040,-4.9280,-256.2000,-0.5040,25.3096,34.5668,0.0200,0.2700,0.0000,0.0000,0.0000,0.0000,0.0000,0.0000
31.6063,29.3817,8.4447,-0.0829,0.0821,0.1200,1.6200,0.6400,0.0000,-0.3317,-0.2395,0.0024,996,1502,1527,1502,1000,1000,1505,1000,1000,1003,1005,1013,1014,0.0766,0.0111,-0.0300,-0.0154,0.0142,0.9991,-0.0898,0.5688,0.0947,-0.5737,0.8627,0.2400,0.1321,0.8627,0.2400,0.1321,0.3000,0.0600,0.0002,0,-4.9083,-256.2000,-0.5040,-4.9083,-256.2000,-0.5040,25.2807,34.5374,0.0200,0.2700,0.0000,0.0000,0.0000,0.0000,0.0000,0.0000
31.5729,29.3579,8.4275,-0.0829,0.0000,0.1200,1.6200,0.6400,0.0000,-0.3315,-0.2392,0.0024,996,1502,1527,1502,1000,1000,1505,1000,1000,1003,1005,1013,1014,0.1428,-0.0480,-0.0143,-0.0196,0.0143,0.9968,-0.0899,0.5683,0.0947,-0.5732,0.8627,0.2400,0.1321,0.8627,0.2400,0.1321,0.3000,0.0600,0.0002,0,-4.9083,-256.2000,-0.5040,-4.9083,-256.2000,-0.5040,25.2520,34.5076,0.0200,0.2700,0.0000,0.0000,0.0000,0.0000,0.0000,0.0000
31.5393,29.3342,8.4100,-0.0829,0.0000,0.1200,1.6200,0.6400,0.0000,-0.3312,-0.2391,0.0027,996,1502,1527,1502,1000,1000,1505,1000,1000,1003,1005,1014,1014,0.1001,0.0181,-0.0805,-0.0193,0.0165,1.0010,-0.0894,0.5676,0.0947,-0.5730,0.8627,0.2400,0.1321,0.8627,0.2400,0.1321,0.3000,0.0600,0.0002,0,-4.9083,-256.2000,-0.5060,-4.9083,-256.2000,-0.5060,25.2234,34.4780,0.0200,0.2700,0.0000,0.0000,0.0000,0.0000,0.0000,0.0000
31.5054,29.3110,8.3921,-0.0829,0.0000,0.1200,1.6200,0.6400,0.0000,-0.3309,-0.2388,0.0025,996,1502,1527,1502,1000,1000,1505,1000,1000,1003,1005,1014,1014,0.1063,-0.0373,-0.0275,-0.0192,0.0139,0.9964,-0.0896,0.5672,0.0946,-0.5722,0.8627,0.2400,0.1321,0.8627,0.2400,0.1321,0.3000,0.0600,0.0002,0,-4.9083,-256.2000,-0.5060,-4.9083,-256.2000,-0.5060,25.1945,34.4484,0.0200,0.2700,0.0000,0.0000,0.0000,0.0000,0.0000,0.0000
31.4713,29.2876,8.3742,0.0000,0.0000,0.2400,1.6800,0.6400,0.0000,-0.3296,-0.2381,0.0027,997,1503,1527,1502,1000,1000,1505,1000,1000,1004,1005,1013,1014,0.1636,-0.0209,-0.0916,-0.0204,0.0162,0.9987,-0.0888,0.5651,0.0942,-0.5705,0.8627,0.2400,0.1321,0.8627,0.2400,0.1321,0.3000,0.0600,0.0002,0,-4.9280,-256.2000,-0.5040,-4.9280,-256.2000,-0.5040,25.1654,34.4184,0.0400,0.2800,0.0000,0.0000,0.0000,0.0000,0.0000,0.0000
31.4378,29.2642,8.3567,0.0000,0.0000,0.1200,1.6200,0.6400,0.0000,-0.3303,-0.2385,0.0027,996,1502,1527,1502,1000,1000,1505,1000,1000,1004,1005,1014,1014,0.0735,0.0021,-0.0823,-0.0187,0.0147,0.9985,-0.0891,0.5661,0.0944,-0.5714,0.8627,0.2400,0.1321,0.8627,0.2400,0.1321,0.3000,0.0600,0.0002,0,-4.9280,-256.2000,-0.5060,-4.9280,-256.2000,-0.5060,25.1363,34.3884,0.0200,0.2700,0.0000,0.0000,0.0000,0.0000,0.0000,0.0000
31.4041,29.2399,8.3391,0.0000,0.0000,0.1200,1.6200,0.6400,0.0000,-0.3300,-0.2382,0.0025,996,1502,1527,1502,1000,1000,1505,1000,1000,1004,1005,1014,1014,0.1207,-0.0652,-0.0141,-0.0189,0.0154,0.9978,-0.0894,0.5657,0.0944,-0.5707,0.8627,0.2400,0.1321,0.8627,0.2400,0.1321,0.3000,0.0600,0.0002,0,-4.9280,-256.2000,-0.5060,-4.9280,-256.2000,-0.5060,25.1079,34.3592,0.0200,0.2700,0.0000,0.0000,0.0000,0.0000,0.0000,0.0000
31.3706,29.2152,8.3221,0.0000,0.0000,0.1200,1.6200,0.6400,0.0000,-0.3298,-0.2379,0.0022,996,1502,1527,1502,1000,1000,1505,1000,1000,1004,1005,1013,1014,0.1226,-0.0900,0.0716,-0.0162,0.0155,0.9966,-0.0896,0.5655,0.0940,-0.5699,0.8627,0.2400,0.1321,0.8627,0.2400,0.1321,0.3000,0.0600,0.0002,0,-4.9280,-256.2000,-0.5040,-4.9280,-256.2000,-0.5040,25.0790,34.3290,0.0200,0.2700,0.0000,0.0000,0.0000,0.0000,0.0000,0.0000
31.3375,29.1903,8.3053,0.0000,0.0000,0.1200,1.6200,0.6400,0.0000,-0.3295,-0.2377,0.0026,996,1502,1527,1502,1000,1000,1505,1000,1000,1004,1005,1013,1014,0.1323,-0.0877,-0.0381,-0.0200,0.0162,1.0001,-0.0892,0.5646,0.0943,-0.5698,0.8627,0.2400,0.1321,0.8627,0.2400,0.1321,0.3000,0.0600,0.0002,0,-4.9280,-256.2000,-0.5040,-4.9280,-256.2000,-0.5040,25.0494,34.2986,0.0200,0.2700,0.0000,0.0000,0.0000,0.0000,0.0000,0.0000
31.3040,29.1658,8.2876,0.0000,0.0000,0.1200,1.6200,0.6400,0.0000,-0.3291,-0.2375,0.0024,996,1502,1527,1502,1000,1000,1505,1000,1000,1003,1005,1014,1014,0.0526,-0.1026,-0.0036,-0.0213,0.0149,0.9980,-0.0892,0.5642,0.0940,-0.5690,0.8627,0.2400,0.1321,0.8627,0.2400,0.1321,0.3000,0.0600,0.0002,0,-4.9083,-256.2000,-0.5060,-4.9083,-256.2000,-0.5060,25.0198,34.2684,0.0200,0.2700,0.0000,0.0000,0.0000,0.0000,0.0000,0.0000
31.2700,29.1414,8.2700,0.0000,0.0000,0.2400,1.6800,0.6400,0.0000,-0.3278,-0.2368,0.0029,997,1503,1527,1502,1000,1000,1505,1000,1000,1003,1005,1013,1014,0.0827,-0.0454,-0.1225,-0.0176,0.0147,0.9935,-0.0881,0.5618,0.0938,-0.5675,0.8627,0.2400,0.1321,0.8627,0.2400,0.1321,0.3000,0.0600,0.0002,0,-4.9083,-256.2000,-0.5040,-4.9083,-256.2000,-0.5040,24.9907,34.2385,0.0400,0.2800,0.0000,0.0000,0.0000,0.0000,0.0000,0.0000
31.2361,29.1180,8.2522,-0.0829,0.0000,0.1200,1.6200,0.6400,0.0000,-0.3285,-0.2372,0.0026,996,1502,1527,1502,1000,1000,1505,1000,1000,1003,1005,1013,1014,0.0765,0.0038,-0.0424,-0.0161,0.0151,0.9962,-0.0887,0.5632,0.0939,-0.5684,0.8627,0.2400,0.1321,0.8627,0.2400,0.1321,0.3000,0.0600,0.0002,0,-4.9083,-256.2000,-0.5040,-4.9083,-256.2000,-0.5040,24.9621,34.2088,0.0200,0.2700,0.0000,0.0000,0.0000,0.0000,0.0000,0.0000
31.2024,29.0938,8.2353,-0.0829,0.0000,0.1200,1.6200,0.6400,0.0000,-0.3283,-0.2369,0.0024,996,1502,1527,1502,1000,1000,1505,1000,1000,1003,1005,1013,1014,0.1261,-0.0593,0.0179,-0.0203,0.0152,0.9952,-0.0890,0.5629,0.0938,-0.5676,0.8627,0.2400,0.1321,0.8627,0.2400,0.1321,0.3000,0.0600,0.0002,0,-4.9083,-256.2000,-0.5040,-4.9083,-256.2000,-0.5040,24.9336,34.1783,0.0200,0.2700,0.0000,0.0000,0.0000,0.0000,0.0000,0.0000
31.1688,29.0698,8.2186,0.0000,0.0821,0.1200,1.6200,0.6400,0.0000,-0.3280,-0.2368,0.0023,996,1502,1527,1502,1000,1000,1505,1000,1000,1003,1005,1013,1014,0.0718,-0.0202,0.0364,-0.0213,0.0148,0.9975,-0.0888,0.5624,0.0935,-0.5671,0.8627,0.2400,0.1321,0.8627,0.2400,0.1321,0.3000,0.0600,0.0002,0,-4.9083,-256.2000,-0.5040,-4.9083,-256.2000,-0.5040,24.9057,34.1478,0.0200,0.2700,0.0000,0.0000,0.0000,0.0000,0.0000,0.0000
31.1353,29.0461,8.2017,0.0000,0.0000,0.1200,1.6200,0.6400,0.0000,-0.3277,-0.2366,0.0026,996,1502,1527,1502,1000,1000,1505,1000,1000,1004,1005,1013,1014,0.0944,0.0147,-0.0536,-0.0197,0.0144,1.0058,-0.0885,0.5617,0.0937,-0.5669,0.8627,0.2400,0.1321,0.8627,0.2400,0.1321,0.3000,0.0600,0.0002,0,-4.9280,-256.2000,-0.5040,-4.9280,-256.2000,-0.5040,24.8773,34.1171,0.0200,0.2700,0.0000,0.0000,0.0000,0.0000,0.0000,0.0000
31.1016,29.0223,8.1844,0.0000,0.0821,0.1200,1.6200,0.6400,0.0000,-0.3274,-0.2363,0.0026,996,1502,1527,1502,1000,1000,1505,1000,1000,1004,1005,1013,1014,0.0846,-0.0565,-0.0476,-0.0203,0.0175,0.9999,-0.0884,0.5611,0.0937,-0.5663,0.8627,0.2400,0.1321,0.8627,0.2400,0.1321,0.3000,0.0600,0.0002,0,-4.9280,-256.2000,-0.5040,-4.9280,-256.2000,-0.5040,24.8488,34.0873,0.0200,0.2700,0.0000,0.0000,0.0000,0.0000,0.0000,0.0000
31.0682,28.9980,8.1672,0.0000,-0.0821,0.2400,1.6800,0.6400,0.0000,-0.3262,-0.2356,0.0024,997,1503,1527,1502,1000,1000,1505,1000,1000,1004,1005,1014,1014,0.1595,-0.0588,0.0154,-0.0187,0.0153,0.9987,-0.0881,0.5593,0.0930,-0.5642,0.8627,0.2400,0.1321,0.8627,0.2400,0.1321,0.3000,0.0600,0.0002,0,-4.9280,-256.2000,-0.5060,-4.9280,-256.2000,-0.5060,24.8193,34.0573,0.0400,0.2800,0.0000,0.0000,0.0000,0.0000,0.0000,0.0000
31.0345,28.9742,8.1503,0.0000,0.0000,0.1200,1.6200,0.6400,0.0000,-0.3268,-0.2360,0.0026,996,1502,1527,1502,1000,1000,1505,1000,1000,1003,1005,1013,1014,0.0617,0.0189,-0.0547,-0.0198,0.0155,0.9999,-0.0882,0.5602,0.0934,-0.5654,0.8627,0.2400,0.1321,0.8627,0.2400,0.1321,0.3000,0.0600,0.0002,0,-4.9083,-256.2000,-0.5040,-4.9083,-256.2000,-0.5040,24.7905,34.0273,0.0200,0.2700,0.0000,0.0000,0.0000,0.0000,0.0000,0.0000
31.0008,28.9505,8.1336,-0.0829,-0.0821,0.1200,1.6200,0.6400,0.0000,-0.3265,-0.2358,0.0025,996,1502,1527,1502,1000,1000,1505,1000,1000,1003,1005,1013,1014,0.0669,0.0249,-0.0061,-0.0193,0.0133,0.9999,-0.0882,0.5599,0.0931,-0.5648,0.8627,0.2400,0.1321,0.8627,0.2400,0.1321,0.3000,0.0600,0.0002,0,-4.9083,-256.2000,-0.5040,-4.9083,-256.2000,-0.5040,24.7617,33.9971,0.0200,0.2700,0.0000,0.0000,0.0000,0.0000,0.0000,0.0000
30.9674,28.9264,8.1167,-0.0829,0.0821,0.1200,1.6200,0.6400,0.0000,-0.3262,-0.2356,0.0026,996,1502,1527,1502,1000,1000,1505,1000,1000,1004,1005,1013,1014,0.0930,-0.0012,-0.0270,-0.0180,0.0168,0.9994,-0.0881,0.5592,0.0933,-0.5644,0.8627,0.2400,0.1321,0.8627,0.2400,0.1321,0.3000,0.0600,0.0002,0,-4.9280,-256.2000,-0.5040,-4.9280,-256.2000,-0.5040,24.7328,33.9672,0.0200,0.2700,0.0000,0.0000,0.0000,0.0000,0.0000,0.0000
30.9340,28.9022,8.0999,-0.2486,-0.1642,0.1200,1.6200,0.6400,0.0000,-0.3260,-0.2354,0.0024,996,1502,1527,1502,1000,1000,1505,1000,1000,1004,1005,1013,1014,0.1202,0.0206,0.0359,-0.0204,0.0138,1.0024,-0.0883,0.5590,0.0930,-0.5637,0.8627,0.2400,0.1321,0.8627,0.2400,0.1321,0.3000,0.0600,0.0002,0,-4.9280,-256.2000,-0.5040,-4.9280,-256.2000,-0.5040,24.7040,33.9373,0.0200,0.2700,0.0000,0.0000,0.0000,0.0000,0.0000,0.0000
30.9007,28.8784,8.0837,0.0000,0.0000,0.1200,1.6200,0.6400,0.0000,-0.3256,-0.2352,0.0027,996,1502,1527,1502,1000,1000,1505,1000,1000,1003,1005,1013,1014,0.0683,0.0389,-0.0409,-0.0184,0.0146,0.9955,-0.0878,0.5582,0.0931,-0.5635,0.8627,0.2400,0.1321,0.8627,0.2400,0.1321,0.3000,0.0600,0.0002,0,-4.9083,-256.2000,-0.5040,-4.9083,-256.2000,-0.5040,24.6751,33.9071,0.0200,0.2700,0.0000,0.0000,0.0000,0.0000,0.0000,0.0000
30.8671,28.8544,8.0668,-0.0829,0.0000,0.2400,1.6800,0.6400,0.0000,-0.3243,-0.2344,0.0026,997,1503,1527,1502,1000,1000,1505,1000,1000,1004,1005,1013,1014,0.0773,-0.0257,-0.0330,-0.0168,0.0138,1.0000,-0.0873,0.5561,0.0925,-0.5613,0.8627,0.2400,0.1321,0.8627,0.2400,0.1321,0.3000,0.0600,0.0002,0,-4.9280,-256.2000,-0.5040,-4.9280,-256.2000,-0.5040,24.6463,33.8775,0.0400,0.2800,0.0000,0.0000,0.0000,0.0000,0.0000,0.0000
30.8332,28.8303,8.0499,-0.0829,0.0000,0.1200,1.6200,0.6400,0.0000,-0.3250,-0.2348,0.0026,996,1502,1527,1502,1000,1000,1505,1000,1000,1004,1005,1013,1014,0.0458,0.0109,-0.0110,-0.0216,0.0146,0.9948,-0.0877,0.5572,0.0928,-0.5623,0.8627,0.2400,0.1321,0.8627,0.2400,0.1321,0.3000,0.0600,0.0002,0,-4.9280,-256.2000,-0.5040,-4.9280,-256.2000,-0.5040,24.6180,33.8476,0.0200,0.2700,0.0000,0.0000,0.0000,0.0000,0.0000,0.0000
30.7992,28.8059,8.0327,0.0000,0.0000,0.1200,1.6200,0.6400,0.0000,-0.3248,-0.2345,0.0023,996,1502,1527,1502,1000,1000,1505,1000,1000,1003,1005,1013,1014,0.0794,-0.0620,0.0538,-0.0232,0.0139,0.9987,-0.0880,0.5569,0.0926,-0.5615,0.8627,0.2400,0.1321,0.8627,0.2400,0.1321,0.3000,0.0600,0.0002,0,-4.9083,-256.2000,-0.5040,-4.9083,-256.2000,-0.5040,24.5900,33.8171,0.0200,0.2700,0.0000,0.0000,0.0000,0.0000,0.0000,0.0000
30.7658,28.7819,8.0158,0.0000,0.0821,0.1200,1.6200,0.6400,0.0000,-0.3245,-0.2343,0.0026,996,1502,1527,1502,1000,1000,1505,1000,1000,1003,1005,1013,1014,0.1088,-0.0080,-0.0155,-0.0213,0.0171,0.9997,-0.0876,0.5563,0.0928,-0.5614,0.8627,0.2400,0.1321,0.8627,0.2400,0.1321,0.3000,0.0600,0.0002,0,-4.9083,-256.2000,-0.5040,-4.9083,-256.2000,-0.5040,24.5613,33.7873,0.0200,0.2700,0.0000,0.0000,0.0000,0.0000,0.0000,0.0000
30.7326,28.7575,7.9991,-0.0829,0.0000,0.1200,1.6200,0.6400,0.0000,-0.3241,-0.2341,0.0026,996,1502,1527,1502,1000,1000,1505,1000,1000,1003,1005,1014,1014,0.0372,-0.0385,-0.0272,-0.0197,0.0143,1.0008,-0.0875,0.5556,0.0927,-0.5608,0.8627,0.2400,0.1321,0.8627,0.2400,0.1321,0.3000,0.0600,0.0002,0,-4.9083,-256.2000,-0.5060,-4.9083,-256.2000,-0.5060,24.5329,33.7570,0.0200,0.2700,0.0000,0.0000,0.0000,0.0000,0.0000,0.0000
30.6983,28.7329,7.9819,-0.0829,0.0000,0.1200,1.6200,0.6400,0.0000,-0.3239,-0.2338,0.0026,996,1502,1527,1502,1000,1000,1505,1000,1000,1003,1005,1014,1014,0.0580,-0.0528,-0.0253,-0.0197,0.0139,1.0014,-0.0874,0.5551,0.0927,-0.5603,0.8627,0.2400,0.1321,0.8627,0.2400,0.1321,0.3000,0.0600,0.0002,0,-4.9083,-256.2000,-0.5060,-4.9083,-256.2000,-0.5060,24.5046,33.7264,0.0200,0.2700,0.0000,0.0000,0.0000,0.0000,0.0000,0.0000
30.6648,28.7089,7.9652,-0.0829,0.0000,0.2400,1.6800,0.6400,0.0000,-0.3226,-0.2332,0.0025,997,1503,1527,1502,1000,1000,1505,1000,1000,1003,1005,1014,1014,0.0844,0.0283,0.0042,-0.0212,0.0147,0.9959,-0.0868,0.5533,0.0919,-0.5583,0.8627,0.2400,0.1321,0.8627,0.2400,0.1321,0.3000,0.0600,0.0002,0,-4.9083,-256.2000,-0.5060,-4.9083,-256.2000,-0.5060,24.4758,33.6962,0.0400,0.2800,0.0000,0.0000,0.0000,0.0000,0.0000,0.0000
