roll_imu,pitch_imu,yaw_imu,alpha,beta,roll_des,pitch_des,yaw_des,throttle_des,roll_pid,pitch_pid,yaw_pid,radio_ch1,radio_ch2,radio_ch3,radio_ch4,radio_ch5,radio_ch6,radio_ch7,radio_ch8,radio_ch9,radio_ch10,radio_ch11,radio_ch12,radio_ch13,GyroX,GyroY,GyroZ,AccX,AccY,AccZ,s1_command,s2_command,s3_command,s4_command,kp_roll,ki_roll,kd_roll,kp_pitch,ki_pitch,kd_pitch,kp_yaw,ki_yaw,kd_yaw,failsafeTriggered,kp_alphaRoll,ki_alphaRoll,kd_alphaRoll,kp_betaPitch,ki_betaPitch,kd_betaPitch,ripIMU_roll,ripIMU_pitch,ripRoll_des,ripPitch_des,error_alphaRoll,integral_alphaRoll,derivative_alphaRoll,error_betaPitch,integral_betaPitch,derivative_betaPitch
0.0000,0.0000,0.0000,0.9945,4.6375,0.0000,0.0000,0.0000,0.0000,0.0000,0.0000,0.0000,1000,1500,1500,1500,2000,1000,1000,1000,1500,1500,1500,1500,1500,0.0000,0.0000,0.0000,0.0000,0.0000,0.0000,0.0000,0.0000,0.0000,0.0000,0.8627,0.2400,0.1321,0.8627,0.2400,0.1321,0.3000,0.0600,0.0002,0,-0.5000,-100.0000,-0.0500,-0.5000,-100.0000,-0.0500,0.0000,0.0000,0.0000,0.0000,0.0000,0.0000,0.0000,0.0000,0.0000,0.0000
-4.0289,49.7731,-35.3215,0.2486,-0.4104,-8.3400,-6.5400,-42.8800,0.0000,0.0187,-0.4841,-0.0467,910,1361,1391,1366,2008,1000,1505,1000,1000,1630,1005,1498,1014,3.0758,-1.2793,-21.7239,-0.0527,-0.0028,0.8774,0.4561,0.5122,-0.5495,-0.4187,0.8627,0.2400,0.1321,0.8627,0.2400,0.1321,0.3000,0.0600,0.0002,0,-3.3350,-3.5000,-0.2490,-3.3350,-3.5000,-0.2490,7.2080,48.9726,-1.3900,-1.0900,0.0000,0.0000,0.0000,0.0000,0.0000,0.0000
-4.2852,49.7078,-35.7172,0.3315,-0.3283,-2.6400,-0.7800,-12.4800,0.0000,0.0680,-0.4349,0.0544,971,1456,1487,1461,2008,1000,1505,1000,1000,1629,1005,1498,1014,4.5831,-0.5113,-25.6813,-0.0767,0.0273,0.9594,0.5572,0.3125,-0.4485,-0.4213,0.8627,0.2400,0.1321,0.8627,0.2400,0.1321,0.3000,0.0600,0.0002,0,-3.3305,-3.5000,-0.2490,-3.3305,-3.5000,-0.2490,6.9101,48.9461,-0.4400,-0.1300,0.0000,0.0000,0.0000,0.0000,0.0000,0.0000
-4.5351,49.6512,-36.1111,0.2486,-0.3283,-0.9000,0.9000,-3.2000,0.0000,0.0856,-0.4204,0.0761,991,1485,1515,1490,2008,1000,1505,1000,1000,1630,1005,1498,1014,4.3209,-0.1293,-23.7329,-0.1030,0.0372,0.9675,0.5821,0.2587,-0.4298,-0.4110,0.8627,0.2400,0.1321,0.8627,0.2400,0.1321,0.3000,0.0600,0.0002,0,-3.3350,-3.5000,-0.2490,-3.3350,-3.5000,-0.2490,6.6172,48.9189,-0.1500,0.1500,0.0000,0.0000,0.0000,0.0000,0.0000,0.0000
-4.7483,49.5945,-36.4585,0.3315,-0.3283,-0.4800,1.5000,-0.9600,0.0000,0.0907,-0.4144,0.0722,996,1492,1525,1497,2008,1000,1505,1000,1000,1630,1005,1498,1014,4.6249,-0.3770,-20.2259,-0.0939,0.0542,0.9627,0.5773,0.2515,-0.4329,-0.3959,0.8627,0.2400,0.1321,0.8627,0.2400,0.1321,0.3000,0.0600,0.0002,0,-3.3350,-3.5000,-0.2490,-3.3350,-3.5000,-0.2490,6.3589,48.8871,-0.0800,0.2500,0.0000,0.0000,0.0000,0.0000,0.0000,0.0000
-4.9093,49.5400,-36.7342,0.1657,-0.4925,-0.3000,1.6200,0.0000,0.0000,0.0950,-0.4125,0.0596,996,1495,1527,1500,2008,1000,1505,1000,1000,1629,1005,1498,1014,3.6009,-0.6643,-15.1692,-0.1111,0.0636,0.9575,0.5672,0.2579,-0.4479,-0.3772,0.8627,0.2400,0.1321,0.8627,0.2400,0.1321,0.3000,0.0600,0.0002,0,-3.3305,-3.5000,-0.2490,-3.3305,-3.5000,-0.2490,6.1581,48.8509,-0.0500,0.2700,0.0000,0.0000,0.0000,0.0000,0.0000,0.0000
-5.0173,49.4799,-36.9245,0.3315,-0.4104,-0.1800,1.6200,0.6400,0.0000,0.0982,-0.4104,0.0465,996,1497,1527,1502,2008,1000,1505,1000,1000,1629,1005,1498,1014,2.6698,-1.8577,-10.0730,-0.0880,0.0445,0.9732,0.5551,0.2658,-0.4622,-0.3587,0.8627,0.2400,0.1321,0.8627,0.2400,0.1321,0.3000,0.0600,0.0002,0,-3.3305,-3.5000,-0.2490,-3.3305,-3.5000,-0.2490,6.0194,48.8124,-0.0300,0.2700,0.0000,0.0000,0.0000,0.0000,0.0000,0.0000
-5.0722,49.4159,-37.0335,0.1657,-0.4104,-0.1800,1.6200,0.6400,0.0000,0.0999,-0.4092,0.0310,998,1498,1528,1502,2008,1000,1505,1000,1000,1629,1005,1498,1014,1.7312,-2.3901,-4.9576,-0.0883,0.0316,0.9871,0.5401,0.2783,-0.4781,-0.3403,0.8627,0.2400,0.1321,0.8627,0.2400,0.1321,0.3000,0.0600,0.0002,0,-3.3305,-3.5000,-0.2490,-3.3305,-3.5000,-0.2490,5.9420,48.7717,-0.0300,0.2700,0.0000,0.0000,0.0000,0.0000,0.0000,0.0000
-5.0783,49.3475,-37.0623,0.2486,-0.4104,-0.1800,1.6200,0.6400,0.0000,0.1012,-0.4070,0.0177,996,1497,1527,1502,2008,1000,1505,1000,1000,1629,1005,1498,1014,0.8369,-3.5885,-0.4440,-0.0709,-0.0037,0.9920,0.5259,0.2881,-0.4904,-0.3236,0.8627,0.2400,0.1321,0.8627,0.2400,0.1321,0.3000,0.0600,0.0002,0,-3.3305,-3.5000,-0.2490,-3.3305,-3.5000,-0.2490,5.9221,48.7295,-0.0300,0.2700,0.0000,0.0000,0.0000,0.0000,0.0000,0.0000
-5.0413,49.2763,-37.0286,0.1657,-0.4104,-0.1800,1.6200,0.6400,0.0000,0.1008,-0.4068,0.0070,996,1497,1527,1502,2008,1000,1505,1000,1000,1629,1005,1498,1014,0.8698,-3.2764,3.1433,-0.0686,-0.0230,0.9891,0.5146,0.2990,-0.5006,-0.3130,0.8627,0.2400,0.1321,0.8627,0.2400,0.1321,0.3000,0.0600,0.0002,0,-3.3305,-3.5000,-0.2490,-3.3305,-3.5000,-0.2490,5.9445,48.6852,-0.0300,0.2700,0.0000,0.0000,0.0000,0.0000,0.0000,0.0000
-4.9686,49.2134,-36.9446,0.3315,-0.3283,-0.1800,1.6200,0.6400,0.0000,0.1007,-0.4066,-0.0013,996,1497,1527,1502,2008,1000,1505,1000,1000,1629,1005,1498,1014,0.4298,-2.9954,5.9799,-0.0646,-0.0341,0.9971,0.5060,0.3072,-0.5087,-0.3045,0.8627,0.2400,0.1321,0.8627,0.2400,0.1321,0.3000,0.0600,0.0002,0,-3.3305,-3.5000,-0.2490,-3.3305,-3.5000,-0.2490,6.0081,48.6460,-0.0300,0.2700,0.0000,0.0000,0.0000,0.0000,0.0000,0.0000
-4.8754,49.1552,-36.8276,0.3315,-0.2462,-0.1800,1.6200,0.6400,0.0000,0.1002,-0.4071,-0.0065,996,1497,1527,1502,2008,1000,1505,1000,1000,1629,1005,1498,1014,0.2322,-2.2837,7.7062,-0.0549,-0.0403,0.9906,0.5008,0.3133,-0.5137,-0.3004,0.8627,0.2400,0.1321,0.8627,0.2400,0.1321,0.3000,0.0600,0.0002,0,-3.3305,-3.5000,-0.2490,-3.3305,-3.5000,-0.2490,6.0924,48.6077,-0.0300,0.2700,0.0000,0.0000,0.0000,0.0000,0.0000,0.0000
-4.7703,49.1104,-36.6898,0.3315,-0.2462,-0.1800,1.6200,0.6400,0.0000,0.1003,-0.4081,-0.0097,996,1497,1527,1502,2008,1000,1505,1000,1000,1630,1005,1498,1014,-0.5613,-1.1961,8.7890,-0.0655,-0.0317,0.9865,0.4988,0.3175,-0.5182,-0.2981,0.8627,0.2400,0.1321,0.8627,0.2400,0.1321,0.3000,0.0600,0.0002,0,-3.3350,-3.5000,-0.2490,-3.3350,-3.5000,-0.2490,6.1899,48.5693,-0.0300,0.2700,0.0000,0.0000,0.0000,0.0000,0.0000,0.0000
-4.6707,49.0722,-36.5419,0.4144,-0.3283,-0.1800,1.6200,0.6400,0.0000,0.1012,-0.4085,-0.0106,998,1498,1529,1502,2008,1000,1505,1000,1000,1630,1005,1498,1014,-1.8934,-0.6840,9.0775,-0.0572,-0.0441,0.9720,0.4991,0.3178,-0.5203,-0.2966,0.8627,0.2400,0.1321,0.8627,0.2400,0.1321,0.3000,0.0600,0.0002,0,-3.3350,-3.5000,-0.2490,-3.3350,-3.5000,-0.2490,6.2930,48.5318,-0.0300,0.2700,0.0000,0.0000,0.0000,0.0000,0.0000,0.0000
-4.5826,49.0430,-36.3943,0.3315,-0.2462,-0.1800,1.6200,0.6400,0.0000,0.1019,-0.4094,-0.0102,996,1497,1527,1502,2008,1000,1505,1000,1000,1630,1005,1498,1014,-2.9769,0.2397,8.9826,-0.0675,-0.0351,0.9599,0.5012,0.3177,-0.5215,-0.2973,0.8627,0.2400,0.1321,0.8627,0.2400,0.1321,0.3000,0.0600,0.0002,0,-3.3350,-3.5000,-0.2490,-3.3350,-3.5000,-0.2490,6.3912,48.4962,-0.0300,0.2700,0.0000,0.0000,0.0000,0.0000,0.0000,0.0000
-4.5178,49.0157,-36.2555,0.4144,-0.2462,-0.1800,1.6200,0.6400,0.0000,0.1036,-0.4089,-0.0077,996,1497,1527,1502,2008,1000,1505,1000,1000,1630,1005,1498,1014,-4.6486,0.0126,8.1647,-0.0524,-0.0538,0.9509,0.5048,0.3130,-0.5202,-0.2976,0.8627,0.2400,0.1321,0.8627,0.2400,0.1321,0.3000,0.0600,0.0002,0,-3.3350,-3.5000,-0.2490,-3.3350,-3.5000,-0.2490,6.4806,48.4629,-0.0300,0.2700,0.0000,0.0000,0.0000,0.0000,0.0000,0.0000
-4.4771,48.9886,-36.1344,0.2486,-0.2462,-0.1800,1.6200,0.6400,0.0000,0.1036,-0.4094,-0.0043,996,1497,1527,1502,2008,1000,1505,1000,1000,1630,1005,1498,1014,-4.9188,0.5828,7.0155,-0.0495,-0.0619,0.9376,0.5087,0.3101,-0.5173,-0.3016,0.8627,0.2400,0.1321,0.8627,0.2400,0.1321,0.3000,0.0600,0.0002,0,-3.3350,-3.5000,-0.2490,-3.3350,-3.5000,-0.2490,6.5477,48.4319,-0.0300,0.2700,0.0000,0.0000,0.0000,0.0000,0.0000,0.0000
-4.4508,48.9700,-36.0336,0.4144,-0.2462,-0.1800,1.6200,0.6400,0.0000,0.1026,-0.4108,-0.0006,996,1497,1527,1502,2008,1000,1505,1000,1000,1630,1005,1498,1014,-4.3731,1.7329,5.8048,-0.0371,-0.0853,0.9722,0.5128,0.3088,-0.5140,-0.3075,0.8627,0.2400,0.1321,0.8627,0.2400,0.1321,0.3000,0.0600,0.0002,0,-3.3350,-3.5000,-0.2490,-3.3350,-3.5000,-0.2490,6.5942,48.4042,-0.0300,0.2700,0.0000,0.0000,0.0000,0.0000,0.0000,0.0000
-4.4245,48.9680,-35.9566,0.3315,-0.3283,-0.1800,1.6200,0.6400,0.0000,0.0985,-0.4139,0.0028,996,1497,1527,1502,2008,1000,1505,1000,1000,1630,1005,1498,1014,-1.4118,4.1171,4.6220,-0.0205,-0.1095,1.0325,0.5152,0.3127,-0.5096,-0.3182,0.8627,0.2400,0.1321,0.8627,0.2400,0.1321,0.3000,0.0600,0.0002,0,-3.3350,-3.5000,-0.2490,-3.3350,-3.5000,-0.2490,6.6114,48.3788,-0.0300,0.2700,0.0000,0.0000,0.0000,0.0000,0.0000,0.0000
-4.3780,48.9975,-35.8990,0.3315,-0.3283,-0.1800,1.6200,0.6400,0.0000,0.0936,-0.4187,0.0050,998,1498,1528,1502,2008,1000,1505,1000,1000,1629,1005,1498,1014,1.9895,7.5749,3.8702,-0.0177,-0.1154,1.0602,0.5173,0.3202,-0.5074,-0.3301,0.8627,0.2400,0.1321,0.8627,0.2400,0.1321,0.3000,0.0600,0.0002,0,-3.3305,-3.5000,-0.2490,-3.3305,-3.5000,-0.2490,6.6146,48.3586,-0.0300,0.2700,0.0000,0.0000,0.0000,0.0000,0.0000,0.0000
-4.3073,49.0609,-35.8567,0.3315,-0.3283,-0.1800,1.6200,0.6400,0.0000,0.0884,-0.4232,0.0072,996,1497,1527,1502,2008,1000,1505,1000,1000,1630,1005,1498,1014,5.4284,10.5283,3.0998,-0.0252,-0.1077,1.0622,0.5189,0.3275,-0.5044,-0.3420,0.8627,0.2400,0.1321,0.8627,0.2400,0.1321,0.3000,0.0600,0.0002,0,-3.3350,-3.5000,-0.2490,-3.3350,-3.5000,-0.2490,6.6003,48.3417,-0.0300,0.2700,0.0000,0.0000,0.0000,0.0000,0.0000,0.0000
-4.2225,49.1404,-35.8248,0.2486,-0.4104,-0.1800,1.6200,0.6400,0.0000,0.0877,-0.4235,0.0085,996,1497,1527,1502,2008,1000,1505,1000,1000,1630,1005,1498,1014,5.4087,10.2637,2.6712,-0.0491,-0.0620,1.0657,0.5197,0.3273,-0.5027,-0.3443,0.8627,0.2400,0.1321,0.8627,0.2400,0.1321,0.3000,0.0600,0.0002,0,-3.3350,-3.5000,-0.2490,-3.3350,-3.5000,-0.2490,6.5786,48.3280,-0.0300,0.2700,0.0000,0.0000,0.0000,0.0000,0.0000,0.0000
-4.1482,49.1990,-35.7949,0.2486,-0.4104,-0.1800,1.6200,0.6400,0.0000,0.0886,-0.4202,0.0094,996,1497,1527,1502,2008,1000,1505,1000,1000,1630,1005,1498,1014,4.2893,7.3672,2.3453,-0.0637,-0.0283,1.0475,0.5181,0.3222,-0.4994,-0.3410,0.8627,0.2400,0.1321,0.8627,0.2400,0.1321,0.3000,0.0600,0.0002,0,-3.3350,-3.5000,-0.2490,-3.3350,-3.5000,-0.2490,6.5500,48.3191,-0.0300,0.2700,0.0000,0.0000,0.0000,0.0000,0.0000,0.0000
-4.0863,49.2235,-35.7593,0.1657,-0.4925,-0.1800,1.6200,0.6400,0.0000,0.0913,-0.4159,0.0088,996,1497,1527,1502,2008,1000,1505,1000,1000,1630,1005,1498,1014,1.8519,3.9484,2.5247,-0.0746,0.0081,1.0369,0.5160,0.3158,-0.4983,-0.3335,0.8627,0.2400,0.1321,0.8627,0.2400,0.1321,0.3000,0.0600,0.0002,0,-3.3350,-3.5000,-0.2490,-3.3350,-3.5000,-0.2490,6.5212,48.3108,-0.0300,0.2700,0.0000,0.0000,0.0000,0.0000,0.0000,0.0000
-4.0368,49.2165,-35.7128,0.0000,-0.4925,-0.1800,1.6200,0.6400,0.0000,0.0921,-0.4126,0.0073,996,1497,1527,1502,2008,1000,1505,1000,1000,1630,1005,1498,1014,0.9023,1.4794,3.0200,-0.0746,0.0121,1.0571,0.5119,0.3132,-0.4974,-0.3278,0.8627,0.2400,0.1321,0.8627,0.2400,0.1321,0.3000,0.0600,0.0002,0,-3.3350,-3.5000,-0.2490,-3.3350,-3.5000,-0.2490,6.5023,48.3063,-0.0300,0.2700,0.0000,0.0000,0.0000,0.0000,0.0000,0.0000
-3.9840,49.1913,-35.6581,0.1657,-0.4925,-0.1800,1.6200,0.6400,0.0000,0.0922,-0.4110,0.0067,998,1498,1528,1502,2008,1000,1505,1000,1000,1630,1005,1498,1014,0.4686,0.4612,3.2342,-0.0662,0.0225,1.0511,0.5099,0.3121,-0.4965,-0.3255,0.8627,0.2400,0.1321,0.8627,0.2400,0.1321,0.3000,0.0600,0.0002,0,-3.3350,-3.5000,-0.2490,-3.3350,-3.5000,-0.2490,6.5001,48.3044,-0.0300,0.2700,0.0000,0.0000,0.0000,0.0000,0.0000,0.0000
-3.9342,49.1638,-35.6025,0.0000,-0.4925,-0.1800,1.6200,0.6400,0.0000,0.0914,-0.4112,0.0068,996,1497,1527,1502,2008,1000,1505,1000,1000,1630,1005,1498,1014,0.7152,0.7647,3.2079,-0.0358,0.0077,1.0225,0.5094,0.3129,-0.4958,-0.3265,0.8627,0.2400,0.1321,0.8627,0.2400,0.1321,0.3000,0.0600,0.0002,0,-3.3350,-3.5000,-0.2490,-3.3350,-3.5000,-0.2490,6.5112,48.3085,-0.0300,0.2700,0.0000,0.0000,0.0000,0.0000,0.0000,0.0000
-3.8871,49.1414,-35.5500,0.0829,-0.4104,-0.1800,1.6200,0.6400,0.0000,0.0920,-0.4116,0.0077,996,1497,1527,1502,2008,1000,1505,1000,1000,1630,1005,1498,1014,0.0011,1.2586,2.9301,0.0042,0.0024,1.0088,0.5113,0.3120,-0.4959,-0.3273,0.8627,0.2400,0.1321,0.8627,0.2400,0.1321,0.3000,0.0600,0.0002,0,-3.3350,-3.5000,-0.2490,-3.3350,-3.5000,-0.2490,6.5281,48.3185,-0.0300,0.2700,0.0000,0.0000,0.0000,0.0000,0.0000,0.0000
-3.8540,49.1214,-35.5033,0.0829,-0.5746,-0.1800,1.6200,0.6400,0.0000,0.0926,-0.4114,0.0083,996,1497,1527,1502,2008,1000,1505,1000,1000,1630,1005,1498,1014,-0.6670,1.2349,2.6748,0.0388,-0.0031,1.0028,0.5123,0.3105,-0.4957,-0.3272,0.8627,0.2400,0.1321,0.8627,0.2400,0.1321,0.3000,0.0600,0.0002,0,-3.3350,-3.5000,-0.2490,-3.3350,-3.5000,-0.2490,6.5474,48.3307,-0.0300,0.2700,0.0000,0.0000,0.0000,0.0000,0.0000,0.0000
-3.8303,49.0958,-35.4582,0.0000,-0.3283,-0.1800,1.6200,0.6400,0.0000,0.0936,-0.4097,0.0089,996,1497,1527,1502,2008,1000,1505,1000,1000,1629,1005,1498,1014,-1.6138,0.1087,2.5221,0.0555,-0.0023,0.9936,0.5122,0.3072,-0.4945,-0.3250,0.8627,0.2400,0.1321,0.8627,0.2400,0.1321,0.3000,0.0600,0.0002,0,-3.3305,-3.5000,-0.2490,-3.3305,-3.5000,-0.2490,6.5648,48.3403,-0.0300,0.2700,0.0000,0.0000,0.0000,0.0000,0.0000,0.0000
-3.8165,49.0562,-35.4173,-0.0829,-0.4104,-0.1800,1.6200,0.6400,0.0000,0.0939,-0.4076,0.0104,996,1497,1527,1502,2008,1000,1505,1000,1000,1629,1005,1498,1014,-1.9130,-1.2018,2.0275,0.0566,0.0094,1.0205,0.5119,0.3034,-0.4912,-0.3241,0.8627,0.2400,0.1321,0.8627,0.2400,0.1321,0.3000,0.0600,0.0002,0,-3.3305,-3.5000,-0.2490,-3.3305,-3.5000,-0.2490,6.5818,48.3448,-0.0300,0.2700,0.0000,0.0000,0.0000,0.0000,0.0000,0.0000
-3.8070,49.0042,-35.3850,0.0829,-0.3283,-0.1800,1.6200,0.6400,0.0000,0.0930,-0.4060,0.0128,998,1498,1529,1502,2008,1000,1505,1000,1000,1630,1005,1498,1014,-1.3097,-2.1130,1.2260,0.0453,0.0234,1.0227,0.5118,0.3002,-0.4862,-0.3258,0.8627,0.2400,0.1321,0.8627,0.2400,0.1321,0.3000,0.0600,0.0002,0,-3.3350,-3.5000,-0.2490,-3.3350,-3.5000,-0.2490,6.5981,48.3431,-0.0300,0.2700,0.0000,0.0000,0.0000,0.0000,0.0000,0.0000
-3.7977,48.9466,-35.3672,0.0829,-0.2462,-0.1800,1.6200,0.6400,0.0000,0.0913,-0.4054,0.0165,996,1497,1527,1502,2008,1000,1505,1000,1000,1630,1005,1498,1014,-0.0988,-2.1509,0.0422,0.0202,0.0447,1.0040,0.5133,0.2976,-0.4803,-0.3306,0.8627,0.2400,0.1321,0.8627,0.2400,0.1321,0.3000,0.0600,0.0002,0,-3.3350,-3.5000,-0.2490,-3.3350,-3.5000,-0.2490,6.6110,48.3372,-0.0300,0.2700,0.0000,0.0000,0.0000,0.0000,0.0000,0.0000
-3.7956,48.8886,-35.3722,0.0829,-0.2462,-0.1800,1.6200,0.6400,0.0000,0.0907,-0.4049,0.0219,996,1497,1527,1502,2008,1000,1505,1000,1000,1630,1005,1498,1014,0.3696,-2.1662,-1.7249,-0.0044,0.0582,1.0173,0.5175,0.2923,-0.4738,-0.3361,0.8627,0.2400,0.1321,0.8627,0.2400,0.1321,0.3000,0.0600,0.0002,0,-3.3350,-3.5000,-0.2490,-3.3350,-3.5000,-0.2490,6.6111,48.3305,-0.0300,0.2700,0.0000,0.0000,0.0000,0.0000,0.0000,0.0000
-3.8162,48.8288,-35.4076,0.0829,-0.1642,-0.1800,1.6200,0.6400,0.0000,0.0915,-0.4044,0.0284,996,1497,1527,1502,2008,1000,1505,1000,1000,1629,1005,1498,1014,-0.0625,-2.1386,-3.8705,-0.0083,0.0481,1.0158,0.5243,0.2846,-0.4675,-0.3414,0.8627,0.2400,0.1321,0.8627,0.2400,0.1321,0.3000,0.0600,0.0002,0,-3.3305,-3.5000,-0.2490,-3.3305,-3.5000,-0.2490,6.5932,48.3228,-0.0300,0.2700,0.0000,0.0000,0.0000,0.0000,0.0000,0.0000
-3.8741,48.7657,-35.4782,0.0829,-0.1642,-0.1800,1.6200,0.6400,0.0000,0.0938,-0.4035,0.0343,996,1497,1527,1502,2008,1000,1505,1000,1000,1629,1005,1498,1014,-1.4701,-2.4647,-5.8437,0.0071,0.0186,1.0132,0.5315,0.2754,-0.4630,-0.3439,0.8627,0.2400,0.1321,0.8627,0.2400,0.1321,0.3000,0.0600,0.0002,0,-3.3305,-3.5000,-0.2490,-3.3305,-3.5000,-0.2490,6.5513,48.3137,-0.0300,0.2700,0.0000,0.0000,0.0000,0.0000,0.0000,0.0000
-3.9694,48.6980,-35.5761,0.0829,-0.0821,-0.1800,1.6200,0.6400,0.0000,0.0968,-0.4024,0.0380,996,1497,1527,1502,2008,1000,1505,1000,1000,1629,1005,1498,1014,-3.1249,-2.8407,-7.1646,0.0147,0.0126,1.0299,0.5372,0.2676,-0.4612,-0.3435,0.8627,0.2400,0.1321,0.8627,0.2400,0.1321,0.3000,0.0600,0.0002,0,-3.3305,-3.5000,-0.2490,-3.3305,-3.5000,-0.2490,6.4874,48.3014,-0.0300,0.2700,0.0000,0.0000,0.0000,0.0000,0.0000,0.0000
-4.0906,48.6253,-35.6832,0.2486,-0.0821,-0.1800,1.6200,0.6400,0.0000,0.1002,-0.4012,0.0385,998,1498,1529,1502,2008,1000,1505,1000,1000,1630,1005,1498,1014,-4.8754,-3.2505,-7.3521,0.0057,0.0293,1.0318,0.5399,0.2625,-0.4629,-0.3396,0.8627,0.2400,0.1321,0.8627,0.2400,0.1321,0.3000,0.0600,0.0002,0,-3.3305,-3.5000,-0.2490,-3.3305,-3.5000,-0.2490,6.4144,48.2847,-0.0300,0.2700,0.0000,0.0000,0.0000,0.0000,0.0000,0.0000
-4.2207,48.5466,-35.7851,0.2486,-0.0821,-0.1800,1.6200,0.6400,0.0000,0.1028,-0.3999,0.0364,996,1497,1527,1502,2008,1000,1505,1000,1000,1630,1005,1498,1014,-6.0165,-3.7203,-6.6649,-0.0113,0.0539,1.0363,0.5391,0.2607,-0.4663,-0.3335,0.8627,0.2400,0.1321,0.8627,0.2400,0.1321,0.3000,0.0600,0.0002,0,-3.3350,-3.5000,-0.2490,-3.3350,-3.5000,-0.2490,6.3458,48.2633,-0.0300,0.2700,0.0000,0.0000,0.0000,0.0000,0.0000,0.0000
-4.3456,48.4725,-35.8706,0.3315,-0.0000,-0.1800,1.6200,0.6400,0.0000,0.1038,-0.4010,0.0330,996,1497,1527,1502,2008,1000,1505,1000,1000,1630,1005,1498,1014,-5.9716,-2.4562,-5.5501,-0.0245,0.0520,1.0182,0.5378,0.2641,-0.4717,-0.3302,0.8627,0.2400,0.1321,0.8627,0.2400,0.1321,0.3000,0.0600,0.0002,0,-3.3350,-3.5000,-0.2490,-3.3350,-3.5000,-0.2490,6.2866,48.2376,-0.0300,0.2700,0.0000,0.0000,0.0000,0.0000,0.0000,0.0000
-4.4499,48.4245,-35.9403,0.4144,-0.0000,-0.1800,1.6200,0.6400,0.0000,0.1031,-0.4047,0.0299,996,1497,1527,1502,2008,1000,1505,1000,1000,1630,1005,1498,1014,-4.7576,0.6823,-4.4495,-0.0437,0.0284,0.9946,0.5377,0.2717,-0.4779,-0.3314,0.8627,0.2400,0.1321,0.8627,0.2400,0.1321,0.3000,0.0600,0.0002,0,-3.3350,-3.5000,-0.2490,-3.3350,-3.5000,-0.2490,6.2396,48.2080,-0.0300,0.2700,0.0000,0.0000,0.0000,0.0000,0.0000,0.0000
-4.5316,48.4084,-36.0012,0.3315,-0.0000,-0.1800,1.6200,0.6400,0.0000,0.1013,-0.4085,0.0279,996,1497,1527,1502,2008,1000,1505,1000,1000,1629,1005,1498,1014,-2.8374,3.6741,-3.7590,-0.0540,0.0101,0.9759,0.5377,0.2793,-0.4819,-0.3351,0.8627,0.2400,0.1321,0.8627,0.2400,0.1321,0.3000,0.0600,0.0002,0,-3.3305,-3.5000,-0.2490,-3.3305,-3.5000,-0.2490,6.1985,48.1775,-0.0300,0.2700,0.0000,0.0000,0.0000,0.0000,0.0000,0.0000
-4.5972,48.4229,-36.0611,0.3315,-0.0821,-0.1800,1.6200,0.6400,0.0000,0.1004,-0.4117,0.0277,996,1497,1527,1502,2008,1000,1505,1000,1000,1629,1005,1498,1014,-1.7054,6.0118,-3.6736,-0.0683,0.0048,0.9514,0.5398,0.2836,-0.4844,-0.3391,0.8627,0.2400,0.1321,0.8627,0.2400,0.1321,0.3000,0.0600,0.0002,0,-3.3305,-3.5000,-0.2490,-3.3305,-3.5000,-0.2490,6.1588,48.1491,-0.0300,0.2700,0.0000,0.0000,0.0000,0.0000,0.0000,0.0000
-4.6520,48.4497,-36.1218,0.4144,-0.0821,-0.1800,1.6200,0.6400,0.0000,0.0994,-0.4123,0.0273,998,1498,1528,1502,2008,1000,1505,1000,1000,1629,1005,1498,1014,-0.6007,6.2528,-3.5421,-0.0626,-0.0047,0.9340,0.5389,0.2856,-0.4844,-0.3402,0.8627,0.2400,0.1321,0.8627,0.2400,0.1321,0.3000,0.0600,0.0002,0,-3.3305,-3.5000,-0.2490,-3.3305,-3.5000,-0.2490,6.1185,48.1242,-0.0300,0.2700,0.0000,0.0000,0.0000,0.0000,0.0000,0.0000
-4.6896,48.4738,-36.1770,0.4144,-0.0821,-0.1800,1.6200,0.6400,0.0000,0.0978,-0.4116,0.0253,996,1497,1527,1502,2008,1000,1505,1000,1000,1629,1005,1498,1014,0.8536,5.5855,-2.8926,-0.0532,-0.0175,0.9518,0.5346,0.2885,-0.4841,-0.3391,0.8627,0.2400,0.1321,0.8627,0.2400,0.1321,0.3000,0.0600,0.0002,0,-3.3305,-3.5000,-0.2490,-3.3305,-3.5000,-0.2490,6.0793,48.1038,-0.0300,0.2700,0.0000,0.0000,0.0000,0.0000,0.0000,0.0000
-4.7015,48.4857,-36.2183,0.2486,-0.2462,-0.1800,1.6200,0.6400,0.0000,0.0959,-0.4093,0.0225,996,1497,1527,1502,2008,1000,1505,1000,1000,1629,1005,1498,1014,2.3464,3.8091,-1.9419,-0.0419,-0.0334,0.9730,0.5277,0.2910,-0.4828,-0.3359,0.8627,0.2400,0.1321,0.8627,0.2400,0.1321,0.3000,0.0600,0.0002,0,-3.3305,-3.5000,-0.2490,-3.3305,-3.5000,-0.2490,6.0412,48.0868,-0.0300,0.2700,0.0000,0.0000,0.0000,0.0000,0.0000,0.0000
-4.6855,48.4793,-36.2407,0.4144,-0.0821,-0.1800,1.6200,0.6400,0.0000,0.0943,-0.4072,0.0190,996,1497,1527,1502,2008,1000,1505,1000,1000,1629,1005,1498,1014,3.4490,2.2666,-0.7895,-0.0309,-0.0353,0.9903,0.5206,0.2939,-0.4826,-0.3319,0.8627,0.2400,0.1321,0.8627,0.2400,0.1321,0.3000,0.0600,0.0002,0,-3.3305,-3.5000,-0.2490,-3.3305,-3.5000,-0.2490,6.0085,48.0720,-0.0300,0.2700,0.0000,0.0000,0.0000,0.0000,0.0000,0.0000
-4.6459,48.4601,-36.2409,0.2486,-0.2462,-0.1800,1.6200,0.6400,0.0000,0.0938,-0.4055,0.0146,996,1497,1527,1502,2008,1000,1505,1000,1000,1629,1005,1498,1014,3.5747,1.0496,0.6475,-0.0258,-0.0265,1.0082,0.5139,0.2971,-0.4847,-0.3263,0.8627,0.2400,0.1321,0.8627,0.2400,0.1321,0.3000,0.0600,0.0002,0,-3.3305,-3.5000,-0.2490,-3.3305,-3.5000,-0.2490,5.9897,48.0586,-0.0300,0.2700,0.0000,0.0000,0.0000,0.0000,0.0000,0.0000
-4.5914,48.4332,-36.2154,0.3315,-0.1642,-0.1800,1.6200,0.6400,0.0000,0.0944,-0.4048,0.0099,996,1497,1527,1502,2008,1000,1505,1000,1000,1630,1005,1498,1014,2.7823,0.7060,2.2185,-0.0243,-0.0204,1.0030,0.5091,0.3005,-0.4893,-0.3203,0.8627,0.2400,0.1321,0.8627,0.2400,0.1321,0.3000,0.0600,0.0002,0,-3.3350,-3.5000,-0.2490,-3.3350,-3.5000,-0.2490,5.9897,48.0461,-0.0300,0.2700,0.0000,0.0000,0.0000,0.0000,0.0000,0.0000
-4.5308,48.4119,-36.1674,0.2486,-0.2462,-0.1800,1.6200,0.6400,0.0000,0.0955,-0.4056,0.0057,998,1498,1529,1502,2008,1000,1505,1000,1000,1630,1005,1498,1014,1.5544,1.4892,3.5884,-0.0248,-0.0195,0.9880,0.5069,0.3044,-0.4954,-0.3159,0.8627,0.2400,0.1321,0.8627,0.2400,0.1321,0.3000,0.0600,0.0002,0,-3.3350,-3.5000,-0.2490,-3.3350,-3.5000,-0.2490,6.0061,48.0349,-0.0300,0.2700,0.0000,0.0000,0.0000,0.0000,0.0000,0.0000
-4.4701,48.3994,-36.1010,0.3315,-0.1642,-0.1800,1.6200,0.6400,0.0000,0.0966,-0.4065,0.0030,996,1497,1527,1502,2008,1000,1505,1000,1000,1630,1005,1498,1014,0.3051,2.1937,4.5586,-0.0327,-0.0270,0.9957,0.5061,0.3068,-0.5000,-0.3129,0.8627,0.2400,0.1321,0.8627,0.2400,0.1321,0.3000,0.0600,0.0002,0,-3.3350,-3.5000,-0.2490,-3.3350,-3.5000,-0.2490,6.0325,48.0259,-0.0300,0.2700,0.0000,0.0000,0.0000,0.0000,0.0000,0.0000
-4.4120,48.3930,-36.0240,0.3315,-0.1642,-0.1800,1.6200,0.6400,0.0000,0.0969,-0.4069,0.0013,996,1497,1527,1502,2008,1000,1505,1000,1000,1630,1005,1498,1014,-0.2663,2.5549,5.1155,-0.0460,-0.0307,1.0026,0.5051,0.3087,-0.5024,-0.3113,0.8627,0.2400,0.1321,0.8627,0.2400,0.1321,0.3000,0.0600,0.0002,0,-3.3350,-3.5000,-0.2490,-3.3350,-3.5000,-0.2490,6.0651,48.0191,-0.0300,0.2700,0.0000,0.0000,0.0000,0.0000,0.0000,0.0000
-4.3513,48.3867,-35.9423,0.3315,-0.0821,-0.1800,1.6200,0.6400,0.0000,0.0960,-0.4063,0.0011,996,1497,1527,1502,2008,1000,1505,1000,1000,1630,1005,1498,1014,-0.0058,2.1837,5.1964,-0.0532,-0.0248,0.9904,0.5035,0.3092,-0.5012,-0.3115,0.8627,0.2400,0.1321,0.8627,0.2400,0.1321,0.3000,0.0600,0.0002,0,-3.3350,-3.5000,-0.2490,-3.3350,-3.5000,-0.2490,6.0987,48.0146,-0.0300,0.2700,0.0000,0.0000,0.0000,0.0000,0.0000,0.0000
-4.2837,48.3744,-35.8597,0.3315,-0.1642,-0.1800,1.6200,0.6400,0.0000,0.0942,-0.4054,0.0018,996,1497,1527,1502,2008,1000,1505,1000,1000,1630,1005,1498,1014,0.8768,1.5541,4.9647,-0.0590,-0.0052,0.9928,0.5015,0.3093,-0.4978,-0.3130,0.8627,0.2400,0.1321,0.8627,0.2400,0.1321,0.3000,0.0600,0.0002,0,-3.3350,-3.5000,-0.2490,-3.3350,-3.5000,-0.2490,6.1332,48.0114,-0.0300,0.2700,0.0000,0.0000,0.0000,0.0000,0.0000,0.0000
-4.2080,48.3532,-35.7807,0.2486,-0.0821,-0.1800,1.6200,0.6400,0.0000,0.0926,-0.4038,0.0030,996,1497,1527,1502,2008,1000,1505,1000,1000,1630,1005,1498,1014,1.6402,0.4769,4.5702,-0.0550,0.0087,0.9853,0.4994,0.3082,-0.4934,-0.3142,0.8627,0.2400,0.1321,0.8627,0.2400,0.1321,0.3000,0.0600,0.0002,0,-3.3350,-3.5000,-0.2490,-3.3350,-3.5000,-0.2490,6.1656,48.0083,-0.0300,0.2700,0.0000,0.0000,0.0000,0.0000,0.0000,0.0000
-4.1304,48.3206,-35.7102,0.1657,-0.0821,-0.1800,1.6200,0.6400,0.0000,0.0909,-0.4024,0.0055,998,1498,1529,1502,2008,1000,1505,1000,1000,1630,1005,1498,1014,2.4088,-0.3334,3.7462,-0.0453,0.0171,0.9831,0.4988,0.3061,-0.4879,-0.3170,0.8627,0.2400,0.1321,0.8627,0.2400,0.1321,0.3000,0.0600,0.0002,0,-3.3350,-3.5000,-0.2490,-3.3350,-3.5000,-0.2490,6.1933,48.0037,-0.0300,0.2700,0.0000,0.0000,0.0000,0.0000,0.0000,0.0000
-4.0615,48.2801,-35.6539,0.2486,-0.0821,-0.1800,1.6200,0.6400,0.0000,0.0907,-0.4012,0.0086,996,1497,1527,1502,2008,1000,1505,1000,1000,1629,1005,1498,1014,2.1337,-1.0329,2.7160,-0.0391,0.0194,1.0023,0.5004,0.3019,-0.4832,-0.3191,0.8627,0.2400,0.1321,0.8627,0.2400,0.1321,0.3000,0.0600,0.0002,0,-3.3305,-3.5000,-0.2490,-3.3305,-3.5000,-0.2490,6.2116,47.9979,-0.0300,0.2700,0.0000,0.0000,0.0000,0.0000,0.0000,0.0000
-4.0071,48.2342,-35.6171,0.2486,-0.0000,-0.1800,1.6200,0.6400,0.0000,0.0901,-0.4007,0.0130,996,1497,1527,1502,2008,1000,1505,1000,1000,1629,1005,1498,1014,2.1917,-1.1011,1.2530,-0.0312,0.0210,1.0030,0.5038,0.2975,-0.4778,-0.3236,0.8627,0.2400,0.1321,0.8627,0.2400,0.1321,0.3000,0.0600,0.0002,0,-3.3305,-3.5000,-0.2490,-3.3305,-3.5000,-0.2490,6.2180,47.9919,-0.0300,0.2700,0.0000,0.0000,0.0000,0.0000,0.0000,0.0000
-3.9754,48.1898,-35.6047,0.1657,-0.0000,-0.1800,1.6200,0.6400,0.0000,0.0904,-0.4009,0.0181,996,1497,1527,1502,2008,1000,1505,1000,1000,1630,1005,1498,1014,1.7400,-0.6847,-0.4159,-0.0267,0.0120,1.0095,0.5094,0.2923,-0.4732,-0.3285,0.8627,0.2400,0.1321,0.8627,0.2400,0.1321,0.3000,0.0600,0.0002,0,-3.3350,-3.5000,-0.2490,-3.3350,-3.5000,-0.2490,6.2095,47.9844,-0.0300,0.2700,0.0000,0.0000,0.0000,0.0000,0.0000,0.0000
-3.9650,48.1492,-35.6204,0.1657,-0.0000,-0.1800,1.6200,0.6400,0.0000,0.0905,-0.4014,0.0234,996,1497,1527,1502,2008,1000,1505,1000,1000,1630,1005,1498,1014,1.6444,0.0074,-2.1803,-0.0200,0.0219,1.0073,0.5153,0.2875,-0.4685,-0.3343,0.8627,0.2400,0.1321,0.8627,0.2400,0.1321,0.3000,0.0600,0.0002,0,-3.3350,-3.5000,-0.2490,-3.3350,-3.5000,-0.2490,6.1790,47.9757,-0.0300,0.2700,0.0000,0.0000,0.0000,0.0000,0.0000,0.0000
-3.9797,48.1154,-35.6662,0.0829,-0.0000,-0.1800,1.6200,0.6400,0.0000,0.0905,-0.4019,0.0292,996,1497,1527,1502,2008,1000,1505,1000,1000,1630,1005,1498,1014,1.6943,0.6021,-4.1121,-0.0334,0.0244,0.9988,0.5217,0.2822,-0.4633,-0.3406,0.8627,0.2400,0.1321,0.8627,0.2400,0.1321,0.3000,0.0600,0.0002,0,-3.3350,-3.5000,-0.2490,-3.3350,-3.5000,-0.2490,6.1317,47.9655,-0.0300,0.2700,0.0000,0.0000,0.0000,0.0000,0.0000,0.0000
-4.0134,48.0832,-35.7438,0.0829,0.0821,-0.1800,1.6200,0.6400,0.0000,0.0904,-0.4018,0.0355,998,1498,1529,1502,2008,1000,1505,1000,1000,1630,1005,1498,1014,1.9923,0.7274,-6.1806,-0.0212,0.0267,1.0056,0.5277,0.2759,-0.4567,-0.3469,0.8627,0.2400,0.1321,0.8627,0.2400,0.1321,0.3000,0.0600,0.0002,0,-3.3350,-3.5000,-0.2490,-3.3350,-3.5000,-0.2490,6.0632,47.9529,-0.0300,0.2700,0.0000,0.0000,0.0000,0.0000,0.0000,0.0000
-4.0708,48.0506,-35.8518,0.0829,-0.0000,-0.1800,1.6200,0.6400,0.0000,0.0908,-0.4016,0.0406,996,1497,1527,1502,2008,1000,1505,1000,1000,1630,1005,1498,1014,2.0860,0.7715,-7.8868,-0.0116,0.0045,1.0053,0.5330,0.2702,-0.4518,-0.3514,0.8627,0.2400,0.1321,0.8627,0.2400,0.1321,0.3000,0.0600,0.0002,0,-3.3350,-3.5000,-0.2490,-3.3350,-3.5000,-0.2490,5.9752,47.9367,-0.0300,0.2700,0.0000,0.0000,0.0000,0.0000,0.0000,0.0000
-4.1427,48.0141,-35.9819,0.0829,0.0821,-0.1800,1.6200,0.6400,0.0000,0.0916,-0.4008,0.0441,996,1497,1527,1502,2008,1000,1505,1000,1000,1630,1005,1498,1014,1.9868,0.4235,-9.0633,0.0043,0.0071,1.0131,0.5365,0.2651,-0.4482,-0.3534,0.8627,0.2400,0.1321,0.8627,0.2400,0.1321,0.3000,0.0600,0.0002,0,-3.3350,-3.5000,-0.2490,-3.3350,-3.5000,-0.2490,5.8727,47.9173,-0.0300,0.2700,0.0000,0.0000,0.0000,0.0000,0.0000,0.0000
-4.2297,47.9728,-36.1279,0.1657,-0.0000,-0.1800,1.6200,0.6400,0.0000,0.0925,-0.3998,0.0468,996,1497,1527,1502,2008,1000,1505,1000,1000,1630,1005,1498,1014,1.8268,-0.0637,-9.9531,0.0029,-0.0024,1.0085,0.5391,0.2605,-0.4455,-0.3541,0.8627,0.2400,0.1321,0.8627,0.2400,0.1321,0.3000,0.0600,0.0002,0,-3.3350,-3.5000,-0.2490,-3.3350,-3.5000,-0.2490,5.7605,47.8943,-0.0300,0.2700,0.0000,0.0000,0.0000,0.0000,0.0000,0.0000
-4.3260,47.9274,-36.2838,0.1657,0.0821,-0.1800,1.6200,0.6400,0.0000,0.0939,-0.3991,0.0480,996,1497,1527,1502,2008,1000,1505,1000,1000,1630,1005,1498,1014,1.4028,-0.3267,-10.3883,0.0017,0.0012,1.0067,0.5410,0.2571,-0.4449,-0.3532,0.8627,0.2400,0.1321,0.8627,0.2400,0.1321,0.3000,0.0600,0.0002,0,-3.3350,-3.5000,-0.2490,-3.3350,-3.5000,-0.2490,5.6443,47.8679,-0.0300,0.2700,0.0000,0.0000,0.0000,0.0000,0.0000,0.0000
-4.4255,47.8785,-36.4394,0.0000,-0.0821,-0.1800,1.6200,0.6400,0.0000,0.0950,-0.3985,0.0478,996,1497,1527,1502,2008,1000,1505,1000,1000,1630,1005,1498,1014,1.2683,-0.4467,-10.2673,-0.0028,-0.0004,1.0120,0.5412,0.2558,-0.4457,-0.3513,0.8627,0.2400,0.1321,0.8627,0.2400,0.1321,0.3000,0.0600,0.0002,0,-3.3350,-3.5000,-0.2490,-3.3350,-3.5000,-0.2490,5.5285,47.8368,-0.0300,0.2700,0.0000,0.0000,0.0000,0.0000,0.0000,0.0000
-4.5230,47.8275,-36.5911,0.0829,-0.0000,-0.1800,1.6200,0.6400,0.0000,0.0961,-0.3977,0.0460,998,1498,1528,1502,2008,1000,1505,1000,1000,1630,1005,1498,1014,1.0367,-0.7377,-9.7415,-0.0114,-0.0007,1.0005,0.5398,0.2555,-0.4477,-0.3476,0.8627,0.2400,0.1321,0.8627,0.2400,0.1321,0.3000,0.0600,0.0002,0,-3.3350,-3.5000,-0.2490,-3.3350,-3.5000,-0.2490,5.4205,47.8028,-0.0300,0.2700,0.0000,0.0000,0.0000,0.0000,0.0000,0.0000
-4.6133,47.7753,-36.7323,0.0000,-0.0000,-0.1800,1.6200,0.6400,0.0000,0.0968,-0.3970,0.0440,996,1497,1527,1502,2008,1000,1505,1000,1000,1630,1005,1498,1014,1.1316,-0.8961,-9.0595,-0.0240,0.0092,1.0070,0.5377,0.2563,-0.4498,-0.3442,0.8627,0.2400,0.1321,0.8627,0.2400,0.1321,0.3000,0.0600,0.0002,0,-3.3350,-3.5000,-0.2490,-3.3350,-3.5000,-0.2490,5.3205,47.7655,-0.0300,0.2700,0.0000,0.0000,0.0000,0.0000,0.0000,0.0000
-4.6919,47.7237,-36.8587,0.0829,-0.0000,-0.1800,1.6200,0.6400,0.0000,0.0974,-0.3966,0.0404,996,1497,1527,1502,2008,1000,1505,1000,1000,1630,1005,1498,1014,1.1318,-0.8376,-7.9032,-0.0306,0.0131,0.9964,0.5345,0.2588,-0.4536,-0.3396,0.8627,0.2400,0.1321,0.8627,0.2400,0.1321,0.3000,0.0600,0.0002,0,-3.3350,-3.5000,-0.2490,-3.3350,-3.5000,-0.2490,5.2329,47.7262,-0.0300,0.2700,0.0000,0.0000,0.0000,0.0000,0.0000,0.0000
-4.7547,47.6732,-36.9655,0.0829,-0.0000,-0.1800,1.6200,0.6400,0.0000,0.0978,-0.3963,0.0366,996,1497,1527,1502,2008,1000,1505,1000,1000,1630,1005,1498,1014,1.2657,-0.7756,-6.6408,-0.0319,0.0160,1.0001,0.5307,0.2619,-0.4575,-0.3351,0.8627,0.2400,0.1321,0.8627,0.2400,0.1321,0.3000,0.0600,0.0002,0,-3.3350,-3.5000,-0.2490,-3.3350,-3.5000,-0.2490,5.1602,47.6840,-0.0300,0.2700,0.0000,0.0000,0.0000,0.0000,0.0000,0.0000
-4.8022,47.6240,-37.0490,0.0829,0.0821,-0.1800,1.6200,0.6400,0.0000,0.0987,-0.3958,0.0317,996,1497,1527,1502,2008,1000,1505,1000,1000,1630,1005,1498,1014,0.8751,-0.8010,-5.0147,-0.0298,0.0182,1.0041,0.5263,0.2654,-0.4628,-0.3288,0.8627,0.2400,0.1321,0.8627,0.2400,0.1321,0.3000,0.0600,0.0002,0,-3.3350,-3.5000,-0.2490,-3.3350,-3.5000,-0.2490,5.1068,47.6403,-0.0300,0.2700,0.0000,0.0000,0.0000,0.0000,0.0000,0.0000
-4.8324,47.5756,-37.1057,0.1657,0.0821,-0.1800,1.6200,0.6400,0.0000,0.0993,-0.3952,0.0262,996,1497,1527,1502,2008,1000,1505,1000,1000,1629,1005,1498,1014,0.6489,-0.9296,-3.1835,-0.0254,0.0159,1.0038,0.5207,0.2697,-0.4683,-0.3222,0.8627,0.2400,0.1321,0.8627,0.2400,0.1321,0.3000,0.0600,0.0002,0,-3.3305,-3.5000,-0.2490,-3.3305,-3.5000,-0.2490,5.0732,47.5943,-0.0300,0.2700,0.0000,0.0000,0.0000,0.0000,0.0000,0.0000
-4.8461,47.5277,-37.1335,0.0829,0.0821,-0.1800,1.6200,0.6400,0.0000,0.1001,-0.3947,0.0208,998,1498,1529,1502,2008,1000,1505,1000,1000,1630,1005,1498,1014,0.1012,-1.0389,-1.3679,-0.0133,0.0085,1.0012,0.5156,0.2738,-0.4740,-0.3153,0.8627,0.2400,0.1321,0.8627,0.2400,0.1321,0.3000,0.0600,0.0002,0,-3.3305,-3.5000,-0.2490,-3.3305,-3.5000,-0.2490,5.0627,47.5461,-0.0300,0.2700,0.0000,0.0000,0.0000,0.0000,0.0000,0.0000
-4.8444,47.4793,-37.1340,0.1657,-0.0000,-0.1800,1.6200,0.6400,0.0000,0.1005,-0.3939,0.0156,996,1497,1527,1502,2008,1000,1505,1000,1000,1630,1005,1498,1014,-0.2117,-1.3232,0.3706,-0.0087,-0.0008,0.9951,0.5100,0.2777,-0.4788,-0.3090,0.8627,0.2400,0.1321,0.8627,0.2400,0.1321,0.3000,0.0600,0.0002,0,-3.3350,-3.5000,-0.2490,-3.3350,-3.5000,-0.2490,5.0723,47.4961,-0.0300,0.2700,0.0000,0.0000,0.0000,0.0000,0.0000,0.0000
-4.8297,47.4295,-37.1094,0.1657,0.0821,-0.1800,1.6200,0.6400,0.0000,0.1011,-0.3932,0.0110,996,1497,1527,1502,2008,1000,1505,1000,1000,1629,1005,1498,1014,-0.7819,-1.5066,1.8799,-0.0103,-0.0081,0.9923,0.5054,0.2810,-0.4833,-0.3031,0.8627,0.2400,0.1321,0.8627,0.2400,0.1321,0.3000,0.0600,0.0002,0,-3.3305,-3.5000,-0.2490,-3.3305,-3.5000,-0.2490,5.0995,47.4438,-0.0300,0.2700,0.0000,0.0000,0.0000,0.0000,0.0000,0.0000
-4.8012,47.3786,-37.0643,0.1657,0.0821,-0.1800,1.6200,0.6400,0.0000,0.1009,-0.3925,0.0077,996,1497,1527,1502,2008,1000,1505,1000,1000,1629,1005,1498,1014,-0.8102,-1.6912,3.0274,-0.0174,0.0046,1.0031,0.5011,0.2839,-0.4858,-0.2992,0.8627,0.2400,0.1321,0.8627,0.2400,0.1321,0.3000,0.0600,0.0002,0,-3.3305,-3.5000,-0.2490,-3.3305,-3.5000,-0.2490,5.1388,47.3903,-0.0300,0.2700,0.0000,0.0000,0.0000,0.0000,0.0000,0.0000
-4.7636,47.3267,-37.0028,0.1657,-0.0000,-0.1800,1.6200,0.6400,0.0000,0.1008,-0.3918,0.0056,996,1497,1527,1502,2008,1000,1505,1000,1000,1629,1005,1498,1014,-0.9611,-1.8921,3.7708,-0.0284,0.0043,0.9992,0.4982,0.2854,-0.4871,-0.2966,0.8627,0.2400,0.1321,0.8627,0.2400,0.1321,0.3000,0.0600,0.0002,0,-3.3305,-3.5000,-0.2490,-3.3305,-3.5000,-0.2490,5.1893,47.3345,-0.0300,0.2700,0.0000,0.0000,0.0000,0.0000,0.0000,0.0000
-4.7210,47.2728,-36.9345,0.3315,0.0821,-0.1800,1.6200,0.6400,0.0000,0.1010,-0.3908,0.0051,996,1497,1527,1502,2008,1000,1505,1000,1000,1629,1005,1498,1014,-1.3533,-2.2703,3.9450,-0.0405,0.0122,1.0078,0.4969,0.2848,-0.4867,-0.2950,0.8627,0.2400,0.1321,0.8627,0.2400,0.1321,0.3000,0.0600,0.0002,0,-3.3305,-3.5000,-0.2490,-3.3305,-3.5000,-0.2490,5.2394,47.2813,-0.0300,0.2700,0.0000,0.0000,0.0000,0.0000,0.0000,0.0000
-4.6892,47.2123,-36.8695,0.2486,0.1642,-0.1800,1.6200,0.6400,0.0000,0.1014,-0.3892,0.0068,998,1498,1528,1502,2008,1000,1505,1000,1000,1630,1005,1498,1014,-1.9296,-3.1061,3.3563,-0.0518,0.0110,1.0228,0.4975,0.2809,-0.4838,-0.2946,0.8627,0.2400,0.1321,0.8627,0.2400,0.1321,0.3000,0.0600,0.0002,0,-3.3350,-3.5000,-0.2490,-3.3350,-3.5000,-0.2490,5.2834,47.2318,-0.0300,0.2700,0.0000,0.0000,0.0000,0.0000,0.0000,0.0000
-4.6694,47.1426,-36.8145,0.2486,0.0821,-0.1800,1.6200,0.6400,0.0000,0.1024,-0.3880,0.0093,996,1497,1527,1502,2008,1000,1505,1000,1000,1630,1005,1498,1014,-2.7599,-3.5962,2.5468,-0.0418,0.0231,1.0140,0.4997,0.2763,-0.4810,-0.2949,0.8627,0.2400,0.1321,0.8627,0.2400,0.1321,0.3000,0.0600,0.0002,0,-3.3350,-3.5000,-0.2490,-3.3350,-3.5000,-0.2490,5.3147,47.1828,-0.0300,0.2700,0.0000,0.0000,0.0000,0.0000,0.0000,0.0000
-4.6650,47.0707,-36.7713,0.3315,0.0821,-0.1800,1.6200,0.6400,0.0000,0.1024,-0.3874,0.0115,996,1497,1527,1502,2008,1000,1505,1000,1000,1630,1005,1498,1014,-2.8128,-3.5570,1.8022,-0.0243,0.0101,1.0053,0.5013,0.2735,-0.4783,-0.2965,0.8627,0.2400,0.1321,0.8627,0.2400,0.1321,0.3000,0.0600,0.0002,0,-3.3350,-3.5000,-0.2490,-3.3350,-3.5000,-0.2490,5.3336,47.1361,-0.0300,0.2700,0.0000,0.0000,0.0000,0.0000,0.0000,0.0000
-4.6669,47.0007,-36.7414,0.3315,0.1642,-0.1800,1.6200,0.6400,0.0000,0.1018,-0.3876,0.0138,996,1497,1527,1502,2008,1000,1505,1000,1000,1630,1005,1498,1014,-2.3277,-2.9454,1.0328,0.0160,-0.0076,0.9934,0.5032,0.2720,-0.4756,-0.2996,0.8627,0.2400,0.1321,0.8627,0.2400,0.1321,0.3000,0.0600,0.0002,0,-3.3350,-3.5000,-0.2490,-3.3350,-3.5000,-0.2490,5.3398,47.0912,-0.0300,0.2700,0.0000,0.0000,0.0000,0.0000,0.0000,0.0000
-4.6719,46.9440,-36.7260,0.3315,0.1642,-0.1800,1.6200,0.6400,0.0000,0.1003,-0.3894,0.0158,996,1497,1527,1502,2008,1000,1505,1000,1000,1630,1005,1498,1014,-1.1389,-1.2254,0.3678,0.0349,-0.0421,0.9839,0.5055,0.2733,-0.4738,-0.3049,0.8627,0.2400,0.1321,0.8627,0.2400,0.1321,0.3000,0.0600,0.0002,0,-3.3350,-3.5000,-0.2490,-3.3350,-3.5000,-0.2490,5.3294,47.0473,-0.0300,0.2700,0.0000,0.0000,0.0000,0.0000,0.0000,0.0000
-4.6788,46.9034,-36.7260,0.3315,0.0821,-0.1800,1.6200,0.6400,0.0000,0.0995,-0.3910,0.0185,996,1497,1527,1502,2008,1000,1505,1000,1000,1630,1005,1498,1014,-0.4894,0.2906,-0.5357,0.0110,-0.0373,1.0202,0.5090,0.2731,-0.4720,-0.3101,0.8627,0.2400,0.1321,0.8627,0.2400,0.1321,0.3000,0.0600,0.0002,0,-3.3350,-3.5000,-0.2490,-3.3350,-3.5000,-0.2490,5.3011,47.0066,-0.0300,0.2700,0.0000,0.0000,0.0000,0.0000,0.0000,0.0000
-4.6851,46.8779,-36.7361,0.2486,0.0821,-0.1800,1.6200,0.6400,0.0000,0.0986,-0.3929,0.0194,998,1498,1528,1502,2008,1000,1505,1000,1000,1630,1005,1498,1014,0.2377,1.8746,-0.8751,-0.0120,0.0080,1.0344,0.5109,0.2749,-0.4720,-0.3138,0.8627,0.2400,0.1321,0.8627,0.2400,0.1321,0.3000,0.0600,0.0002,0,-3.3350,-3.5000,-0.2490,-3.3350,-3.5000,-0.2490,5.2572,46.9689,-0.0300,0.2700,0.0000,0.0000,0.0000,0.0000,0.0000,0.0000
-4.6793,46.8701,-36.7404,0.3315,0.0821,-0.1800,1.6200,0.6400,0.0000,0.0979,-0.3950,0.0160,996,1497,1527,1502,2008,1000,1505,1000,1000,1630,1005,1498,1014,0.6707,3.4693,0.2038,-0.0188,0.0568,1.0044,0.5089,0.2810,-0.4769,-0.3130,0.8627,0.2400,0.1321,0.8627,0.2400,0.1321,0.3000,0.0600,0.0002,0,-3.3350,-3.5000,-0.2490,-3.3350,-3.5000,-0.2490,5.2195,46.9331,-0.0300,0.2700,0.0000,0.0000,0.0000,0.0000,0.0000,0.0000
-4.6492,46.8763,-36.7169,0.1657,-0.0000,-0.1800,1.6200,0.6400,0.0000,0.0977,-0.3957,0.0091,996,1497,1527,1502,2008,1000,1505,1000,1000,1630,1005,1498,1014,0.6277,4.0217,2.4473,-0.0428,0.1024,1.0077,0.5026,0.2889,-0.4844,-0.3071,0.8627,0.2400,0.1321,0.8627,0.2400,0.1321,0.3000,0.0600,0.0002,0,-3.3350,-3.5000,-0.2490,-3.3350,-3.5000,-0.2490,5.2123,46.8981,-0.0300,0.2700,0.0000,0.0000,0.0000,0.0000,0.0000,0.0000
-4.5924,46.8853,-36.6551,0.2486,0.0821,-0.1800,1.6200,0.6400,0.0000,0.0977,-0.3953,0.0024,996,1497,1527,1502,2008,1000,1505,1000,1000,1630,1005,1498,1014,0.2820,3.6662,4.7153,-0.0587,0.1109,0.9866,0.4954,0.2953,-0.4907,-0.3000,0.8627,0.2400,0.1321,0.8627,0.2400,0.1321,0.3000,0.0600,0.0002,0,-3.3350,-3.5000,-0.2490,-3.3350,-3.5000,-0.2490,5.2412,46.8640,-0.0300,0.2700,0.0000,0.0000,0.0000,0.0000,0.0000,0.0000
-4.5176,46.8861,-36.5615,0.0829,-0.0821,-0.1800,1.6200,0.6400,0.0000,0.0977,-0.3937,-0.0029,996,1497,1527,1502,2008,1000,1505,1000,1000,1630,1005,1498,1014,-0.1962,2.4421,6.4988,-0.0521,0.0683,0.9659,0.4885,0.2990,-0.4943,-0.2931,0.8627,0.2400,0.1321,0.8627,0.2400,0.1321,0.3000,0.0600,0.0002,0,-3.3350,-3.5000,-0.2490,-3.3350,-3.5000,-0.2490,5.2976,46.8339,-0.0300,0.2700,0.0000,0.0000,0.0000,0.0000,0.0000,0.0000
-4.4349,46.8773,-36.4486,0.3315,0.0821,-0.1800,1.6200,0.6400,0.0000,0.0974,-0.3930,-0.0061,996,1497,1527,1502,2008,1000,1505,1000,1000,1630,1005,1498,1014,-0.5277,1.9317,7.5682,-0.0307,0.0073,1.0001,0.4843,0.3016,-0.4965,-0.2895,0.8627,0.2400,0.1321,0.8627,0.2400,0.1321,0.3000,0.0600,0.0002,0,-3.3350,-3.5000,-0.2490,-3.3350,-3.5000,-0.2490,5.3678,46.8102,-0.0300,0.2700,0.0000,0.0000,0.0000,0.0000,0.0000,0.0000
-4.3457,46.8723,-36.3248,0.3315,-0.0000,-0.1800,1.6200,0.6400,0.0000,0.0960,-0.3943,-0.0090,998,1498,1529,1502,2008,1000,1505,1000,1000,1630,1005,1498,1014,-0.0624,2.9737,8.5282,-0.0017,-0.0270,0.9935,0.4813,0.3073,-0.4994,-0.2893,0.8627,0.2400,0.1321,0.8627,0.2400,0.1321,0.3000,0.0600,0.0002,0,-3.3350,-3.5000,-0.2490,-3.3350,-3.5000,-0.2490,5.4452,46.7942,-0.0300,0.2700,0.0000,0.0000,0.0000,0.0000,0.0000,0.0000
-4.2421,46.8846,-36.1864,0.2486,-0.0000,-0.1800,1.6200,0.6400,0.0000,0.0949,-0.3968,-0.0128,996,1497,1527,1502,2008,1000,1505,1000,1000,1630,1005,1498,1014,0.1029,4.7978,9.7490,0.0016,-0.0221,1.0119,0.4790,0.3147,-0.5045,-0.2891,0.8627,0.2400,0.1321,0.8627,0.2400,0.1321,0.3000,0.0600,0.0002,0,-3.3350,-3.5000,-0.2490,-3.3350,-3.5000,-0.2490,5.5329,46.7868,-0.0300,0.2700,0.0000,0.0000,0.0000,0.0000,0.0000,0.0000
-4.1250,46.9173,-36.0283,0.2486,-0.0000,-0.1800,1.6200,0.6400,0.0000,0.0946,-0.3995,-0.0174,996,1497,1527,1502,2008,1000,1505,1000,1000,1630,1005,1498,1014,-0.4390,6.6198,11.2446,-0.0016,0.0054,1.0424,0.4768,0.3223,-0.5115,-0.2876,0.8627,0.2400,0.1321,0.8627,0.2400,0.1321,0.3000,0.0600,0.0002,0,-3.3350,-3.5000,-0.2490,-3.3350,-3.5000,-0.2490,5.6357,46.7866,-0.0300,0.2700,0.0000,0.0000,0.0000,0.0000,0.0000,0.0000
-4.0009,46.9633,-35.8439,0.2486,0.0821,-0.1800,1.6200,0.6400,0.0000,0.0958,-0.4005,-0.0231,996,1497,1527,1502,2008,1000,1505,1000,1000,1630,1005,1498,1014,-2.1233,7.0537,13.1058,-0.0012,0.0312,1.0249,0.4732,0.3278,-0.5194,-0.2816,0.8627,0.2400,0.1321,0.8627,0.2400,0.1321,0.3000,0.0600,0.0002,0,-3.3350,-3.5000,-0.2490,-3.3350,-3.5000,-0.2490,5.7632,46.7925,-0.0300,0.2700,0.0000,0.0000,0.0000,0.0000,0.0000,0.0000
-3.8710,47.0083,-35.6276,0.2486,-0.0000,-0.1800,1.6200,0.6400,0.0000,0.0969,-0.4001,-0.0294,996,1497,1527,1502,2008,1000,1505,1000,1000,1630,1005,1498,1014,-3.8108,6.4948,15.1812,0.0058,0.0295,1.0184,0.4677,0.3326,-0.5264,-0.2739,0.8627,0.2400,0.1321,0.8627,0.2400,0.1321,0.3000,0.0600,0.0002,0,-3.3350,-3.5000,-0.2490,-3.3350,-3.5000,-0.2490,5.9169,46.8020,-0.0300,0.2700,0.0000,0.0000,0.0000,0.0000,0.0000,0.0000
-3.7342,47.0472,-35.3807,0.1657,-0.0000,-0.1800,1.6200,0.6400,0.0000,0.0971,-0.3995,-0.0352,996,1497,1527,1502,2008,1000,1505,1000,1000,1629,1005,1498,1014,-4.8744,5.7880,17.0788,0.0070,0.0179,1.0136,0.4615,0.3376,-0.5318,-0.2673,0.8627,0.2400,0.1321,0.8627,0.2400,0.1321,0.3000,0.0600,0.0002,0,-3.3305,-3.5000,-0.2490,-3.3305,-3.5000,-0.2490,6.0965,46.8157,-0.0300,0.2700,0.0000,0.0000,0.0000,0.0000,0.0000,0.0000
-3.5846,47.0809,-35.1092,0.2486,-0.0000,-0.1800,1.6200,0.6400,0.0000,0.0959,-0.3993,-0.0392,998,1498,1528,1502,2008,1000,1505,1000,1000,1629,1005,1498,1014,-4.9178,5.3795,18.4060,0.0192,-0.0046,1.0225,0.4560,0.3426,-0.5344,-0.2642,0.8627,0.2400,0.1321,0.8627,0.2400,0.1321,0.3000,0.0600,0.0002,0,-3.3305,-3.5000,-0.2490,-3.3305,-3.5000,-0.2490,6.2938,46.8337,-0.0300,0.2700,0.0000,0.0000,0.0000,0.0000,0.0000,0.0000
-3.4257,47.1156,-34.8236,0.1657,0.0821,-0.1800,1.6200,0.6400,0.0000,0.0944,-0.4003,-0.0408,996,1497,1527,1502,2008,1000,1505,1000,1000,1629,1005,1498,1014,-4.8181,5.9253,18.9602,0.0381,-0.0371,1.0210,0.4539,0.3468,-0.5355,-0.2651,0.8627,0.2400,0.1321,0.8627,0.2400,0.1321,0.3000,0.0600,0.0002,0,-3.3305,-3.5000,-0.2490,-3.3305,-3.5000,-0.2490,6.4994,46.8540,-0.0300,0.2700,0.0000,0.0000,0.0000,0.0000,0.0000,0.0000
-3.2632,47.1614,-34.5355,0.1657,-0.0000,-0.1800,1.6200,0.6400,0.0000,0.0928,-0.4028,-0.0413,996,1497,1527,1502,2008,1000,1505,1000,1000,1630,1005,1498,1014,-4.6711,7.5223,19.0996,0.0508,-0.0438,1.0217,0.4543,0.3514,-0.5369,-0.2687,0.8627,0.2400,0.1321,0.8627,0.2400,0.1321,0.3000,0.0600,0.0002,0,-3.3350,-3.5000,-0.2490,-3.3350,-3.5000,-0.2490,6.7003,46.8792,-0.0300,0.2700,0.0000,0.0000,0.0000,0.0000,0.0000,0.0000
-3.1047,47.2249,-34.2505,0.2486,0.0821,-0.1800,1.6200,0.6400,0.0000,0.0919,-0.4057,-0.0401,996,1497,1527,1502,2008,1000,1505,1000,1000,1630,1005,1498,1014,-5.0597,9.2510,18.6788,0.0439,-0.0502,1.0395,0.4575,0.3538,-0.5376,-0.2737,0.8627,0.2400,0.1321,0.8627,0.2400,0.1321,0.3000,0.0600,0.0002,0,-3.3350,-3.5000,-0.2490,-3.3350,-3.5000,-0.2490,6.8910,46.9098,-0.0300,0.2700,0.0000,0.0000,0.0000,0.0000,0.0000,0.0000
-2.9602,47.3065,-33.9733,0.1657,0.0821,-0.1800,1.6200,0.6400,0.0000,0.0930,-0.4088,-0.0396,996,1497,1527,1502,2008,1000,1505,1000,1000,1630,1005,1498,1014,-6.8077,11.1164,18.4175,0.0250,-0.0320,1.0446,0.4622,0.3555,-0.5414,-0.2762,0.8627,0.2400,0.1321,0.8627,0.2400,0.1321,0.3000,0.0600,0.0002,0,-3.3350,-3.5000,-0.2490,-3.3350,-3.5000,-0.2490,7.0645,46.9457,-0.0300,0.2700,0.0000,0.0000,0.0000,0.0000,0.0000,0.0000
-2.8449,47.4146,-33.6885,0.2486,-0.0000,-0.1800,1.6200,0.6400,0.0000,0.0960,-0.4139,-0.0435,996,1497,1527,1502,2008,1000,1505,1000,1000,1630,1005,1498,1014,-9.8541,14.2343,19.6592,-0.0069,-0.0567,1.0405,0.4664,0.3614,-0.5534,-0.2744,0.8627,0.2400,0.1321,0.8627,0.2400,0.1321,0.3000,0.0600,0.0002,0,-3.3350,-3.5000,-0.2490,-3.3350,-3.5000,-0.2490,7.2430,46.9849,-0.0300,0.2700,0.0000,0.0000,0.0000,0.0000,0.0000,0.0000
-2.7192,47.5441,-33.3857,0.3315,-0.0000,-0.1800,1.6200,0.6400,0.0000,0.0954,-0.4162,-0.0455,998,1498,1528,1502,2008,1000,1505,1000,1000,1630,1005,1498,1014,-10.2276,15.1521,20.3309,0.0123,0.0104,1.0281,0.4661,0.3663,-0.5572,-0.2753,0.8627,0.2400,0.1321,0.8627,0.2400,0.1321,0.3000,0.0600,0.0002,0,-3.3350,-3.5000,-0.2490,-3.3350,-3.5000,-0.2490,7.4375,47.0236,-0.0300,0.2700,0.0000,0.0000,0.0000,0.0000,0.0000,0.0000
-2.6077,47.6905,-33.0750,0.2486,-0.2462,-0.1800,1.6200,0.6400,0.0000,0.0950,-0.4199,-0.0477,996,1497,1527,1502,2008,1000,1505,1000,1000,1630,1005,1498,1014,-10.6029,17.0110,21.0292,-0.0282,-0.0596,0.9983,0.4671,0.3727,-0.5626,-0.2772,0.8627,0.2400,0.1321,0.8627,0.2400,0.1321,0.3000,0.0600,0.0002,0,-3.3350,-3.5000,-0.2490,-3.3350,-3.5000,-0.2490,7.6382,47.0661,-0.0300,0.2700,0.0000,0.0000,0.0000,0.0000,0.0000,0.0000
-2.4617,47.8323,-32.7594,0.3315,-0.0821,-0.1800,1.6200,0.6400,0.0000,0.0893,-0.4197,-0.0457,996,1497,1527,1502,2008,1000,1505,1000,1000,1630,1005,1498,1014,-7.2580,15.9037,20.3676,0.0007,0.0231,0.9783,0.4633,0.3761,-0.5546,-0.2847,0.8627,0.2400,0.1321,0.8627,0.2400,0.1321,0.3000,0.0600,0.0002,0,-3.3350,-3.5000,-0.2490,-3.3350,-3.5000,-0.2490,7.8369,47.1171,-0.0300,0.2700,0.0000,0.0000,0.0000,0.0000,0.0000,0.0000
-2.3130,47.9705,-32.4583,0.1657,-0.2462,-0.1800,1.6200,0.6400,0.0000,0.0869,-0.4197,-0.0429,996,1497,1527,1502,2008,1000,1505,1000,1000,1630,1005,1498,1014,-6.4385,14.9985,19.3792,-0.0352,-0.0406,0.9847,0.4637,0.3756,-0.5495,-0.2899,0.8627,0.2400,0.1321,0.8627,0.2400,0.1321,0.3000,0.0600,0.0002,0,-3.3350,-3.5000,-0.2490,-3.3350,-3.5000,-0.2490,8.0276,47.1763,-0.0300,0.2700,0.0000,0.0000,0.0000,0.0000,0.0000,0.0000
-2.1515,48.0931,-32.1738,0.3315,-0.1642,-0.1800,1.6200,0.6400,0.0000,0.0824,-0.4191,-0.0376,996,1497,1527,1502,2008,1000,1505,1000,1000,1630,1005,1498,1014,-4.1053,13.7551,17.6736,-0.0039,0.0053,0.9770,0.4639,0.3742,-0.5391,-0.2991,0.8627,0.2400,0.1321,0.8627,0.2400,0.1321,0.3000,0.0600,0.0002,0,-3.3350,-3.5000,-0.2490,-3.3350,-3.5000,-0.2490,8.1994,47.2440,-0.0300,0.2700,0.0000,0.0000,0.0000,0.0000,0.0000,0.0000
-2.0112,48.2030,-31.9198,0.1657,-0.2462,-0.1800,1.6200,0.6400,0.0000,0.0825,-0.4195,-0.0324,996,1497,1527,1502,2008,1000,1505,1000,1000,1629,1005,1498,1014,-5.0546,13.3664,15.8295,-0.0157,-0.0196,0.9951,0.4696,0.3695,-0.5344,-0.3046,0.8627,0.2400,0.1321,0.8627,0.2400,0.1321,0.3000,0.0600,0.0002,0,-3.3305,-3.5000,-0.2490,-3.3305,-3.5000,-0.2490,8.3514,47.3193,-0.0300,0.2700,0.0000,0.0000,0.0000,0.0000,0.0000,0.0000
-1.8838,48.3107,-31.6778,0.3315,-0.1642,-0.1800,1.6200,0.6400,0.0000,0.0822,-0.4196,-0.0315,998,1498,1528,1502,2008,1000,1505,1000,1000,1629,1005,1498,1014,-5.6416,12.7017,15.4861,-0.0180,0.0160,1.0179,0.4703,0.3689,-0.5332,-0.3060,0.8627,0.2400,0.1321,0.8627,0.2400,0.1321,0.3000,0.0600,0.0002,0,-3.3305,-3.5000,-0.2490,-3.3305,-3.5000,-0.2490,8.4922,47.4015,-0.0300,0.2700,0.0000,0.0000,0.0000,0.0000,0.0000,0.0000
-1.7793,48.4157,-31.4437,0.3315,-0.1642,-0.1800,1.6200,0.6400,0.0000,0.0846,-0.4212,-0.0300,996,1497,1527,1502,2008,1000,1505,1000,1000,1629,1005,1498,1014,-8.1786,13.2773,14.8762,-0.0520,0.0213,1.0255,0.4759,0.3666,-0.5358,-0.3067,0.8627,0.2400,0.1321,0.8627,0.2400,0.1321,0.3000,0.0600,0.0002,0,-3.3305,-3.5000,-0.2490,-3.3305,-3.5000,-0.2490,8.6290,47.4898,-0.0300,0.2700,0.0000,0.0000,0.0000,0.0000,0.0000,0.0000
-1.6898,48.5208,-31.2048,0.3315,-0.0821,-0.1800,1.6200,0.6400,0.0000,0.0844,-0.4207,-0.0329,996,1497,1527,1502,2008,1000,1505,1000,1000,1630,1005,1498,1014,-8.6374,12.2032,15.8064,-0.0641,0.0258,1.0240,0.4722,0.3692,-0.5381,-0.3034,0.8627,0.2400,0.1321,0.8627,0.2400,0.1321,0.3000,0.0600,0.0002,0,-3.3350,-3.5000,-0.2490,-3.3350,-3.5000,-0.2490,8.7658,47.5871,-0.0300,0.2700,0.0000,0.0000,0.0000,0.0000,0.0000,0.0000
-1.5916,48.6106,-30.9475,0.3315,-0.1642,-0.1800,1.6200,0.6400,0.0000,0.0858,-0.4204,-0.0357,996,1497,1527,1502,2008,1000,1505,1000,1000,1630,1005,1498,1014,-10.3279,11.3421,16.6737,-0.0675,0.0493,1.0259,0.4705,0.3702,-0.5419,-0.2989,0.8627,0.2400,0.1321,0.8627,0.2400,0.1321,0.3000,0.0600,0.0002,0,-3.3350,-3.5000,-0.2490,-3.3350,-3.5000,-0.2490,8.9167,47.6828,-0.0300,0.2700,0.0000,0.0000,0.0000,0.0000,0.0000,0.0000
-1.4821,48.6953,-30.6693,0.2486,-0.1642,-0.1800,1.6200,0.6400,0.0000,0.0825,-0.4198,-0.0412,996,1497,1527,1502,2008,1000,1505,1000,1000,1630,1005,1498,1014,-8.5093,10.3824,18.4912,-0.0758,0.0256,1.0013,0.4611,0.3786,-0.5435,-0.2961,0.8627,0.2400,0.1321,0.8627,0.2400,0.1321,0.3000,0.0600,0.0002,0,-3.3350,-3.5000,-0.2490,-3.3350,-3.5000,-0.2490,9.0762,47.7822,-0.0300,0.2700,0.0000,0.0000,0.0000,0.0000,0.0000,0.0000
-1.3507,48.7615,-30.3707,0.2486,-0.0000,-0.1800,1.6200,0.6400,0.0000,0.0835,-0.4187,-0.0415,996,1497,1527,1502,2008,1000,1505,1000,1000,1630,1005,1498,1014,-10.1281,9.0815,18.6452,-0.0702,0.0216,0.9959,0.4607,0.3767,-0.5437,-0.2937,0.8627,0.2400,0.1321,0.8627,0.2400,0.1321,0.3000,0.0600,0.0002,0,-3.3350,-3.5000,-0.2490,-3.3350,-3.5000,-0.2490,9.2585,47.8790,-0.0300,0.2700,0.0000,0.0000,0.0000,0.0000,0.0000,0.0000
-1.2364,48.8274,-30.0763,0.3315,-0.0000,-0.1800,1.6200,0.6400,0.0000,0.0821,-0.4189,-0.0422,998,1498,1529,1502,2008,1000,1505,1000,1000,1629,1005,1498,1014,-9.8501,8.7835,18.7805,-0.0765,-0.0117,0.9921,0.4588,0.3789,-0.5432,-0.2946,0.8627,0.2400,0.1321,0.8627,0.2400,0.1321,0.3000,0.0600,0.0002,0,-3.3305,-3.5000,-0.2490,-3.3305,-3.5000,-0.2490,9.4263,47.9796,-0.0300,0.2700,0.0000,0.0000,0.0000,0.0000,0.0000,0.0000
-1.1239,48.8931,-29.7776,0.3315,0.0821,-0.1800,1.6200,0.6400,0.0000,0.0845,-0.4212,-0.0418,996,1497,1527,1502,2008,1000,1505,1000,1000,1629,1005,1498,1014,-12.3606,10.1457,18.6551,-0.0536,0.0144,0.9887,0.4639,0.3786,-0.5475,-0.2950,0.8627,0.2400,0.1321,0.8627,0.2400,0.1321,0.3000,0.0600,0.0002,0,-3.3305,-3.5000,-0.2490,-3.3305,-3.5000,-0.2490,9.6037,48.0775,-0.0300,0.2700,0.0000,0.0000,0.0000,0.0000,0.0000,0.0000
-1.0389,48.9741,-29.4809,0.3315,0.0821,-0.1800,1.6200,0.6400,0.0000,0.0850,-0.4236,-0.0430,996,1497,1527,1502,2008,1000,1505,1000,1000,1629,1005,1498,1014,-13.2811,11.4392,18.9878,-0.0783,-0.0262,1.0063,0.4656,0.3817,-0.5516,-0.2956,0.8627,0.2400,0.1321,0.8627,0.2400,0.1321,0.3000,0.0600,0.0002,0,-3.3305,-3.5000,-0.2490,-3.3305,-3.5000,-0.2490,9.7736,48.1744,-0.0300,0.2700,0.0000,0.0000,0.0000,0.0000,0.0000,0.0000
-0.9452,49.0674,-29.1746,0.4144,0.1642,-0.1800,1.6200,0.6400,0.0000,0.0848,-0.4258,-0.0444,996,1497,1527,1502,2008,1000,1505,1000,1000,1630,1005,1498,1014,-13.8096,12.4359,19.4151,-0.0687,0.0292,1.0133,0.4662,0.3853,-0.5550,-0.2965,0.8627,0.2400,0.1321,0.8627,0.2400,0.1321,0.3000,0.0600,0.0002,0,-3.3350,-3.5000,-0.2490,-3.3350,-3.5000,-0.2490,9.9444,48.2702,-0.0300,0.2700,0.0000,0.0000,0.0000,0.0000,0.0000,0.0000
-0.8610,49.1746,-28.8642,0.4144,0.0821,-0.1800,1.6200,0.6400,0.0000,0.0843,-0.4288,-0.0452,996,1497,1527,1502,2008,1000,1505,1000,1000,1630,1005,1498,1014,-13.9769,14.0342,19.6369,-0.1052,-0.0097,1.0268,0.4679,0.3897,-0.5583,-0.2992,0.8627,0.2400,0.1321,0.8627,0.2400,0.1321,0.3000,0.0600,0.0002,0,-3.3350,-3.5000,-0.2490,-3.3350,-3.5000,-0.2490,10.1141,48.3653,-0.0300,0.2700,0.0000,0.0000,0.0000,0.0000,0.0000,0.0000
-0.7541,49.2897,-28.5460,0.4972,0.1642,-0.1800,1.6200,0.6400,0.0000,0.0815,-0.4300,-0.0462,996,1497,1527,1502,2008,1000,1505,1000,1000,1630,1005,1498,1014,-12.5120,14.2217,19.9680,-0.0793,0.0326,1.0184,0.4653,0.3947,-0.5577,-0.3024,0.8627,0.2400,0.1321,0.8627,0.2400,0.1321,0.3000,0.0600,0.0002,0,-3.3350,-3.5000,-0.2490,-3.3350,-3.5000,-0.2490,10.2836,48.4576,-0.0300,0.2700,0.0000,0.0000,0.0000,0.0000,0.0000,0.0000
-0.6459,49.4145,-28.2287,0.4972,0.0821,-0.1800,1.6200,0.6400,0.0000,0.0803,-0.4331,-0.0453,998,1498,1528,1502,2008,1000,1505,1000,1000,1630,1005,1498,1014,-12.3362,15.7293,19.6293,-0.0965,-0.0142,1.0083,0.4681,0.3981,-0.5587,-0.3075,0.8627,0.2400,0.1321,0.8627,0.2400,0.1321,0.3000,0.0600,0.0002,0,-3.3350,-3.5000,-0.2490,-3.3350,-3.5000,-0.2490,10.4528,48.5478,-0.0300,0.2700,0.0000,0.0000,0.0000,0.0000,0.0000,0.0000
-0.5259,49.5479,-27.9177,0.4972,0.0821,-0.1800,1.6200,0.6400,0.0000,0.0768,-0.4346,-0.0432,996,1497,1527,1502,2008,1000,1505,1000,1000,1630,1005,1498,1014,-10.4579,15.9700,18.9340,-0.0928,0.0118,0.9902,0.4682,0.4009,-0.5545,-0.3146,0.8627,0.2400,0.1321,0.8627,0.2400,0.1321,0.3000,0.0600,0.0002,0,-3.3350,-3.5000,-0.2490,-3.3350,-3.5000,-0.2490,10.6046,48.6411,-0.0300,0.2700,0.0000,0.0000,0.0000,0.0000,0.0000,0.0000
-0.4223,49.6839,-27.6278,0.4144,0.2462,-0.1800,1.6200,0.6400,0.0000,0.0774,-0.4366,-0.0377,996,1497,1527,1502,2008,1000,1505,1000,1000,1629,1005,1498,1014,-11.5897,16.6093,17.0700,-0.1073,-0.0247,0.9830,0.4763,0.3969,-0.5517,-0.3215,0.8627,0.2400,0.1321,0.8627,0.2400,0.1321,0.3000,0.0600,0.0002,0,-3.3305,-3.5000,-0.2490,-3.3305,-3.5000,-0.2490,10.7436,48.7357,-0.0300,0.2700,0.0000,0.0000,0.0000,0.0000,0.0000,0.0000
-0.3408,49.8249,-27.3667,0.4972,0.1642,-0.1800,1.6200,0.6400,0.0000,0.0759,-0.4376,-0.0326,996,1497,1527,1502,2008,1000,1505,1000,1000,1629,1005,1498,1014,-10.9692,16.4786,15.3824,-0.1176,-0.0079,0.9666,0.4809,0.3943,-0.5461,-0.3292,0.8627,0.2400,0.1321,0.8627,0.2400,0.1321,0.3000,0.0600,0.0002,0,-3.3305,-3.5000,-0.2490,-3.3305,-3.5000,-0.2490,10.8486,48.8394,-0.0300,0.2700,0.0000,0.0000,0.0000,0.0000,0.0000,0.0000
-0.2874,49.9611,-27.1354,0.2486,-0.0000,-0.1800,1.6200,0.6400,0.0000,0.0775,-0.4388,-0.0262,996,1497,1527,1502,2008,1000,1505,1000,1000,1630,1005,1498,1014,-12.5548,16.4444,13.1977,-0.1302,-0.0081,0.9801,0.4901,0.3874,-0.5424,-0.3351,0.8627,0.2400,0.1321,0.8627,0.2400,0.1321,0.3000,0.0600,0.0002,0,-3.3350,-3.5000,-0.2490,-3.3350,-3.5000,-0.2490,10.9380,48.9476,-0.0300,0.2700,0.0000,0.0000,0.0000,0.0000,0.0000,0.0000
-0.2667,50.1016,-26.9375,0.4144,0.1642,-0.1800,1.6200,0.6400,0.0000,0.0765,-0.4403,-0.0209,996,1497,1527,1502,2008,1000,1505,1000,1000,1630,1005,1498,1014,-11.8890,16.7142,11.3860,-0.1467,-0.0148,0.9998,0.4959,0.3848,-0.5377,-0.3430,0.8627,0.2400,0.1321,0.8627,0.2400,0.1321,0.3000,0.0600,0.0002,0,-3.3350,-3.5000,-0.2490,-3.3350,-3.5000,-0.2490,10.9952,49.0655,-0.0300,0.2700,0.0000,0.0000,0.0000,0.0000,0.0000,0.0000
-0.2638,50.2411,-26.7681,0.4972,-0.0000,-0.1800,1.6200,0.6400,0.0000,0.0776,-0.4416,-0.0149,998,1498,1529,1502,2008,1000,1505,1000,1000,1629,1005,1498,1014,-12.7627,16.7834,9.3617,-0.1411,0.0036,1.0006,0.5044,0.3789,-0.5341,-0.3492,0.8627,0.2400,0.1321,0.8627,0.2400,0.1321,0.3000,0.0600,0.0002,0,-3.3305,-3.5000,-0.2490,-3.3305,-3.5000,-0.2490,11.0338,49.1890,-0.0300,0.2700,0.0000,0.0000,0.0000,0.0000,0.0000,0.0000
-0.2910,50.3868,-26.6310,0.4144,0.0821,-0.1800,1.6200,0.6400,0.0000,0.0768,-0.4438,-0.0099,996,1497,1527,1502,2008,1000,1505,1000,1000,1630,1005,1498,1014,-12.0273,17.4783,7.7024,-0.1479,-0.0100,1.0143,0.5107,0.3769,-0.5306,-0.3570,0.8627,0.2400,0.1321,0.8627,0.2400,0.1321,0.3000,0.0600,0.0002,0,-3.3350,-3.5000,-0.2490,-3.3350,-3.5000,-0.2490,11.0439,49.3218,-0.0300,0.2700,0.0000,0.0000,0.0000,0.0000,0.0000,0.0000
-0.3303,50.5352,-26.5198,0.4972,0.0821,-0.1800,1.6200,0.6400,0.0000,0.0775,-0.4453,-0.0044,996,1497,1527,1502,2008,1000,1505,1000,1000,1630,1005,1498,1014,-12.2811,17.6440,5.8548,-0.1342,0.0079,1.0000,0.5184,0.3722,-0.5272,-0.3634,0.8627,0.2400,0.1321,0.8627,0.2400,0.1321,0.3000,0.0600,0.0002,0,-3.3350,-3.5000,-0.2490,-3.3350,-3.5000,-0.2490,11.0377,49.4597,-0.0300,0.2700,0.0000,0.0000,0.0000,0.0000,0.0000,0.0000
-0.4021,50.6920,-26.4416,0.3315,0.0821,-0.1800,1.6200,0.6400,0.0000,0.0783,-0.4481,0.0011,996,1497,1527,1502,2008,1000,1505,1000,1000,1629,1005,1498,1014,-12.4005,18.7102,4.0181,-0.1481,-0.0278,0.9893,0.5274,0.3687,-0.5253,-0.3708,0.8627,0.2400,0.1321,0.8627,0.2400,0.1321,0.3000,0.0600,0.0002,0,-3.3305,-3.5000,-0.2490,-3.3305,-3.5000,-0.2490,11.0075,49.6054,-0.0300,0.2700,0.0000,0.0000,0.0000,0.0000,0.0000,0.0000
-0.4897,50.8510,-26.3938,0.4144,0.0821,-0.1800,1.6200,0.6400,0.0000,0.0785,-0.4488,0.0069,996,1497,1527,1502,2008,1000,1505,1000,1000,1629,1005,1498,1014,-11.9962,18.1948,2.0575,-0.1455,-0.0007,0.9742,0.5342,0.3633,-0.5203,-0.3772,0.8627,0.2400,0.1321,0.8627,0.2400,0.1321,0.3000,0.0600,0.0002,0,-3.3305,-3.5000,-0.2490,-3.3305,-3.5000,-0.2490,10.9540,49.7571,-0.0300,0.2700,0.0000,0.0000,0.0000,0.0000,0.0000,0.0000
-0.6095,51.0078,-26.3771,0.4144,0.0821,-0.1800,1.6200,0.6400,0.0000,0.0806,-0.4502,0.0112,996,1497,1527,1502,2008,1000,1505,1000,1000,1630,1005,1498,1014,-12.7701,18.2712,0.5901,-0.1696,-0.0204,0.9888,0.5420,0.3584,-0.5196,-0.3808,0.8627,0.2400,0.1321,0.8627,0.2400,0.1321,0.3000,0.0600,0.0002,0,-3.3350,-3.5000,-0.2490,-3.3350,-3.5000,-0.2490,10.8827,49.9138,-0.0300,0.2700,0.0000,0.0000,0.0000,0.0000,0.0000,0.0000
-0.7427,51.1588,-26.3792,0.4144,0.0821,-0.1800,1.6200,0.6400,0.0000,0.0816,-0.4500,0.0140,998,1498,1528,1502,2008,1000,1505,1000,1000,1630,1005,1498,1014,-12.6552,17.1430,-0.3351,-0.1608,0.0012,0.9843,0.5456,0.3545,-0.5176,-0.3824,0.8627,0.2400,0.1321,0.8627,0.2400,0.1321,0.3000,0.0600,0.0002,0,-3.3350,-3.5000,-0.2490,-3.3350,-3.5000,-0.2490,10.7936,50.0765,-0.0300,0.2700,0.0000,0.0000,0.0000,0.0000,0.0000,0.0000
-0.8956,51.2991,-26.3947,0.4972,0.0821,-0.1800,1.6200,0.6400,0.0000,0.0848,-0.4504,0.0154,996,1497,1527,1502,2008,1000,1505,1000,1000,1630,1005,1498,1014,-14.0744,16.5034,-0.8522,-0.1589,-0.0246,0.9972,0.5505,0.3502,-0.5198,-0.3810,0.8627,0.2400,0.1321,0.8627,0.2400,0.1321,0.3000,0.0600,0.0002,0,-3.3350,-3.5000,-0.2490,-3.3350,-3.5000,-0.2490,10.7030,50.2414,-0.0300,0.2700,0.0000,0.0000,0.0000,0.0000,0.0000,0.0000
-1.0586,51.4321,-26.4116,0.4144,0.1642,-0.1800,1.6200,0.6400,0.0000,0.0867,-0.4501,0.0143,996,1497,1527,1502,2008,1000,1505,1000,1000,1630,1005,1498,1014,-14.4637,15.4518,-0.5137,-0.1484,-0.0102,1.0077,0.5511,0.3491,-0.5225,-0.3778,0.8627,0.2400,0.1321,0.8627,0.2400,0.1321,0.3000,0.0600,0.0002,0,-3.3350,-3.5000,-0.2490,-3.3350,-3.5000,-0.2490,10.6068,50.4080,-0.0300,0.2700,0.0000,0.0000,0.0000,0.0000,0.0000,0.0000
-1.2245,51.5548,-26.4176,0.4144,0.1642,-0.1800,1.6200,0.6400,0.0000,0.0904,-0.4506,0.0113,996,1497,1527,1502,2008,1000,1505,1000,1000,1630,1005,1498,1014,-16.1583,14.9893,0.4345,-0.1416,-0.0129,0.9988,0.5523,0.3489,-0.5296,-0.3716,0.8627,0.2400,0.1321,0.8627,0.2400,0.1321,0.3000,0.0600,0.0002,0,-3.3350,-3.5000,-0.2490,-3.3350,-3.5000,-0.2490,10.5220,50.5699,-0.0300,0.2700,0.0000,0.0000,0.0000,0.0000,0.0000,0.0000
-1.3844,51.6768,-26.4042,0.4144,0.1642,-0.1800,1.6200,0.6400,0.0000,0.0920,-0.4512,0.0077,996,1497,1527,1502,2008,1000,1505,1000,1000,1629,1005,1498,1014,-16.3648,14.6308,1.6754,-0.1558,-0.0125,0.9972,0.5509,0.3514,-0.5355,-0.3669,0.8627,0.2400,0.1321,0.8627,0.2400,0.1321,0.3000,0.0600,0.0002,0,-3.3305,-3.5000,-0.2490,-3.3305,-3.5000,-0.2490,10.4497,50.7278,-0.0300,0.2700,0.0000,0.0000,0.0000,0.0000,0.0000,0.0000
-1.5375,51.7880,-26.3744,0.4972,0.1642,-0.1800,1.6200,0.6400,0.0000,0.0946,-0.4507,0.0055,996,1497,1527,1502,2008,1000,1505,1000,1000,1629,1005,1498,1014,-17.3230,13.5318,2.4165,-0.1665,-0.0232,0.9895,0.5507,0.3506,-0.5398,-0.3616,0.8627,0.2400,0.1321,0.8627,0.2400,0.1321,0.3000,0.0600,0.0002,0,-3.3305,-3.5000,-0.2490,-3.3305,-3.5000,-0.2490,10.3953,50.8813,-0.0300,0.2700,0.0000,0.0000,0.0000,0.0000,0.0000,0.0000
-1.6909,51.8905,-26.3367,0.5801,0.2462,-0.1800,1.6200,0.6400,0.0000,0.0960,-0.4500,0.0048,998,1498,1528,1502,2008,1000,1505,1000,1000,1629,1005,1498,1014,-17.4042,12.3638,2.6841,-0.1891,-0.0311,0.9698,0.5508,0.3492,-0.5413,-0.3588,0.8627,0.2400,0.1321,0.8627,0.2400,0.1321,0.3000,0.0600,0.0002,0,-3.3305,-3.5000,-0.2490,-3.3305,-3.5000,-0.2490,10.3395,51.0308,-0.0300,0.2700,0.0000,0.0000,0.0000,0.0000,0.0000,0.0000
-1.8483,51.9715,-26.2991,0.4972,0.3283,-0.1800,1.6200,0.6400,0.0000,0.0989,-0.4474,0.0059,996,1497,1527,1502,2008,1000,1505,1000,1000,1630,1005,1498,1014,-18.5692,9.8494,2.3163,-0.1917,-0.0178,0.9628,0.5522,0.3425,-0.5404,-0.3544,0.8627,0.2400,0.1321,0.8627,0.2400,0.1321,0.3000,0.0600,0.0002,0,-3.3350,-3.5000,-0.2490,-3.3350,-3.5000,-0.2490,10.2763,51.1750,-0.0300,0.2700,0.0000,0.0000,0.0000,0.0000,0.0000,0.0000
-2.0288,52.0280,-26.2688,0.5801,0.3283,-0.1800,1.6200,0.6400,0.0000,0.1026,-0.4448,0.0074,996,1497,1527,1502,2008,1000,1505,1000,1000,1630,1005,1498,1014,-20.1467,7.5542,1.8240,-0.2119,-0.0380,0.9649,0.5548,0.3349,-0.5400,-0.3497,0.8627,0.2400,0.1321,0.8627,0.2400,0.1321,0.3000,0.0600,0.0002,0,-3.3350,-3.5000,-0.2490,-3.3350,-3.5000,-0.2490,10.2048,51.3139,-0.0300,0.2700,0.0000,0.0000,0.0000,0.0000,0.0000,0.0000
-2.2329,52.0540,-26.2467,0.6630,0.4925,-0.1800,1.6200,0.6400,0.0000,0.1071,-0.4406,0.0091,996,1497,1527,1502,2008,1000,1505,1000,1000,1630,1005,1498,1014,-22.2259,4.1635,1.2458,-0.2154,-0.0267,0.9576,0.5568,0.3244,-0.5385,-0.3427,0.8627,0.2400,0.1321,0.8627,0.2400,0.1321,0.3000,0.0600,0.0002,0,-3.3350,-3.5000,-0.2490,-3.3350,-3.5000,-0.2490,10.1309,51.4537,-0.0300,0.2700,0.0000,0.0000,0.0000,0.0000,0.0000,0.0000
-2.4667,52.0450,-26.2272,0.8287,0.4925,-0.1800,1.6200,0.6400,0.0000,0.1128,-0.4366,0.0086,996,1497,1527,1502,2008,1000,1505,1000,1000,1630,1005,1498,1014,-25.0353,1.1901,1.3753,-0.2243,-0.0355,0.9703,0.5580,0.3152,-0.5408,-0.3324,0.8627,0.2400,0.1321,0.8627,0.2400,0.1321,0.3000,0.0600,0.0002,0,-3.3350,-3.5000,-0.2490,-3.3350,-3.5000,-0.2490,10.0378,51.5909,-0.0300,0.2700,0.0000,0.0000,0.0000,0.0000,0.0000,0.0000
-2.7169,52.0071,-26.1975,0.8287,0.6566,-0.1800,1.6200,0.6400,0.0000,0.1179,-0.4322,0.0065,996,1497,1527,1502,2008,1000,1505,1000,1000,1630,1005,1498,1014,-27.2748,-1.8837,2.0741,-0.2145,-0.0190,0.9766,0.5566,0.3078,-0.5437,-0.3207,0.8627,0.2400,0.1321,0.8627,0.2400,0.1321,0.3000,0.0600,0.0002,0,-3.3350,-3.5000,-0.2490,-3.3350,-3.5000,-0.2490,9.9472,51.7225,-0.0300,0.2700,0.0000,0.0000,0.0000,0.0000,0.0000,0.0000
-2.9793,51.9379,-26.1448,0.9945,0.8208,-0.1800,1.6200,0.6400,0.0000,0.1237,-0.4282,0.0016,998,1498,1529,1502,2008,1000,1505,1000,1000,1629,1005,1498,1014,-29.9586,-4.4910,3.6461,-0.2125,-0.0360,0.9752,0.5535,0.3028,-0.5503,-0.3061,0.8627,0.2400,0.1321,0.8627,0.2400,0.1321,0.3000,0.0600,0.0002,0,-3.3350,-3.5000,-0.2490,-3.3350,-3.5000,-0.2490,9.8726,51.8454,-0.0300,0.2700,0.0000,0.0000,0.0000,0.0000,0.0000,0.0000
-3.2313,51.8453,-26.0619,1.0773,0.9029,-0.1800,1.6200,0.6400,0.0000,0.1269,-0.4243,-0.0030,996,1497,1527,1502,2008,1000,1505,1000,1000,1629,1005,1498,1014,-30.7108,-6.8450,5.2086,-0.2072,-0.0408,0.9719,0.5481,0.3004,-0.5542,-0.2943,0.8627,0.2400,0.1321,0.8627,0.2400,0.1321,0.3000,0.0600,0.0002,0,-3.3305,-3.5000,-0.2490,-3.3305,-3.5000,-0.2490,9.7976,51.9671,-0.0300,0.2700,0.0000,0.0000,0.0000,0.0000,0.0000,0.0000
-3.4809,51.7329,-25.9581,1.2431,1.3133,-0.1800,1.6200,0.6400,0.0000,0.1304,-0.4216,-0.0055,996,1497,1527,1502,2008,1000,1505,1000,1000,1630,1005,1498,1014,-31.7230,-8.1083,6.0338,-0.2033,-0.0877,0.9661,0.5465,0.2967,-0.5574,-0.2858,0.8627,0.2400,0.1321,0.8627,0.2400,0.1321,0.3000,0.0600,0.0002,0,-3.3350,-3.5000,-0.2490,-3.3350,-3.5000,-0.2490,9.7396,52.0814,-0.0300,0.2700,0.0000,0.0000,0.0000,0.0000,0.0000,0.0000
-3.7281,51.6090,-25.8524,1.3260,1.2312,-0.1800,1.6200,0.6400,0.0000,0.1317,-0.4184,-0.0036,996,1497,1527,1502,2008,1000,1505,1000,1000,1630,1005,1498,1014,-31.1055,-9.7178,5.4967,-0.1950,-0.1077,0.9546,0.5465,0.2903,-0.5537,-0.2831,0.8627,0.2400,0.1321,0.8627,0.2400,0.1321,0.3000,0.0600,0.0002,0,-3.3350,-3.5000,-0.2490,-3.3350,-3.5000,-0.2490,9.6627,52.1887,-0.0300,0.2700,0.0000,0.0000,0.0000,0.0000,0.0000,0.0000
-3.9904,51.4680,-25.7638,1.4088,1.6416,-0.1800,1.6200,0.6400,0.0000,0.1344,-0.4157,0.0008,996,1497,1527,1502,2008,1000,1505,1000,1000,1630,1005,1498,1014,-31.4084,-10.8907,4.0560,-0.1759,-0.1379,0.9373,0.5508,0.2805,-0.5492,-0.2821,0.8627,0.2400,0.1321,0.8627,0.2400,0.1321,0.3000,0.0600,0.0002,0,-3.3350,-3.5000,-0.2490,-3.3350,-3.5000,-0.2490,9.5534,52.2952,-0.0300,0.2700,0.0000,0.0000,0.0000,0.0000,0.0000,0.0000
-4.2719,51.3218,-25.7062,1.4088,1.8878,-0.1800,1.6200,0.6400,0.0000,0.1356,-0.4142,0.0071,996,1497,1527,1502,2008,1000,1505,1000,1000,1630,1005,1498,1014,-30.4975,-11.0587,1.9662,-0.1698,-0.1466,0.9340,0.5568,0.2715,-0.5427,-0.2857,0.8627,0.2400,0.1321,0.8627,0.2400,0.1321,0.3000,0.0600,0.0002,0,-3.3350,-3.5000,-0.2490,-3.3350,-3.5000,-0.2490,9.4157,52.3940,-0.0300,0.2700,0.0000,0.0000,0.0000,0.0000,0.0000,0.0000
-4.5792,51.1691,-25.6847,1.5746,2.1341,-0.1800,1.6200,0.6400,0.0000,0.1383,-0.4131,0.0141,998,1498,1528,1502,2008,1000,1505,1000,1000,1630,1005,1498,1014,-30.5409,-10.9023,-0.3724,-0.1529,-0.1591,0.9414,0.5655,0.2606,-0.5372,-0.2889,0.8627,0.2400,0.1321,0.8627,0.2400,0.1321,0.3000,0.0600,0.0002,0,-3.3350,-3.5000,-0.2490,-3.3350,-3.5000,-0.2490,9.2197,52.4923,-0.0300,0.2700,0.0000,0.0000,0.0000,0.0000,0.0000,0.0000
-4.9117,51.0216,-25.7002,1.4917,2.2161,-0.1800,1.6200,0.6400,0.0000,0.1407,-0.4123,0.0201,996,1497,1527,1502,2008,1000,1505,1000,1000,1629,1005,1498,1014,-30.2020,-10.4929,-2.4097,-0.1646,-0.1344,0.9715,0.5731,0.2515,-0.5329,-0.2917,0.8627,0.2400,0.1321,0.8627,0.2400,0.1321,0.3000,0.0600,0.0002,0,-3.3305,-3.5000,-0.2490,-3.3305,-3.5000,-0.2490,8.9804,52.5775,-0.0300,0.2700,0.0000,0.0000,0.0000,0.0000,0.0000,0.0000
-5.2630,50.8754,-25.7396,1.7403,2.3803,-0.1800,1.6200,0.6400,0.0000,0.1439,-0.4118,0.0239,996,1497,1527,1502,2008,1000,1505,1000,1000,1629,1005,1498,1014,-30.3540,-9.9124,-3.7090,-0.1604,-0.1122,0.9713,0.5797,0.2440,-0.5319,-0.2918,0.8627,0.2400,0.1321,0.8627,0.2400,0.1321,0.3000,0.0600,0.0002,0,-3.3305,-3.5000,-0.2490,-3.3305,-3.5000,-0.2490,8.7035,52.6562,-0.0300,0.2700,0.0000,0.0000,0.0000,0.0000,0.0000,0.0000
-5.6172,50.7432,-25.7937,1.7403,2.5445,-0.1800,1.6200,0.6400,0.0000,0.1456,-0.4133,0.0257,996,1497,1527,1502,2008,1000,1505,1000,1000,1630,1005,1498,1014,-29.3122,-7.9164,-4.2893,-0.1620,-0.1136,0.9732,0.5847,0.2420,-0.5332,-0.2934,0.8627,0.2400,0.1321,0.8627,0.2400,0.1321,0.3000,0.0600,0.0002,0,-3.3350,-3.5000,-0.2490,-3.3350,-3.5000,-0.2490,8.4048,52.7205,-0.0300,0.2700,0.0000,0.0000,0.0000,0.0000,0.0000,0.0000
-5.9751,50.6308,-25.8651,1.8232,2.5445,-0.1800,1.6200,0.6400,0.0000,0.1466,-0.4150,0.0297,996,1497,1527,1502,2008,1000,1505,1000,1000,1630,1005,1498,1014,-27.7354,-5.8979,-5.5886,-0.1581,-0.1417,0.9665,0.5914,0.2387,-0.5319,-0.2981,0.8627,0.2400,0.1321,0.8627,0.2400,0.1321,0.3000,0.0600,0.0002,0,-3.3350,-3.5000,-0.2490,-3.3350,-3.5000,-0.2490,8.0848,52.7672,-0.0300,0.2700,0.0000,0.0000,0.0000,0.0000,0.0000,0.0000
-6.3375,50.5387,-25.9675,1.9061,2.5445,-0.1800,1.6200,0.6400,0.0000,0.1477,-0.4174,0.0355,996,1497,1527,1502,2008,1000,1505,1000,1000,1630,1005,1498,1014,-26.1929,-3.4873,-7.4525,-0.1546,-0.1747,0.9609,0.6006,0.2342,-0.5297,-0.3052,0.8627,0.2400,0.1321,0.8627,0.2400,0.1321,0.3000,0.0600,0.0002,0,-3.3350,-3.5000,-0.2490,-3.3350,-3.5000,-0.2490,7.7287,52.8001,-0.0300,0.2700,0.0000,0.0000,0.0000,0.0000,0.0000,0.0000
-6.7190,50.4673,-26.1157,1.9061,2.6265,-0.1800,1.6200,0.6400,0.0000,0.1483,-0.4195,0.0445,998,1498,1529,1502,2008,1000,1505,1000,1000,1630,1005,1498,1014,-24.1195,-1.4435,-10.3915,-0.1355,-0.2136,0.9456,0.6122,0.2268,-0.5233,-0.3157,0.8627,0.2400,0.1321,0.8627,0.2400,0.1321,0.3000,0.0600,0.0002,0,-3.3350,-3.5000,-0.2490,-3.3350,-3.5000,-0.2490,7.3244,52.8197,-0.0300,0.2700,0.0000,0.0000,0.0000,0.0000,0.0000,0.0000
-7.1260,50.4096,-26.3190,1.9061,2.6265,-0.1800,1.6200,0.6400,0.0000,0.1503,-0.4207,0.0540,996,1497,1527,1502,2008,1000,1505,1000,1000,1630,1005,1498,1014,-22.9890,-0.1276,-13.5407,-0.1270,-0.2260,0.9317,0.6250,0.2165,-0.5171,-0.3244,0.8627,0.2400,0.1321,0.8627,0.2400,0.1321,0.3000,0.0600,0.0002,0,-3.3350,-3.5000,-0.2490,-3.3350,-3.5000,-0.2490,6.8538,52.8235,-0.0300,0.2700,0.0000,0.0000,0.0000,0.0000,0.0000,0.0000
-7.5593,50.3561,-26.5720,1.9061,2.6265,-0.1800,1.6200,0.6400,0.0000,0.1525,-0.4209,0.0623,996,1497,1527,1502,2008,1000,1505,1000,1000,1630,1005,1498,1014,-21.7939,0.3351,-16.3236,-0.1293,-0.2102,0.9291,0.6357,0.2061,-0.5110,-0.3308,0.8627,0.2400,0.1321,0.8627,0.2400,0.1321,0.3000,0.0600,0.0002,0,-3.3350,-3.5000,-0.2490,-3.3350,-3.5000,-0.2490,6.3259,52.8124,-0.0300,0.2700,0.0000,0.0000,0.0000,0.0000,0.0000,0.0000
-8.0071,50.2940,-26.8583,1.9890,2.6265,-0.1800,1.6200,0.6400,0.0000,0.1556,-0.4188,0.0674,996,1497,1527,1502,2008,1000,1505,1000,1000,1630,1005,1498,1014,-21.2576,-0.8340,-18.0256,-0.1521,-0.1849,0.9362,0.6418,0.1958,-0.5070,-0.3306,0.8627,0.2400,0.1321,0.8627,0.2400,0.1321,0.3000,0.0600,0.0002,0,-3.3350,-3.5000,-0.2490,-3.3350,-3.5000,-0.2490,5.7575,52.7820,-0.0300,0.2700,0.0000,0.0000,0.0000,0.0000,0.0000,0.0000
-8.4601,50.2093,-27.1561,1.9061,2.6265,-0.1800,1.6200,0.6400,0.0000,0.1594,-0.4147,0.0693,996,1497,1527,1502,2008,1000,1505,1000,1000,1629,1005,1498,1014,-21.1480,-3.3676,-18.6709,-0.1688,-0.1641,0.9575,0.6434,0.1861,-0.5048,-0.3247,0.8627,0.2400,0.1321,0.8627,0.2400,0.1321,0.3000,0.0600,0.0002,0,-3.3305,-3.5000,-0.2490,-3.3305,-3.5000,-0.2490,5.1715,52.7318,-0.0300,0.2700,0.0000,0.0000,0.0000,0.0000,0.0000,0.0000
-8.9046,50.0889,-27.4446,1.9061,2.5445,-0.1800,1.6200,0.6400,0.0000,0.1638,-0.4086,0.0684,996,1497,1527,1502,2008,1000,1505,1000,1000,1629,1005,1498,1014,-21.6288,-7.1894,-18.3676,-0.1751,-0.1302,0.9612,0.6409,0.1764,-0.5041,-0.3132,0.8627,0.2400,0.1321,0.8627,0.2400,0.1321,0.3000,0.0600,0.0002,0,-3.3305,-3.5000,-0.2490,-3.3305,-3.5000,-0.2490,4.5779,52.6598,-0.0300,0.2700,0.0000,0.0000,0.0000,0.0000,0.0000,0.0000
-9.3363,49.9274,-27.7062,1.9061,2.5445,-0.1800,1.6200,0.6400,0.0000,0.1687,-0.4020,0.0648,998,1498,1528,1502,2008,1000,1505,1000,1000,1629,1005,1498,1014,-22.4769,-11.1381,-17.1631,-0.1554,-0.1191,0.9693,0.6355,0.1686,-0.5059,-0.2981,0.8627,0.2400,0.1321,0.8627,0.2400,0.1321,0.3000,0.0600,0.0002,0,-3.3305,-3.5000,-0.2490,-3.3305,-3.5000,-0.2490,3.9996,52.5650,-0.0300,0.2700,0.0000,0.0000,0.0000,0.0000,0.0000,0.0000
-9.7497,49.7306,-27.9323,1.9061,2.5445,-0.1800,1.6200,0.6400,0.0000,0.1739,-0.3964,0.0605,996,1497,1527,1502,2008,1000,1505,1000,1000,1629,1005,1498,1014,-23.6954,-14.1178,-15.6973,-0.1380,-0.1261,0.9621,0.6308,0.1620,-0.5098,-0.2831,0.8627,0.2400,0.1321,0.8627,0.2400,0.1321,0.3000,0.0600,0.0002,0,-3.3305,-3.5000,-0.2490,-3.3305,-3.5000,-0.2490,3.4493,52.4459,-0.0300,0.2700,0.0000,0.0000,0.0000,0.0000,0.0000,0.0000
-10.1509,49.5106,-28.1276,1.9061,2.5445,-0.1800,1.6200,0.6400,0.0000,0.1781,-0.3921,0.0569,996,1497,1527,1502,2008,1000,1505,1000,1000,1629,1005,1498,1014,-24.3008,-15.9388,-14.4402,-0.1237,-0.1717,0.9648,0.6272,0.1570,-0.5133,-0.2709,0.8627,0.2400,0.1321,0.8627,0.2400,0.1321,0.3000,0.0600,0.0002,0,-3.3305,-3.5000,-0.2490,-3.3305,-3.5000,-0.2490,2.9268,52.3055,-0.0300,0.2700,0.0000,0.0000,0.0000,0.0000,0.0000,0.0000
-10.5447,49.2778,-28.3047,1.9061,2.6265,-0.1800,1.6200,0.6400,0.0000,0.1824,-0.3889,0.0556,996,1497,1527,1502,2008,1000,1505,1000,1000,1630,1005,1498,1014,-24.9534,-16.8625,-13.9335,-0.1135,-0.2099,0.9651,0.6268,0.1509,-0.5157,-0.2621,0.8627,0.2400,0.1321,0.8627,0.2400,0.1321,0.3000,0.0600,0.0002,0,-3.3350,-3.5000,-0.2490,-3.3350,-3.5000,-0.2490,2.4262,52.1451,-0.0300,0.2700,0.0000,0.0000,0.0000,0.0000,0.0000,0.0000
-10.9387,49.0390,-28.4752,1.7403,2.4624,-0.1800,1.6200,0.6400,0.0000,0.1860,-0.3864,0.0558,996,1497,1527,1502,2008,1000,1505,1000,1000,1630,1005,1498,1014,-25.0983,-17.1449,-13.9261,-0.1009,-0.2426,0.9605,0.6282,0.1447,-0.5167,-0.2562,0.8627,0.2400,0.1321,0.8627,0.2400,0.1321,0.3000,0.0600,0.0002,0,-3.3350,-3.5000,-0.2490,-3.3350,-3.5000,-0.2490,1.9375,51.9671,-0.0300,0.2700,0.0000,0.0000,0.0000,0.0000,0.0000,0.0000
-11.3331,48.7957,-28.6464,1.9061,2.6265,-0.1800,1.6200,0.6400,0.0000,0.1892,-0.3840,0.0568,996,1497,1527,1502,2008,1000,1505,1000,1000,1630,1005,1498,1014,-24.9519,-17.3860,-14.2587,-0.0895,-0.2528,0.9471,0.6300,0.1380,-0.5164,-0.2517,0.8627,0.2400,0.1321,0.8627,0.2400,0.1321,0.3000,0.0600,0.0002,0,-3.3350,-3.5000,-0.2490,-3.3350,-3.5000,-0.2490,1.4520,51.7716,-0.0300,0.2700,0.0000,0.0000,0.0000,0.0000,0.0000,0.0000
-11.7217,48.5484,-28.8179,1.7403,2.4624,-0.1800,1.6200,0.6400,0.0000,0.1914,-0.3813,0.0573,998,1498,1528,1502,2008,1000,1505,1000,1000,1630,1005,1498,1014,-24.0685,-17.7938,-14.4003,-0.0916,-0.2453,0.9292,0.6300,0.1327,-0.5154,-0.2473,0.8627,0.2400,0.1321,0.8627,0.2400,0.1321,0.3000,0.0600,0.0002,0,-3.3350,-3.5000,-0.2490,-3.3350,-3.5000,-0.2490,0.9680,51.5567,-0.0300,0.2700,0.0000,0.0000,0.0000,0.0000,0.0000,0.0000
-12.0937,48.2947,-28.9831,1.8232,2.5445,-0.1800,1.6200,0.6400,0.0000,0.1930,-0.3783,0.0568,996,1497,1527,1502,2008,1000,1505,1000,1000,1630,1005,1498,1014,-22.9043,-18.4558,-14.2434,-0.0972,-0.2333,0.9261,0.6282,0.1284,-0.5145,-0.2421,0.8627,0.2400,0.1321,0.8627,0.2400,0.1321,0.3000,0.0600,0.0002,0,-3.3350,-3.5000,-0.2490,-3.3350,-3.5000,-0.2490,0.4919,51.3248,-0.0300,0.2700,0.0000,0.0000,0.0000,0.0000,0.0000,0.0000
-12.4385,48.0317,-29.1330,1.7403,2.4624,-0.1800,1.6200,0.6400,0.0000,0.1940,-0.3743,0.0541,996,1497,1527,1502,2008,1000,1505,1000,1000,1629,1005,1498,1014,-21.3553,-19.7198,-13.3102,-0.1098,-0.2256,0.9285,0.6224,0.1263,-0.5142,-0.2344,0.8627,0.2400,0.1321,0.8627,0.2400,0.1321,0.3000,0.0600,0.0002,0,-3.3305,-3.5000,-0.2490,-3.3305,-3.5000,-0.2490,0.0312,51.0767,-0.0300,0.2700,0.0000,0.0000,0.0000,0.0000,0.0000,0.0000
-12.7486,47.7564,-29.2580,1.8232,2.5445,-0.1800,1.6200,0.6400,0.0000,0.1949,-0.3701,0.0503,996,1497,1527,1502,2008,1000,1505,1000,1000,1629,1005,1498,1014,-20.0153,-21.1201,-12.0526,-0.1089,-0.2233,0.9312,0.6152,0.1250,-0.5147,-0.2255,0.8627,0.2400,0.1321,0.8627,0.2400,0.1321,0.3000,0.0600,0.0002,0,-3.3305,-3.5000,-0.2490,-3.3305,-3.5000,-0.2490,-0.4065,50.8154,-0.0300,0.2700,0.0000,0.0000,0.0000,0.0000,0.0000,0.0000
-13.0194,47.4703,-29.3518,1.7403,2.3803,-0.1800,1.6200,0.6400,0.0000,0.1951,-0.3658,0.0447,996,1497,1527,1502,2008,1000,1505,1000,1000,1629,1005,1498,1014,-18.4003,-22.5114,-10.1608,-0.1077,-0.2322,0.9406,0.6056,0.1260,-0.5162,-0.2155,0.8627,0.2400,0.1321,0.8627,0.2400,0.1321,0.3000,0.0600,0.0002,0,-3.3305,-3.5000,-0.2490,-3.3305,-3.5000,-0.2490,-0.8118,50.5411,-0.0300,0.2700,0.0000,0.0000,0.0000,0.0000,0.0000,0.0000
-13.2508,47.1739,-29.4093,1.8232,2.5445,-0.1800,1.6200,0.6400,0.0000,0.1960,-0.3615,0.0389,996,1497,1527,1502,2008,1000,1505,1000,1000,1629,1005,1498,1014,-17.5904,-23.8387,-8.2270,-0.1056,-0.2444,0.9283,0.5964,0.1266,-0.5186,-0.2044,0.8627,0.2400,0.1321,0.8627,0.2400,0.1321,0.3000,0.0600,0.0002,0,-3.3305,-3.5000,-0.2490,-3.3305,-3.5000,-0.2490,-1.1716,50.2550,-0.0300,0.2700,0.0000,0.0000,0.0000,0.0000,0.0000,0.0000
-13.4525,46.8694,-29.4338,1.9061,2.5445,-0.1800,1.6200,0.6400,0.0000,0.1973,-0.3576,0.0336,998,1498,1528,1502,2008,1000,1505,1000,1000,1630,1005,1498,1014,-17.2310,-24.8140,-6.4381,-0.1128,-0.2644,0.9233,0.5885,0.1267,-0.5212,-0.1939,0.8627,0.2400,0.1321,0.8627,0.2400,0.1321,0.3000,0.0600,0.0002,0,-3.3350,-3.5000,-0.2490,-3.3350,-3.5000,-0.2490,-1.4996,49.9627,-0.0300,0.2700,0.0000,0.0000,0.0000,0.0000,0.0000,0.0000
-13.6329,46.5611,-29.4290,1.8232,2.4624,-0.1800,1.6200,0.6400,0.0000,0.1990,-0.3540,0.0285,996,1497,1527,1502,2008,1000,1505,1000,1000,1630,1005,1498,1014,-17.3510,-25.5307,-4.7162,-0.1073,-0.2852,0.9199,0.5815,0.1265,-0.5245,-0.1835,0.8627,0.2400,0.1321,0.8627,0.2400,0.1321,0.3000,0.0600,0.0002,0,-3.3350,-3.5000,-0.2490,-3.3350,-3.5000,-0.2490,-1.8012,49.6686,-0.0300,0.2700,0.0000,0.0000,0.0000,0.0000,0.0000,0.0000
-13.7955,46.2504,-29.3988,1.8232,2.5445,-0.1800,1.6200,0.6400,0.0000,0.2004,-0.3508,0.0243,996,1497,1527,1502,2008,1000,1505,1000,1000,1630,1005,1498,1014,-17.3517,-25.9147,-3.3236,-0.1095,-0.2957,0.9238,0.5755,0.1261,-0.5268,-0.1748,0.8627,0.2400,0.1321,0.8627,0.2400,0.1321,0.3000,0.0600,0.0002,0,-3.3350,-3.5000,-0.2490,-3.3350,-3.5000,-0.2490,-2.0759,49.3709,-0.0300,0.2700,0.0000,0.0000,0.0000,0.0000,0.0000,0.0000
-13.9451,45.9397,-29.3478,1.8232,2.5445,-0.1800,1.6200,0.6400,0.0000,0.2019,-0.3477,0.0212,996,1497,1527,1502,2008,1000,1505,1000,1000,1629,1005,1498,1014,-17.5089,-26.2443,-2.2280,-0.1175,-0.2929,0.9238,0.5708,0.1246,-0.5283,-0.1670,0.8627,0.2400,0.1321,0.8627,0.2400,0.1321,0.3000,0.0600,0.0002,0,-3.3305,-3.5000,-0.2490,-3.3305,-3.5000,-0.2490,-2.3291,49.0707,-0.0300,0.2700,0.0000,0.0000,0.0000,0.0000,0.0000,0.0000
-14.0839,45.6294,-29.2817,1.9061,2.4624,-0.1800,1.6200,0.6400,0.0000,0.2031,-0.3448,0.0189,996,1497,1527,1502,2008,1000,1505,1000,1000,1629,1005,1498,1014,-17.5620,-26.4024,-1.4478,-0.1123,-0.2862,0.9296,0.5668,0.1228,-0.5291,-0.1605,0.8627,0.2400,0.1321,0.8627,0.2400,0.1321,0.3000,0.0600,0.0002,0,-3.3305,-3.5000,-0.2490,-3.3305,-3.5000,-0.2490,-2.5605,48.7721,-0.0300,0.2700,0.0000,0.0000,0.0000,0.0000,0.0000,0.0000
-14.2137,45.3199,-29.2022,1.8232,2.5445,-0.1800,1.6200,0.6400,0.0000,0.2042,-0.3418,0.0164,996,1497,1527,1502,2008,1000,1505,1000,1000,1630,1005,1498,1014,-17.5147,-26.6524,-0.6238,-0.1015,-0.2820,0.9293,0.5624,0.1211,-0.5296,-0.1540,0.8627,0.2400,0.1321,0.8627,0.2400,0.1321,0.3000,0.0600,0.0002,0,-3.3350,-3.5000,-0.2490,-3.3350,-3.5000,-0.2490,-2.7749,48.4749,-0.0300,0.2700,0.0000,0.0000,0.0000,0.0000,0.0000,0.0000
-14.3340,45.0090,-29.1119,1.8232,2.4624,-0.1800,1.6200,0.6400,0.0000,0.2050,-0.3388,0.0147,998,1498,1529,1502,2008,1000,1505,1000,1000,1630,1005,1498,1014,-17.3563,-26.8609,-0.0522,-0.0834,-0.2718,0.9333,0.5586,0.1191,-0.5292,-0.1485,0.8627,0.2400,0.1321,0.8627,0.2400,0.1321,0.3000,0.0600,0.0002,0,-3.3350,-3.5000,-0.2490,-3.3350,-3.5000,-0.2490,-2.9772,48.1771,-0.0300,0.2700,0.0000,0.0000,0.0000,0.0000,0.0000,0.0000
-14.4450,44.6982,-29.0133,1.8232,2.5445,-0.1800,1.6200,0.6400,0.0000,0.2051,-0.3360,0.0139,996,1497,1527,1502,2008,1000,1505,1000,1000,1630,1005,1498,1014,-16.7135,-26.9825,0.2418,-0.0665,-0.2635,0.9297,0.5550,0.1170,-0.5273,-0.1447,0.8627,0.2400,0.1321,0.8627,0.2400,0.1321,0.3000,0.0600,0.0002,0,-3.3350,-3.5000,-0.2490,-3.3350,-3.5000,-0.2490,-3.1711,47.8806,-0.0300,0.2700,0.0000,0.0000,0.0000,0.0000,0.0000,0.0000
-14.5440,44.3907,-28.9122,1.8232,2.5445,-0.1800,1.6200,0.6400,0.0000,0.2040,-0.3349,0.0135,996,1497,1527,1502,2008,1000,1505,1000,1000,1630,1005,1498,1014,-15.1908,-25.8109,0.3969,-0.0362,-0.2820,0.9640,0.5524,0.1174,-0.5254,-0.1444,0.8627,0.2400,0.1321,0.8627,0.2400,0.1321,0.3000,0.0600,0.0002,0,-3.3350,-3.5000,-0.2490,-3.3350,-3.5000,-0.2490,-3.3578,47.5844,-0.0300,0.2700,0.0000,0.0000,0.0000,0.0000,0.0000,0.0000
-14.6224,44.1145,-28.8214,1.7403,2.3803,-0.1800,1.6200,0.6400,0.0000,0.1998,-0.3392,0.0130,996,1497,1527,1502,2008,1000,1505,1000,1000,1630,1005,1498,1014,-11.5030,-20.7645,0.5473,0.0393,-0.3395,1.0907,0.5519,0.1264,-0.5260,-0.1523,0.8627,0.2400,0.1321,0.8627,0.2400,0.1321,0.3000,0.0600,0.0002,0,-3.3350,-3.5000,-0.2490,-3.3350,-3.5000,-0.2490,-3.5405,47.2884,-0.0300,0.2700,0.0000,0.0000,0.0000,0.0000,0.0000,0.0000
-14.6763,43.9097,-28.7507,1.7403,2.4624,-0.1800,1.6200,0.6400,0.0000,0.1948,-0.3485,0.0119,996,1497,1527,1502,2008,1000,1505,1000,1000,1629,1005,1498,1014,-7.3598,-12.3732,0.9342,0.1395,-0.3859,1.1859,0.5552,0.1418,-0.5313,-0.1656,0.8627,0.2400,0.1321,0.8627,0.2400,0.1321,0.3000,0.0600,0.0002,0,-3.3305,-3.5000,-0.2490,-3.3305,-3.5000,-0.2490,-3.7082,46.9926,-0.0300,0.2700,0.0000,0.0000,0.0000,0.0000,0.0000,0.0000
-14.7039,43.7921,-28.7143,1.4917,2.1341,-0.1800,1.6200,0.6400,0.0000,0.1895,-0.3573,0.0138,996,1497,1527,1502,2008,1000,1505,1000,1000,1629,1005,1498,1014,-3.1911,-4.9576,0.3205,0.1240,-0.3524,1.1624,0.5606,0.1540,-0.5330,-0.1816,0.8627,0.2400,0.1321,0.8627,0.2400,0.1321,0.3000,0.0600,0.0002,0,-3.3305,-3.5000,-0.2490,-3.3305,-3.5000,-0.2490,-3.8676,46.6853,-0.0300,0.2700,0.0000,0.0000,0.0000,0.0000,0.0000,0.0000
-14.7358,43.7366,-28.7152,1.4917,1.9699,-0.1800,1.6200,0.6400,0.0000,0.1894,-0.3648,0.0192,998,1498,1528,1502,2008,1000,1505,1000,1000,1629,1005,1498,1014,-2.8792,1.1304,-1.3788,0.0741,-0.2581,0.9943,0.5734,0.1563,-0.5350,-0.1947,0.8627,0.2400,0.1321,0.8627,0.2400,0.1321,0.3000,0.0600,0.0002,0,-3.3305,-3.5000,-0.2490,-3.3305,-3.5000,-0.2490,-4.0339,46.3699,-0.0300,0.2700,0.0000,0.0000,0.0000,0.0000,0.0000,0.0000
-14.7974,43.7143,-28.7594,1.2431,1.4774,-0.1800,1.6200,0.6400,0.0000,0.1907,-0.3661,0.0270,996,1497,1527,1502,2008,1000,1505,1000,1000,1630,1005,1498,1014,-3.4657,2.2337,-3.9646,0.0106,-0.1869,0.8572,0.5838,0.1484,-0.5298,-0.2024,0.8627,0.2400,0.1321,0.8627,0.2400,0.1321,0.3000,0.0600,0.0002,0,-3.3350,-3.5000,-0.2490,-3.3350,-3.5000,-0.2490,-4.2254,46.0426,-0.0300,0.2700,0.0000,0.0000,0.0000,0.0000,0.0000,0.0000
-14.8967,43.6721,-28.8389,1.2431,1.3953,-0.1800,1.6200,0.6400,0.0000,0.1936,-0.3626,0.0358,996,1497,1527,1502,2008,1000,1505,1000,1000,1630,1005,1498,1014,-5.0343,-0.1282,-6.8925,0.0303,-0.2260,0.8411,0.5920,0.1332,-0.5204,-0.2048,0.8627,0.2400,0.1321,0.8627,0.2400,0.1321,0.3000,0.0600,0.0002,0,-3.3350,-3.5000,-0.2490,-3.3350,-3.5000,-0.2490,-4.4343,45.7129,-0.0300,0.2700,0.0000,0.0000,0.0000,0.0000,0.0000,0.0000
-15.0288,43.5902,-28.9511,1.1602,0.9850,-0.1800,1.6200,0.6400,0.0000,0.1947,-0.3572,0.0444,996,1497,1527,1502,2008,1000,1505,1000,1000,1630,1005,1498,1014,-5.0091,-3.6780,-9.7501,0.0685,-0.3059,0.9421,0.5964,0.1181,-0.5075,-0.2069,0.8627,0.2400,0.1321,0.8627,0.2400,0.1321,0.3000,0.0600,0.0002,0,-3.3350,-3.5000,-0.2490,-3.3350,-3.5000,-0.2490,-4.6714,45.3696,-0.0300,0.2700,0.0000,0.0000,0.0000,0.0000,0.0000,0.0000
-15.1727,43.4819,-29.0906,1.0773,0.8208,-0.1800,1.6200,0.6400,0.0000,0.1939,-0.3551,0.0504,996,1497,1527,1502,2008,1000,1505,1000,1000,1630,1005,1498,1014,-3.4684,-4.5850,-11.7531,0.0760,-0.3421,1.0295,0.5994,0.1108,-0.4986,-0.2115,0.8627,0.2400,0.1321,0.8627,0.2400,0.1321,0.3000,0.0600,0.0002,0,-3.3350,-3.5000,-0.2490,-3.3350,-3.5000,-0.2490,-4.9317,45.0137,-0.0300,0.2700,0.0000,0.0000,0.0000,0.0000,0.0000,0.0000
-15.3082,43.3549,-29.2485,1.0773,0.7387,-0.1800,1.6200,0.6400,0.0000,0.1928,-0.3523,0.0552,996,1497,1527,1502,2008,1000,1505,1000,1000,1630,1005,1498,1014,-1.7647,-5.8748,-13.3358,0.0434,-0.3077,1.0071,0.6003,0.1042,-0.4899,-0.2147,0.8627,0.2400,0.1321,0.8627,0.2400,0.1321,0.3000,0.0600,0.0002,0,-3.3350,-3.5000,-0.2490,-3.3350,-3.5000,-0.2490,-5.1875,44.6494,-0.0300,0.2700,0.0000,0.0000,0.0000,0.0000,0.0000,0.0000
-15.4386,43.2157,-29.4228,0.9945,0.4104,-0.1800,1.6200,0.6400,0.0000,0.1919,-0.3500,0.0601,998,1498,1528,1502,2008,1000,1505,1000,1000,1630,1005,1498,1014,-0.1681,-6.7003,-14.9220,-0.0133,-0.2664,0.9261,0.6019,0.0980,-0.4818,-0.2182,0.8627,0.2400,0.1321,0.8627,0.2400,0.1321,0.3000,0.0600,0.0002,0,-3.3350,-3.5000,-0.2490,-3.3350,-3.5000,-0.2490,-5.4472,44.2736,-0.0300,0.2700,0.0000,0.0000,0.0000,0.0000,0.0000,0.0000
-15.5611,43.0556,-29.6117,0.8287,0.2462,-0.1800,1.6200,0.6400,0.0000,0.1913,-0.3464,0.0641,996,1497,1527,1502,2008,1000,1505,1000,1000,1630,1005,1498,1014,1.0496,-8.3454,-16.2840,-0.0372,-0.2720,0.9197,0.6019,0.0910,-0.4736,-0.2193,0.8627,0.2400,0.1321,0.8627,0.2400,0.1321,0.3000,0.0600,0.0002,0,-3.3350,-3.5000,-0.2490,-3.3350,-3.5000,-0.2490,-5.6982,43.8908,-0.0300,0.2700,0.0000,0.0000,0.0000,0.0000,0.0000,0.0000
-15.6824,42.8812,-29.8087,0.7459,0.1642,-0.1800,1.6200,0.6400,0.0000,0.1917,-0.3437,0.0653,996,1497,1527,1502,2008,1000,1505,1000,1000,1630,1005,1498,1014,1.5338,-9.2894,-16.7000,-0.0147,-0.3074,0.9314,0.6007,0.0867,-0.4701,-0.2173,0.8627,0.2400,0.1321,0.8627,0.2400,0.1321,0.3000,0.0600,0.0002,0,-3.3350,-3.5000,-0.2490,-3.3350,-3.5000,-0.2490,-5.9481,43.5073,-0.0300,0.2700,0.0000,0.0000,0.0000,0.0000,0.0000,0.0000
-15.7914,42.7012,-30.0013,0.6630,-0.0000,-0.1800,1.6200,0.6400,0.0000,0.1902,-0.3423,0.0630,996,1497,1527,1502,2008,1000,1505,1000,1000,1630,1005,1498,1014,3.3580,-9.1471,-15.9651,0.0032,-0.3383,0.9452,0.5956,0.0891,-0.4696,-0.2151,0.8627,0.2400,0.1321,0.8627,0.2400,0.1321,0.3000,0.0600,0.0002,0,-3.3350,-3.5000,-0.2490,-3.3350,-3.5000,-0.2490,-6.1933,43.1138,-0.0300,0.2700,0.0000,0.0000,0.0000,0.0000,0.0000,0.0000
-15.8718,42.5309,-30.1780,0.5801,-0.2462,-0.1800,1.6200,0.6400,0.0000,0.1897,-0.3414,0.0577,996,1497,1527,1502,2008,1000,1505,1000,1000,1630,1005,1498,1014,4.2768,-8.7400,-14.1953,-0.0181,-0.3310,0.9495,0.5889,0.0939,-0.4734,-0.2094,0.8627,0.2400,0.1321,0.8627,0.2400,0.1321,0.3000,0.0600,0.0002,0,-3.3350,-3.5000,-0.2490,-3.3350,-3.5000,-0.2490,-6.4099,42.7159,-0.0300,0.2700,0.0000,0.0000,0.0000,0.0000,0.0000,0.0000
-15.9245,42.3559,-30.3244,0.4144,-0.3283,-0.1800,1.6200,0.6400,0.0000,0.1892,-0.3376,0.0521,996,1497,1527,1502,2008,1000,1505,1000,1000,1630,1005,1498,1014,5.0364,-10.4383,-12.3021,-0.0064,-0.3374,0.9304,0.5789,0.0963,-0.4747,-0.2006,0.8627,0.2400,0.1321,0.8627,0.2400,0.1321,0.3000,0.0600,0.0002,0,-3.3350,-3.5000,-0.2490,-3.3350,-3.5000,-0.2490,-6.5809,42.3317,-0.0300,0.2700,0.0000,0.0000,0.0000,0.0000,0.0000,0.0000
-15.9498,42.1740,-30.4362,0.4144,-0.4104,-0.1800,1.6200,0.6400,0.0000,0.1893,-0.3342,0.0447,998,1498,1528,1502,2008,1000,1505,1000,1000,1629,1005,1498,1014,5.0690,-11.8246,-9.8243,-0.0045,-0.3396,0.9046,0.5682,0.1002,-0.4789,-0.1896,0.8627,0.2400,0.1321,0.8627,0.2400,0.1321,0.3000,0.0600,0.0002,0,-3.3305,-3.5000,-0.2490,-3.3305,-3.5000,-0.2490,-6.7267,41.9597,-0.0300,0.2700,0.0000,0.0000,0.0000,0.0000,0.0000,0.0000
-15.9413,41.9786,-30.5018,0.2486,-0.4104,-0.1800,1.6200,0.6400,0.0000,0.1889,-0.3291,0.0355,996,1497,1527,1502,2008,1000,1505,1000,1000,1629,1005,1498,1014,5.3910,-14.4399,-6.7699,0.0145,-0.3551,0.9445,0.5535,0.1047,-0.4824,-0.1758,0.8627,0.2400,0.1321,0.8627,0.2400,0.1321,0.3000,0.0600,0.0002,0,-3.3305,-3.5000,-0.2490,-3.3305,-3.5000,-0.2490,-6.8413,41.5976,-0.0300,0.2700,0.0000,0.0000,0.0000,0.0000,0.0000,0.0000
-15.8916,41.7662,-30.5149,0.2486,-0.4925,-0.1800,1.6200,0.6400,0.0000,0.1868,-0.3243,0.0258,996,1497,1527,1502,2008,1000,1505,1000,1000,1629,1005,1498,1014,6.6549,-16.6573,-3.5278,0.0072,-0.3305,0.9581,0.5369,0.1118,-0.4853,-0.1634,0.8627,0.2400,0.1321,0.8627,0.2400,0.1321,0.3000,0.0600,0.0002,0,-3.3305,-3.5000,-0.2490,-3.3305,-3.5000,-0.2490,-6.9198,41.2504,-0.0300,0.2700,0.0000,0.0000,0.0000,0.0000,0.0000,0.0000
-15.7825,41.5529,-30.4711,0.2486,-0.5746,-0.1800,1.6200,0.6400,0.0000,0.1834,-0.3220,0.0139,996,1497,1527,1502,2008,1000,1505,1000,1000,1630,1005,1498,1014,8.4451,-17.0529,0.4486,-0.0199,-0.2879,0.9365,0.5193,0.1246,-0.4915,-0.1524,0.8627,0.2400,0.1321,0.8627,0.2400,0.1321,0.3000,0.0600,0.0002,0,-3.3350,-3.5000,-0.2490,-3.3350,-3.5000,-0.2490,-6.9568,40.9138,-0.0300,0.2700,0.0000,0.0000,0.0000,0.0000,0.0000,0.0000
-15.6211,41.3471,-30.3744,0.1657,-0.6566,-0.1800,1.6200,0.6400,0.0000,0.1794,-0.3205,0.0028,996,1497,1527,1502,2008,1000,1505,1000,1000,1630,1005,1498,1014,10.4767,-16.8229,4.1441,-0.0142,-0.2874,0.9423,0.5027,0.1384,-0.4971,-0.1439,0.8627,0.2400,0.1321,0.8627,0.2400,0.1321,0.3000,0.0600,0.0002,0,-3.3350,-3.5000,-0.2490,-3.3350,-3.5000,-0.2490,-6.9409,40.6036,-0.0300,0.2700,0.0000,0.0000,0.0000,0.0000,0.0000,0.0000
-15.4085,41.1627,-30.2330,0.1657,-0.6566,-0.1800,1.6200,0.6400,0.0000,0.1755,-0.3204,-0.0085,996,1497,1527,1502,2008,1000,1505,1000,1000,1629,1005,1498,1014,12.0540,-15.6928,7.8874,-0.0233,-0.2847,0.9362,0.4874,0.1534,-0.5043,-0.1365,0.8627,0.2400,0.1321,0.8627,0.2400,0.1321,0.3000,0.0600,0.0002,0,-3.3305,-3.5000,-0.2490,-3.3305,-3.5000,-0.2490,-6.8843,40.3193,-0.0300,0.2700,0.0000,0.0000,0.0000,0.0000,0.0000,0.0000
-15.1602,41.0003,-30.0519,-0.0829,-0.8208,-0.1800,1.6200,0.6400,0.0000,0.1719,-0.3218,-0.0182,998,1498,1529,1502,2008,1000,1505,1000,1000,1630,1005,1498,1014,13.1280,-13.5789,11.1303,0.0074,-0.3179,0.9312,0.4755,0.1681,-0.5119,-0.1317,0.8627,0.2400,0.1321,0.8627,0.2400,0.1321,0.3000,0.0600,0.0002,0,-3.3305,-3.5000,-0.2490,-3.3305,-3.5000,-0.2490,-6.7882,40.0601,-0.0300,0.2700,0.0000,0.0000,0.0000,0.0000,0.0000,0.0000
-14.8847,40.8741,-29.8434,0.0000,-0.9029,-0.1800,1.6200,0.6400,0.0000,0.1690,-0.3244,-0.0267,996,1497,1527,1502,2008,1000,1505,1000,1000,1630,1005,1498,1014,13.5228,-10.7586,13.9440,0.0055,-0.3147,0.9065,0.4667,0.1821,-0.5201,-0.1287,0.8627,0.2400,0.1321,0.8627,0.2400,0.1321,0.3000,0.0600,0.0002,0,-3.3350,-3.5000,-0.2490,-3.3350,-3.5000,-0.2490,-6.6589,39.8257,-0.0300,0.2700,0.0000,0.0000,0.0000,0.0000,0.0000,0.0000
-14.5947,40.7821,-29.6090,-0.2486,-0.9029,-0.1800,1.6200,0.6400,0.0000,0.1666,-0.3275,-0.0342,996,1497,1527,1502,2008,1000,1505,1000,1000,1630,1005,1498,1014,13.4474,-7.8668,16.4563,0.0253,-0.3295,0.8979,0.4598,0.1951,-0.5283,-0.1266,0.8627,0.2400,0.1321,0.8627,0.2400,0.1321,0.3000,0.0600,0.0002,0,-3.3350,-3.5000,-0.2490,-3.3350,-3.5000,-0.2490,-6.4899,39.6211,-0.0300,0.2700,0.0000,0.0000,0.0000,0.0000,0.0000,0.0000
-14.2916,40.7244,-29.3563,-0.1657,-0.9029,-0.1800,1.6200,0.6400,0.0000,0.1641,-0.3306,-0.0401,996,1497,1527,1502,2008,1000,1505,1000,1000,1630,1005,1498,1014,13.3717,-5.1363,18.4152,0.0216,-0.3162,0.8979,0.4545,0.2066,-0.5347,-0.1264,0.8627,0.2400,0.1321,0.8627,0.2400,0.1321,0.3000,0.0600,0.0002,0,-3.3350,-3.5000,-0.2490,-3.3350,-3.5000,-0.2490,-6.2885,39.4431,-0.0300,0.2700,0.0000,0.0000,0.0000,0.0000,0.0000,0.0000
-13.9831,40.6920,-29.0886,-0.3315,-1.0670,-0.1800,1.6200,0.6400,0.0000,0.1619,-0.3325,-0.0443,996,1497,1527,1502,2008,1000,1505,1000,1000,1630,1005,1498,1014,13.0260,-3.4330,19.8002,0.0270,-0.3136,0.9230,0.4501,0.2149,-0.5387,-0.1264,0.8627,0.2400,0.1321,0.8627,0.2400,0.1321,0.3000,0.0600,0.0002,0,-3.3350,-3.5000,-0.2490,-3.3350,-3.5000,-0.2490,-6.0569,39.2930,-0.0300,0.2700,0.0000,0.0000,0.0000,0.0000,0.0000,0.0000
-13.6713,40.6736,-28.8135,-0.1657,-0.9029,-0.1800,1.6200,0.6400,0.0000,0.1596,-0.3332,-0.0454,996,1497,1527,1502,2008,1000,1505,1000,1000,1630,1005,1498,1014,12.7421,-2.7993,20.1581,0.0147,-0.2840,0.9427,0.4474,0.2190,-0.5382,-0.1283,0.8627,0.2400,0.1321,0.8627,0.2400,0.1321,0.3000,0.0600,0.0002,0,-3.3350,-3.5000,-0.2490,-3.3350,-3.5000,-0.2490,-5.8096,39.1631,-0.0300,0.2700,0.0000,0.0000,0.0000,0.0000,0.0000,0.0000
-13.3558,40.6559,-28.5358,-0.3315,-1.1491,-0.1800,1.6200,0.6400,0.0000,0.1559,-0.3333,-0.0448,998,1498,1528,1502,2008,1000,1505,1000,1000,1630,1005,1498,1014,13.4184,-2.6316,19.9577,0.0065,-0.2522,0.9646,0.4445,0.2221,-0.5340,-0.1326,0.8627,0.2400,0.1321,0.8627,0.2400,0.1321,0.3000,0.0600,0.0002,0,-3.3350,-3.5000,-0.2490,-3.3350,-3.5000,-0.2490,-5.5452,39.0558,-0.0300,0.2700,0.0000,0.0000,0.0000,0.0000,0.0000,0.0000
-13.0353,40.6345,-28.2658,-0.2486,-1.0670,-0.1800,1.6200,0.6400,0.0000,0.1521,-0.3324,-0.0411,996,1497,1527,1502,2008,1000,1505,1000,1000,1630,1005,1498,1014,14.2008,-3.1909,18.7397,0.0014,-0.2371,0.9717,0.4434,0.2213,-0.5256,-0.1391,0.8627,0.2400,0.1321,0.8627,0.2400,0.1321,0.3000,0.0600,0.0002,0,-3.3350,-3.5000,-0.2490,-3.3350,-3.5000,-0.2490,-5.2718,38.9652,-0.0300,0.2700,0.0000,0.0000,0.0000,0.0000,0.0000,0.0000
-12.7142,40.6045,-28.0174,-0.3315,-1.2312,-0.1800,1.6200,0.6400,0.0000,0.1465,-0.3323,-0.0351,996,1497,1527,1502,2008,1000,1505,1000,1000,1630,1005,1498,1014,16.3860,-3.0256,16.7190,0.0073,-0.2268,0.9634,0.4437,0.2209,-0.5139,-0.1507,0.8627,0.2400,0.1321,0.8627,0.2400,0.1321,0.3000,0.0600,0.0002,0,-3.3350,-3.5000,-0.2490,-3.3350,-3.5000,-0.2490,-4.9941,38.8963,-0.0300,0.2700,0.0000,0.0000,0.0000,0.0000,0.0000,0.0000
-12.3941,40.5727,-27.8032,-0.2486,-1.1491,-0.1800,1.6200,0.6400,0.0000,0.1418,-0.3330,-0.0263,996,1497,1527,1502,2008,1000,1505,1000,1000,1630,1005,1498,1014,17.8427,-2.3237,13.8373,0.0142,-0.2231,0.9591,0.4484,0.2175,-0.5011,-0.1648,0.8627,0.2400,0.1321,0.8627,0.2400,0.1321,0.3000,0.0600,0.0002,0,-3.3350,-3.5000,-0.2490,-3.3350,-3.5000,-0.2490,-4.7155,38.8443,-0.0300,0.2700,0.0000,0.0000,0.0000,0.0000,0.0000,0.0000
-12.0871,40.5439,-27.6372,-0.2486,-1.0670,-0.1800,1.6200,0.6400,0.0000,0.1359,-0.3348,-0.0161,996,1497,1527,1502,2008,1000,1505,1000,1000,1630,1005,1498,1014,20.2699,-0.7674,10.3794,0.0193,-0.2191,0.9487,0.4546,0.2149,-0.4868,-0.1827,0.8627,0.2400,0.1321,0.8627,0.2400,0.1321,0.3000,0.0600,0.0002,0,-3.3350,-3.5000,-0.2490,-3.3350,-3.5000,-0.2490,-4.4439,38.8112,-0.0300,0.2700,0.0000,0.0000,0.0000,0.0000,0.0000,0.0000
-11.7957,40.5255,-27.5240,-0.2486,-1.0670,-0.1800,1.6200,0.6400,0.0000,0.1324,-0.3371,-0.0049,996,1497,1527,1502,2008,1000,1505,1000,1000,1629,1005,1498,1014,21.0560,1.1255,6.6630,0.0365,-0.2158,0.9492,0.4646,0.2096,-0.4744,-0.1999,0.8627,0.2400,0.1321,0.8627,0.2400,0.1321,0.3000,0.0600,0.0002,0,-3.3305,-3.5000,-0.2490,-3.3305,-3.5000,-0.2490,-4.1831,38.7928,-0.0300,0.2700,0.0000,0.0000,0.0000,0.0000,0.0000,0.0000
-11.5367,40.5199,-27.4693,-0.2486,-1.0670,-0.1800,1.6200,0.6400,0.0000,0.1293,-0.3399,0.0067,998,1498,1528,1502,2008,1000,1505,1000,1000,1629,1005,1498,1014,21.6778,3.2500,2.7722,0.0480,-0.2188,0.9491,0.4759,0.2038,-0.4625,-0.2173,0.8627,0.2400,0.1321,0.8627,0.2400,0.1321,0.3000,0.0600,0.0002,0,-3.3305,-3.5000,-0.2490,-3.3305,-3.5000,-0.2490,-3.9424,38.7894,-0.0300,0.2700,0.0000,0.0000,0.0000,0.0000,0.0000,0.0000
-11.3113,40.5262,-27.4700,-0.2486,-1.0670,-0.1800,1.6200,0.6400,0.0000,0.1278,-0.3423,0.0176,996,1497,1527,1502,2008,1000,1505,1000,1000,1629,1005,1498,1014,21.3723,5.0712,-0.8594,0.0527,-0.2087,0.9519,0.4877,0.1970,-0.4525,-0.2321,0.8627,0.2400,0.1321,0.8627,0.2400,0.1321,0.3000,0.0600,0.0002,0,-3.3305,-3.5000,-0.2490,-3.3305,-3.5000,-0.2490,-3.7223,38.7997,-0.0300,0.2700,0.0000,0.0000,0.0000,0.0000,0.0000,0.0000
-11.1250,40.5436,-27.5256,-0.2486,-1.0670,-0.1800,1.6200,0.6400,0.0000,0.1263,-0.3448,0.0285,996,1497,1527,1502,2008,1000,1505,1000,1000,1630,1005,1498,1014,21.2979,6.7817,-4.5106,0.0633,-0.2168,0.9528,0.4996,0.1899,-0.4425,-0.2470,0.8627,0.2400,0.1321,0.8627,0.2400,0.1321,0.3000,0.0600,0.0002,0,-3.3350,-3.5000,-0.2490,-3.3350,-3.5000,-0.2490,-3.5262,38.8237,-0.0300,0.2700,0.0000,0.0000,0.0000,0.0000,0.0000,0.0000
-10.9729,40.5687,-27.6326,-0.2486,-1.0670,-0.1800,1.6200,0.6400,0.0000,0.1252,-0.3466,0.0391,996,1497,1527,1502,2008,1000,1505,1000,1000,1630,1005,1498,1014,21.1043,8.0185,-7.9992,0.0614,-0.2074,0.9483,0.5109,0.1823,-0.4327,-0.2605,0.8627,0.2400,0.1321,0.8627,0.2400,0.1321,0.3000,0.0600,0.0002,0,-3.3350,-3.5000,-0.2490,-3.3350,-3.5000,-0.2490,-3.3544,38.8598,-0.0300,0.2700,0.0000,0.0000,0.0000,0.0000,0.0000,0.0000
-10.8531,40.5979,-27.7884,-0.2486,-1.0670,-0.1800,1.6200,0.6400,0.0000,0.1239,-0.3479,0.0493,996,1497,1527,1502,2008,1000,1505,1000,1000,1630,1005,1498,1014,21.3191,8.8123,-11.3823,0.0647,-0.2080,0.9601,0.5211,0.1747,-0.4225,-0.2733,0.8627,0.2400,0.1321,0.8627,0.2400,0.1321,0.3000,0.0600,0.0002,0,-3.3350,-3.5000,-0.2490,-3.3350,-3.5000,-0.2490,-3.2053,38.9063,-0.0300,0.2700,0.0000,0.0000,0.0000,0.0000,0.0000,0.0000
-10.7593,40.6271,-27.9904,-0.2486,-0.9850,-0.1800,1.6200,0.6400,0.0000,0.1225,-0.3487,0.0585,996,1497,1527,1502,2008,1000,1505,1000,1000,1630,1005,1498,1014,21.7438,9.2494,-14.4581,0.0558,-0.1930,0.9620,0.5298,0.1677,-0.4128,-0.2847,0.8627,0.2400,0.1321,0.8627,0.2400,0.1321,0.3000,0.0600,0.0002,0,-3.3350,-3.5000,-0.2490,-3.3350,-3.5000,-0.2490,-3.0779,38.9629,-0.0300,0.2700,0.0000,0.0000,0.0000,0.0000,0.0000,0.0000
-10.6859,40.6540,-28.2305,-0.2486,-0.9850,-0.1800,1.6200,0.6400,0.0000,0.1215,-0.3493,0.0665,998,1498,1529,1502,2008,1000,1505,1000,1000,1630,1005,1498,1014,22.0293,9.4894,-17.0887,0.0451,-0.1814,0.9686,0.5373,0.1612,-0.4043,-0.2943,0.8627,0.2400,0.1321,0.8627,0.2400,0.1321,0.3000,0.0600,0.0002,0,-3.3350,-3.5000,-0.2490,-3.3350,-3.5000,-0.2490,-2.9668,39.0297,-0.0300,0.2700,0.0000,0.0000,0.0000,0.0000,0.0000,0.0000
-10.6300,40.6776,-28.5039,-0.2486,-1.0670,-0.1800,1.6200,0.6400,0.0000,0.1205,-0.3496,0.0733,996,1497,1527,1502,2008,1000,1505,1000,1000,1629,1005,1498,1014,22.4719,9.5470,-19.3454,0.0341,-0.1728,0.9682,0.5433,0.1558,-0.3967,-0.3024,0.8627,0.2400,0.1321,0.8627,0.2400,0.1321,0.3000,0.0600,0.0002,0,-3.3305,-3.5000,-0.2490,-3.3305,-3.5000,-0.2490,-2.8698,39.1041,-0.0300,0.2700,0.0000,0.0000,0.0000,0.0000,0.0000,0.0000
-10.5869,40.7019,-28.8029,-0.1657,-0.9029,-0.1800,1.6200,0.6400,0.0000,0.1199,-0.3505,0.0777,996,1497,1527,1502,2008,1000,1505,1000,1000,1629,1005,1498,1014,22.6048,10.1242,-20.7886,0.0171,-0.1700,0.9678,0.5481,0.1529,-0.3928,-0.3083,0.8627,0.2400,0.1321,0.8627,0.2400,0.1321,0.3000,0.0600,0.0002,0,-3.3305,-3.5000,-0.2490,-3.3305,-3.5000,-0.2490,-2.7846,39.1819,-0.0300,0.2700,0.0000,0.0000,0.0000,0.0000,0.0000,0.0000
-10.5576,40.7297,-29.1200,-0.2486,-0.9850,-0.1800,1.6200,0.6400,0.0000,0.1200,-0.3516,0.0807,996,1497,1527,1502,2008,1000,1505,1000,1000,1630,1005,1498,1014,22.3821,10.7873,-21.7891,0.0139,-0.1743,0.9784,0.5523,0.1510,-0.3909,-0.3124,0.8627,0.2400,0.1321,0.8627,0.2400,0.1321,0.3000,0.0600,0.0002,0,-3.3350,-3.5000,-0.2490,-3.3350,-3.5000,-0.2490,-2.7124,39.2659,-0.0300,0.2700,0.0000,0.0000,0.0000,0.0000,0.0000,0.0000
-10.5369,40.7664,-29.4467,-0.0829,-0.9029,-0.1800,1.6200,0.6400,0.0000,0.1205,-0.3533,0.0809,996,1497,1527,1502,2008,1000,1505,1000,1000,1630,1005,1498,1014,21.8735,11.8120,-21.8514,0.0109,-0.1740,0.9644,0.5547,0.1520,-0.3929,-0.3138,0.8627,0.2400,0.1321,0.8627,0.2400,0.1321,0.3000,0.0600,0.0002,0,-3.3350,-3.5000,-0.2490,-3.3350,-3.5000,-0.2490,-2.6465,39.3586,-0.0300,0.2700,0.0000,0.0000,0.0000,0.0000,0.0000,0.0000
-10.5254,40.8150,-29.7736,-0.2486,-0.9850,-0.1800,1.6200,0.6400,0.0000,0.1215,-0.3555,0.0793,996,1497,1527,1502,2008,1000,1505,1000,1000,1630,1005,1498,1014,21.0369,13.1203,-21.2975,0.0150,-0.1904,0.9623,0.5562,0.1547,-0.3976,-0.3133,0.8627,0.2400,0.1321,0.8627,0.2400,0.1321,0.3000,0.0600,0.0002,0,-3.3350,-3.5000,-0.2490,-3.3350,-3.5000,-0.2490,-2.5826,39.4585,-0.0300,0.2700,0.0000,0.0000,0.0000,0.0000,0.0000,0.0000
-10.5200,40.8775,-30.0920,0.0000,-0.9029,-0.1800,1.6200,0.6400,0.0000,0.1231,-0.3573,0.0756,998,1497,1529,1502,2008,1000,1505,1000,1000,1629,1005,1498,1014,19.7707,14.1098,-20.0409,0.0153,-0.1952,0.9587,0.5560,0.1586,-0.4048,-0.3098,0.8627,0.2400,0.1321,0.8627,0.2400,0.1321,0.3000,0.0600,0.0002,0,-3.3350,-3.5000,-0.2490,-3.3350,-3.5000,-0.2490,-2.5211,39.5633,-0.0300,0.2700,0.0000,0.0000,0.0000,0.0000,0.0000,0.0000
-10.5175,40.9509,-30.3917,-0.1657,-0.9029,-0.1800,1.6200,0.6400,0.0000,0.1250,-0.3587,0.0707,996,1497,1527,1502,2008,1000,1505,1000,1000,1629,1005,1498,1014,18.3248,14.7154,-18.3802,0.0173,-0.2037,0.9543,0.5544,0.1631,-0.4131,-0.3044,0.8627,0.2400,0.1321,0.8627,0.2400,0.1321,0.3000,0.0600,0.0002,0,-3.3305,-3.5000,-0.2490,-3.3305,-3.5000,-0.2490,-2.4554,39.6722,-0.0300,0.2700,0.0000,0.0000,0.0000,0.0000,0.0000,0.0000
-10.5184,41.0330,-30.6717,0.1657,-0.7387,-0.1800,1.6200,0.6400,0.0000,0.1270,-0.3599,0.0662,996,1497,1527,1502,2008,1000,1505,1000,1000,1630,1005,1498,1014,16.8339,15.0661,-16.8393,0.0117,-0.2057,0.9564,0.5530,0.1668,-0.4207,-0.2991,0.8627,0.2400,0.1321,0.8627,0.2400,0.1321,0.3000,0.0600,0.0002,0,-3.3350,-3.5000,-0.2490,-3.3350,-3.5000,-0.2490,-2.3856,39.7832,-0.0300,0.2700,0.0000,0.0000,0.0000,0.0000,0.0000,0.0000
-10.5177,41.1185,-30.9285,0.0829,-0.7387,-0.1800,1.6200,0.6400,0.0000,0.1284,-0.3604,0.0609,996,1497,1527,1502,2008,1000,1505,1000,1000,1630,1005,1498,1014,15.7572,14.8886,-15.0415,-0.0035,-0.1952,0.9719,0.5497,0.1712,-0.4279,-0.2930,0.8627,0.2400,0.1321,0.8627,0.2400,0.1321,0.3000,0.0600,0.0002,0,-3.3350,-3.5000,-0.2490,-3.3350,-3.5000,-0.2490,-2.3077,39.8978,-0.0300,0.2700,0.0000,0.0000,0.0000,0.0000,0.0000,0.0000
-10.5110,41.2063,-31.1640,0.1657,-0.8208,-0.1800,1.6200,0.6400,0.0000,0.1288,-0.3612,0.0572,996,1497,1527,1502,2008,1000,1505,1000,1000,1630,1005,1498,1014,15.3677,14.9258,-13.7728,-0.0242,-0.1812,0.9775,0.5473,0.1752,-0.4328,-0.2896,0.8627,0.2400,0.1321,0.8627,0.2400,0.1321,0.3000,0.0600,0.0002,0,-3.3350,-3.5000,-0.2490,-3.3350,-3.5000,-0.2490,-2.2233,40.0167,-0.0300,0.2700,0.0000,0.0000,0.0000,0.0000,0.0000,0.0000
-10.4846,41.2942,-31.3807,0.1657,-0.7387,-0.1800,1.6200,0.6400,0.0000,0.1265,-0.3610,0.0534,996,1497,1527,1502,2008,1000,1505,1000,1000,1630,1005,1498,1014,16.9747,14.2090,-12.4799,-0.0632,-0.1687,1.0035,0.5410,0.1811,-0.4341,-0.2880,0.8627,0.2400,0.1321,0.8627,0.2400,0.1321,0.3000,0.0600,0.0002,0,-3.3350,-3.5000,-0.2490,-3.3350,-3.5000,-0.2490,-2.1334,40.1407,-0.0300,0.2700,0.0000,0.0000,0.0000,0.0000,0.0000,0.0000
-10.4191,41.3719,-31.5754,0.2486,-0.7387,-0.1800,1.6200,0.6400,0.0000,0.1224,-0.3596,0.0494,998,1498,1528,1502,2008,1000,1505,1000,1000,1630,1005,1498,1014,19.6303,12.6445,-11.1233,-0.1062,-0.1545,1.0263,0.5315,0.1878,-0.4326,-0.2867,0.8627,0.2400,0.1321,0.8627,0.2400,0.1321,0.3000,0.0600,0.0002,0,-3.3350,-3.5000,-0.2490,-3.3350,-3.5000,-0.2490,-2.0409,40.2668,-0.0300,0.2700,0.0000,0.0000,0.0000,0.0000,0.0000,0.0000
-10.3053,41.4329,-31.7453,0.2486,-0.7387,-0.1800,1.6200,0.6400,0.0000,0.1169,-0.3572,0.0449,996,1497,1527,1502,2008,1000,1505,1000,1000,1630,1005,1498,1014,23.0545,10.3763,-9.6242,-0.1314,-0.1403,1.0156,0.5190,0.1954,-0.4292,-0.2852,0.8627,0.2400,0.1321,0.8627,0.2400,0.1321,0.3000,0.0600,0.0002,0,-3.3350,-3.5000,-0.2490,-3.3350,-3.5000,-0.2490,-1.9421,40.3963,-0.0300,0.2700,0.0000,0.0000,0.0000,0.0000,0.0000,0.0000
-10.1340,41.4685,-31.8849,0.2486,-0.6566,-0.1800,1.6200,0.6400,0.0000,0.1110,-0.3531,0.0399,996,1497,1527,1502,2008,1000,1505,1000,1000,1630,1005,1498,1014,26.3816,7.0517,-7.9190,-0.1380,-0.1365,1.0116,0.5040,0.2022,-0.4243,-0.2819,0.8627,0.2400,0.1321,0.8627,0.2400,0.1321,0.3000,0.0600,0.0002,0,-3.3350,-3.5000,-0.2490,-3.3350,-3.5000,-0.2490,-1.8337,40.5357,-0.0300,0.2700,0.0000,0.0000,0.0000,0.0000,0.0000,0.0000
-9.9180,41.4754,-31.9915,0.1657,-0.4925,-0.1800,1.6200,0.6400,0.0000,0.1083,-0.3498,0.0341,996,1497,1527,1502,2008,1000,1505,1000,1000,1630,1005,1498,1014,27.0615,4.4872,-5.9670,-0.1106,-0.1290,0.9998,0.4921,0.2074,-0.4240,-0.2756,0.8627,0.2400,0.1321,0.8627,0.2400,0.1321,0.3000,0.0600,0.0002,0,-3.3350,-3.5000,-0.2490,-3.3350,-3.5000,-0.2490,-1.7310,40.6868,-0.0300,0.2700,0.0000,0.0000,0.0000,0.0000,0.0000,0.0000
-9.6915,41.4631,-32.0676,0.0829,-0.4104,-0.1800,1.6200,0.6400,0.0000,0.1088,-0.3472,0.0289,996,1497,1527,1502,2008,1000,1505,1000,1000,1630,1005,1498,1014,25.1704,2.6309,-4.2130,-0.0878,-0.1366,1.0021,0.4849,0.2095,-0.4271,-0.2673,0.8627,0.2400,0.1321,0.8627,0.2400,0.1321,0.3000,0.0600,0.0002,0,-3.3350,-3.5000,-0.2490,-3.3350,-3.5000,-0.2490,-1.6190,40.8396,-0.0300,0.2700,0.0000,0.0000,0.0000,0.0000,0.0000,0.0000
-9.4786,41.4404,-32.1170,0.0829,-0.3283,-0.1800,1.6200,0.6400,0.0000,0.1124,-0.3463,0.0241,996,1497,1527,1502,2008,1000,1505,1000,1000,1630,1005,1498,1014,21.0468,2.1297,-2.6051,-0.0664,-0.1252,1.0279,0.4828,0.2099,-0.4347,-0.2580,0.8627,0.2400,0.1321,0.8627,0.2400,0.1321,0.3000,0.0600,0.0002,0,-3.3350,-3.5000,-0.2490,-3.3350,-3.5000,-0.2490,-1.4991,40.9914,-0.0300,0.2700,0.0000,0.0000,0.0000,0.0000,0.0000,0.0000
-9.3033,41.4284,-32.1468,0.0000,-0.1642,-0.1800,1.6200,0.6400,0.0000,0.1174,-0.3481,0.0203,998,1498,1529,1502,2008,1000,1505,1000,1000,1630,1005,1498,1014,16.1205,3.5615,-1.3022,-0.0578,-0.1203,1.0200,0.4858,0.2104,-0.4452,-0.2510,0.8627,0.2400,0.1321,0.8627,0.2400,0.1321,0.3000,0.0600,0.0002,0,-3.3350,-3.5000,-0.2490,-3.3350,-3.5000,-0.2490,-1.3736,41.1405,-0.0300,0.2700,0.0000,0.0000,0.0000,0.0000,0.0000,0.0000
-9.1645,41.4310,-32.1658,0.0829,-0.1642,-0.1800,1.6200,0.6400,0.0000,0.1208,-0.3497,0.0185,996,1497,1527,1502,2008,1000,1505,1000,1000,1630,1005,1498,1014,12.6786,4.7187,-0.6652,-0.0576,-0.1113,1.0110,0.4890,0.2104,-0.4519,-0.2474,0.8627,0.2400,0.1321,0.8627,0.2400,0.1321,0.3000,0.0600,0.0002,0,-3.3350,-3.5000,-0.2490,-3.3350,-3.5000,-0.2490,-1.2439,41.2868,-0.0300,0.2700,0.0000,0.0000,0.0000,0.0000,0.0000,0.0000
-9.0522,41.4465,-32.1843,0.0829,0.0821,-0.1800,1.6200,0.6400,0.0000,0.1219,-0.3512,0.0192,996,1497,1527,1502,2008,1000,1505,1000,1000,1630,1005,1498,1014,11.0804,5.7445,-0.8552,-0.0568,-0.1129,1.0157,0.4923,0.2101,-0.4539,-0.2485,0.8627,0.2400,0.1321,0.8627,0.2400,0.1321,0.3000,0.0600,0.0002,0,-3.3350,-3.5000,-0.2490,-3.3350,-3.5000,-0.2490,-1.1225,41.4293,-0.0300,0.2700,0.0000,0.0000,0.0000,0.0000,0.0000,0.0000
-8.9526,41.4621,-32.2108,0.0829,0.1642,-0.1800,1.6200,0.6400,0.0000,0.1211,-0.3499,0.0220,996,1497,1527,1502,2008,1000,1505,1000,1000,1630,1005,1498,1014,11.0549,4.7012,-1.7588,-0.0652,-0.1040,1.0136,0.4930,0.2068,-0.4490,-0.2509,0.8627,0.2400,0.1321,0.8627,0.2400,0.1321,0.3000,0.0600,0.0002,0,-3.3350,-3.5000,-0.2490,-3.3350,-3.5000,-0.2490,-1.0145,41.5628,-0.0300,0.2700,0.0000,0.0000,0.0000,0.0000,0.0000,0.0000
-8.8540,41.4600,-32.2523,0.0000,0.0821,-0.1800,1.6200,0.6400,0.0000,0.1182,-0.3481,0.0270,996,1497,1527,1502,2008,1000,1505,1000,1000,1630,1005,1498,1014,12.6220,3.3272,-3.3827,-0.0534,-0.0986,1.0061,0.4932,0.2030,-0.4393,-0.2569,0.8627,0.2400,0.1321,0.8627,0.2400,0.1321,0.3000,0.0600,0.0002,0,-3.3350,-3.5000,-0.2490,-3.3350,-3.5000,-0.2490,-0.9213,41.6889,-0.0300,0.2700,0.0000,0.0000,0.0000,0.0000,0.0000,0.0000
-8.7498,41.4417,-32.3148,0.0829,0.3283,-0.1800,1.6200,0.6400,0.0000,0.1149,-0.3463,0.0326,996,1497,1527,1502,2008,1000,1505,1000,1000,1630,1005,1498,1014,14.4221,2.0607,-5.2367,-0.0529,-0.0919,0.9962,0.4938,0.1988,-0.4285,-0.2640,0.8627,0.2400,0.1321,0.8627,0.2400,0.1321,0.3000,0.0600,0.0002,0,-3.3350,-3.5000,-0.2490,-3.3350,-3.5000,-0.2490,-0.8437,41.8053,-0.0300,0.2700,0.0000,0.0000,0.0000,0.0000,0.0000,0.0000
-8.6439,41.4114,-32.4011,0.0829,0.2462,-0.1800,1.6200,0.6400,0.0000,0.1119,-0.3454,0.0382,998,1498,1529,1502,2008,1000,1505,1000,1000,1630,1005,1498,1014,15.9875,1.5944,-7.0876,-0.0372,-0.0931,0.9875,0.4954,0.1953,-0.4191,-0.2716,0.8627,0.2400,0.1321,0.8627,0.2400,0.1321,0.3000,0.0600,0.0002,0,-3.3350,-3.5000,-0.2490,-3.3350,-3.5000,-0.2490,-0.7833,41.9129,-0.0300,0.2700,0.0000,0.0000,0.0000,0.0000,0.0000,0.0000
-8.5452,41.3804,-32.5112,0.1657,0.4104,-0.1800,1.6200,0.6400,0.0000,0.1110,-0.3461,0.0427,996,1497,1527,1502,2008,1000,1505,1000,1000,1630,1005,1498,1014,16.0026,2.3269,-8.6083,-0.0231,-0.0936,0.9799,0.4998,0.1923,-0.4144,-0.2778,0.8627,0.2400,0.1321,0.8627,0.2400,0.1321,0.3000,0.0600,0.0002,0,-3.3350,-3.5000,-0.2490,-3.3350,-3.5000,-0.2490,-0.7364,42.0082,-0.0300,0.2700,0.0000,0.0000,0.0000,0.0000,0.0000,0.0000
-8.4644,41.3611,-32.6443,0.0000,0.4104,-0.1800,1.6200,0.6400,0.0000,0.1105,-0.3481,0.0466,996,1497,1527,1502,2008,1000,1505,1000,1000,1630,1005,1498,1014,15.8482,3.9981,-9.9147,-0.0030,-0.1052,0.9727,0.5053,0.1909,-0.4120,-0.2842,0.8627,0.2400,0.1321,0.8627,0.2400,0.1321,0.3000,0.0600,0.0002,0,-3.3350,-3.5000,-0.2490,-3.3350,-3.5000,-0.2490,-0.7047,42.0922,-0.0300,0.2700,0.0000,0.0000,0.0000,0.0000,0.0000,0.0000
-8.4029,41.3617,-32.7971,0.0829,0.4925,-0.1800,1.6200,0.6400,0.0000,0.1117,-0.3516,0.0493,996,1497,1527,1502,2008,1000,1505,1000,1000,1630,1005,1498,1014,14.5929,6.6103,-10.7918,0.0197,-0.1033,0.9667,0.5126,0.1906,-0.4139,-0.2892,0.8627,0.2400,0.1321,0.8627,0.2400,0.1321,0.3000,0.0600,0.0002,0,-3.3350,-3.5000,-0.2490,-3.3350,-3.5000,-0.2490,-0.6859,42.1630,-0.0300,0.2700,0.0000,0.0000,0.0000,0.0000,0.0000,0.0000
-8.3619,41.3816,-32.9657,-0.0829,0.4925,-0.1800,1.6200,0.6400,0.0000,0.1117,-0.3531,0.0517,996,1497,1527,1502,2008,1000,1505,1000,1000,1630,1005,1498,1014,14.3299,7.6150,-11.5759,0.0244,-0.1104,0.9724,0.5165,0.1897,-0.4130,-0.2931,0.8627,0.2400,0.1321,0.8627,0.2400,0.1321,0.3000,0.0600,0.0002,0,-3.3350,-3.5000,-0.2490,-3.3350,-3.5000,-0.2490,-0.6764,42.2207,-0.0300,0.2700,0.0000,0.0000,0.0000,0.0000,0.0000,0.0000
-8.3328,41.4041,-33.1475,-0.0829,0.5746,-0.1800,1.6200,0.6400,0.0000,0.1120,-0.3532,0.0551,996,1497,1527,1502,2008,1000,1505,1000,1000,1630,1005,1498,1014,13.8824,7.5320,-12.6641,0.0255,-0.1072,0.9809,0.5203,0.1861,-0.4101,-0.2963,0.8627,0.2400,0.1321,0.8627,0.2400,0.1321,0.3000,0.0600,0.0002,0,-3.3350,-3.5000,-0.2490,-3.3350,-3.5000,-0.2490,-0.6788,42.2677,-0.0300,0.2700,0.0000,0.0000,0.0000,0.0000,0.0000,0.0000
-8.3086,41.4166,-33.3416,0.0829,0.5746,-0.1800,1.6200,0.6400,0.0000,0.1103,-0.3510,0.0580,998,1498,1529,1502,2008,1000,1505,1000,1000,1630,1005,1498,1014,14.9990,5.7933,-13.6329,0.0062,-0.1029,0.9932,0.5193,0.1827,-0.4033,-0.2986,0.8627,0.2400,0.1321,0.8627,0.2400,0.1321,0.3000,0.0600,0.0002,0,-3.3350,-3.5000,-0.2490,-3.3350,-3.5000,-0.2490,-0.6916,42.3022,-0.0300,0.2700,0.0000,0.0000,0.0000,0.0000,0.0000,0.0000
-8.2771,41.4071,-33.5412,0.0000,0.5746,-0.1800,1.6200,0.6400,0.0000,0.1091,-0.3483,0.0593,996,1497,1527,1502,2008,1000,1505,1000,1000,1630,1005,1498,1014,15.7033,3.8166,-14.1139,-0.0087,-0.0832,0.9966,0.5167,0.1799,-0.3981,-0.2985,0.8627,0.2400,0.1321,0.8627,0.2400,0.1321,0.3000,0.0600,0.0002,0,-3.3350,-3.5000,-0.2490,-3.3350,-3.5000,-0.2490,-0.7078,42.3250,-0.0300,0.2700,0.0000,0.0000,0.0000,0.0000,0.0000,0.0000
-8.2301,41.3757,-33.7396,0.0000,0.5746,-0.1800,1.6200,0.6400,0.0000,0.1062,-0.3453,0.0595,996,1497,1527,1502,2008,1000,1505,1000,1000,1630,1005,1498,1014,17.6063,1.7685,-14.1774,-0.0290,-0.0732,1.0028,0.5109,0.1797,-0.3920,-0.2986,0.8627,0.2400,0.1321,0.8627,0.2400,0.1321,0.3000,0.0600,0.0002,0,-3.3350,-3.5000,-0.2490,-3.3350,-3.5000,-0.2490,-0.7253,42.3324,-0.0300,0.2700,0.0000,0.0000,0.0000,0.0000,0.0000,0.0000
-8.1655,41.3299,-33.9320,0.1657,0.6566,-0.1800,1.6200,0.6400,0.0000,0.1048,-0.3438,0.0580,996,1497,1527,1502,2008,1000,1505,1000,1000,1630,1005,1498,1014,18.2334,0.8985,-13.7417,-0.0315,-0.0698,0.9969,0.5066,0.1809,-0.3905,-0.2970,0.8627,0.2400,0.1321,0.8627,0.2400,0.1321,0.3000,0.0600,0.0002,0,-3.3350,-3.5000,-0.2490,-3.3350,-3.5000,-0.2490,-0.7358,42.3324,-0.0300,0.2700,0.0000,0.0000,0.0000,0.0000,0.0000,0.0000
-8.0865,41.2791,-34.1139,0.0000,0.6566,-0.1800,1.6200,0.6400,0.0000,0.1035,-0.3431,0.0555,996,1497,1527,1502,2008,1000,1505,1000,1000,1630,1005,1498,1014,18.7218,0.7539,-12.8883,-0.0370,-0.0728,0.9966,0.5021,0.1842,-0.3912,-0.2951,0.8627,0.2400,0.1321,0.8627,0.2400,0.1321,0.3000,0.0600,0.0002,0,-3.3350,-3.5000,-0.2490,-3.3350,-3.5000,-0.2490,-0.7413,42.3257,-0.0300,0.2700,0.0000,0.0000,0.0000,0.0000,0.0000,0.0000
-8.0060,41.2357,-34.2831,-0.0829,0.6566,-0.1800,1.6200,0.6400,0.0000,0.1043,-0.3438,0.0518,996,1497,1527,1502,2008,1000,1505,1000,1000,1630,1005,1498,1014,17.5416,1.5667,-11.7014,-0.0439,-0.0842,0.9928,0.4999,0.1877,-0.3964,-0.2913,0.8627,0.2400,0.1321,0.8627,0.2400,0.1321,0.3000,0.0600,0.0002,0,-3.3350,-3.5000,-0.2490,-3.3350,-3.5000,-0.2490,-0.7338,42.3163,-0.0300,0.2700,0.0000,0.0000,0.0000,0.0000,0.0000,0.0000
-7.9226,41.2014,-34.4365,-0.1657,0.7387,-0.1800,1.6200,0.6400,0.0000,0.1048,-0.3446,0.0479,998,1497,1529,1502,2008,1000,1505,1000,1000,1629,1005,1498,1014,16.6214,2.3978,-10.4029,-0.0544,-0.0801,0.9964,0.4974,0.1919,-0.4015,-0.2877,0.8627,0.2400,0.1321,0.8627,0.2400,0.1321,0.3000,0.0600,0.0002,0,-3.3305,-3.5000,-0.2490,-3.3305,-3.5000,-0.2490,-0.7173,42.3024,-0.0300,0.2700,0.0000,0.0000,0.0000,0.0000,0.0000,0.0000
-7.8488,41.1764,-34.5719,-0.0829,0.6566,-0.1800,1.6200,0.6400,0.0000,0.1073,-0.3447,0.0440,996,1497,1527,1502,2008,1000,1505,1000,1000,1629,1005,1498,1014,14.2629,2.5948,-9.0837,-0.0678,-0.0826,1.0131,0.4960,0.1934,-0.4080,-0.2813,0.8627,0.2400,0.1321,0.8627,0.2400,0.1321,0.3000,0.0600,0.0002,0,-3.3305,-3.5000,-0.2490,-3.3305,-3.5000,-0.2490,-0.6885,42.2854,-0.0300,0.2700,0.0000,0.0000,0.0000,0.0000,0.0000,0.0000
-7.7834,41.1496,-34.6895,-0.0829,0.6566,-0.1800,1.6200,0.6400,0.0000,0.1097,-0.3435,0.0405,996,1497,1527,1502,2008,1000,1505,1000,1000,1629,1005,1498,1014,12.0179,1.8849,-7.9369,-0.0793,-0.0518,1.0195,0.4938,0.1933,-0.4127,-0.2743,0.8627,0.2400,0.1321,0.8627,0.2400,0.1321,0.3000,0.0600,0.0002,0,-3.3305,-3.5000,-0.2490,-3.3305,-3.5000,-0.2490,-0.6497,42.2662,-0.0300,0.2700,0.0000,0.0000,0.0000,0.0000,0.0000,0.0000
-7.7312,41.1148,-34.7870,-0.1657,0.6566,-0.1800,1.6200,0.6400,0.0000,0.1122,-0.3418,0.0364,996,1497,1527,1502,2008,1000,1505,1000,1000,1630,1005,1498,1014,9.7716,0.8043,-6.5823,-0.0672,-0.0338,1.0291,0.4905,0.1931,-0.4176,-0.2660,0.8627,0.2400,0.1321,0.8627,0.2400,0.1321,0.3000,0.0600,0.0002,0,-3.3350,-3.5000,-0.2490,-3.3350,-3.5000,-0.2490,-0.5948,42.2449,-0.0300,0.2700,0.0000,0.0000,0.0000,0.0000,0.0000,0.0000
-7.6803,41.0703,-34.8620,-0.1657,0.7387,-0.1800,1.6200,0.6400,0.0000,0.1136,-0.3398,0.0321,996,1497,1527,1502,2008,1000,1505,1000,1000,1630,1005,1498,1014,8.3922,-0.4171,-5.1487,-0.0496,-0.0165,1.0256,0.4855,0.1940,-0.4213,-0.2583,0.8627,0.2400,0.1321,0.8627,0.2400,0.1321,0.3000,0.0600,0.0002,0,-3.3350,-3.5000,-0.2490,-3.3350,-3.5000,-0.2490,-0.5288,42.2200,-0.0300,0.2700,0.0000,0.0000,0.0000,0.0000,0.0000,0.0000
-7.6239,41.0187,-34.9149,-0.1657,0.6566,-0.1800,1.6200,0.6400,0.0000,0.1132,-0.3386,0.0276,996,1497,1527,1502,2008,1000,1505,1000,1000,1630,1005,1498,1014,8.3683,-0.9516,-3.6248,-0.0307,-0.0309,1.0241,0.4794,0.1979,-0.4242,-0.2530,0.8627,0.2400,0.1321,0.8627,0.2400,0.1321,0.3000,0.0600,0.0002,0,-3.3350,-3.5000,-0.2490,-3.3350,-3.5000,-0.2490,-0.4511,42.1908,-0.0300,0.2700,0.0000,0.0000,0.0000,0.0000,0.0000,0.0000
-7.5484,40.9671,-34.9454,-0.1657,0.8208,-0.1800,1.6200,0.6400,0.0000,0.1118,-0.3384,0.0225,998,1498,1528,1502,2008,1000,1505,1000,1000,1630,1005,1498,1014,8.8730,-0.8121,-1.9450,-0.0274,-0.0406,0.9988,0.4728,0.2040,-0.4277,-0.2491,0.8627,0.2400,0.1321,0.8627,0.2400,0.1321,0.3000,0.0600,0.0002,0,-3.3350,-3.5000,-0.2490,-3.3350,-3.5000,-0.2490,-0.3661,42.1587,-0.0300,0.2700,0.0000,0.0000,0.0000,0.0000,0.0000,0.0000
-7.4514,40.9207,-34.9560,-0.2486,0.5746,-0.1800,1.6200,0.6400,0.0000,0.1092,-0.3385,0.0180,996,1497,1527,1502,2008,1000,1505,1000,1000,1630,1005,1498,1014,10.2182,-0.4444,-0.4535,-0.0158,-0.0599,0.9820,0.4657,0.2112,-0.4297,-0.2472,0.8627,0.2400,0.1321,0.8627,0.2400,0.1321,0.3000,0.0600,0.0002,0,-3.3350,-3.5000,-0.2490,-3.3350,-3.5000,-0.2490,-0.2732,42.1217,-0.0300,0.2700,0.0000,0.0000,0.0000,0.0000,0.0000,0.0000
-7.3304,40.8811,-34.9462,-0.0829,0.7387,-0.1800,1.6200,0.6400,0.0000,0.1072,-0.3388,0.0130,996,1497,1527,1502,2008,1000,1505,1000,1000,1630,1005,1498,1014,10.9846,0.0738,1.2166,-0.0044,-0.0739,0.9514,0.4590,0.2186,-0.4330,-0.2446,0.8627,0.2400,0.1321,0.8627,0.2400,0.1321,0.3000,0.0600,0.0002,0,-3.3350,-3.5000,-0.2490,-3.3350,-3.5000,-0.2490,-0.1715,42.0794,-0.0300,0.2700,0.0000,0.0000,0.0000,0.0000,0.0000,0.0000
-7.1854,40.8469,-34.9145,-0.2486,0.6566,-0.1800,1.6200,0.6400,0.0000,0.1042,-0.3385,0.0076,996,1497,1527,1502,2008,1000,1505,1000,1000,1630,1005,1498,1014,12.2773,0.0970,3.0315,0.0024,-0.0978,0.9541,0.4503,0.2268,-0.4352,-0.2419,0.8627,0.2400,0.1321,0.8627,0.2400,0.1321,0.3000,0.0600,0.0002,0,-3.3350,-3.5000,-0.2490,-3.3350,-3.5000,-0.2490,-0.0635,42.0318,-0.0300,0.2700,0.0000,0.0000,0.0000,0.0000,0.0000,0.0000
-7.0149,40.8133,-34.8583,-0.1657,0.8208,-0.1800,1.6200,0.6400,0.0000,0.1018,-0.3380,0.0017,996,1497,1527,1502,2008,1000,1505,1000,1000,1630,1005,1498,1014,12.9829,-0.1073,4.9789,0.0037,-0.1163,0.9755,0.4415,0.2345,-0.4381,-0.2378,0.8627,0.2400,0.1321,0.8627,0.2400,0.1321,0.3000,0.0600,0.0002,0,-3.3350,-3.5000,-0.2490,-3.3350,-3.5000,-0.2490,0.0526,41.9794,-0.0300,0.2700,0.0000,0.0000,0.0000,0.0000,0.0000,0.0000
-6.8183,40.7788,-34.7757,-0.1657,0.6566,-0.1800,1.6200,0.6400,0.0000,0.0983,-0.3371,-0.0043,996,1497,1527,1502,2008,1000,1505,1000,1000,1630,1005,1498,1014,14.3961,-0.5678,6.9415,-0.0069,-0.1267,0.9718,0.4310,0.2431,-0.4396,-0.2345,0.8627,0.2400,0.1321,0.8627,0.2400,0.1321,0.3000,0.0600,0.0002,0,-3.3350,-3.5000,-0.2490,-3.3350,-3.5000,-0.2490,0.1772,41.9215,-0.0300,0.2700,0.0000,0.0000,0.0000,0.0000,0.0000,0.0000
-6.5918,40.7413,-34.6645,-0.1657,0.7387,-0.1800,1.6200,0.6400,0.0000,0.0960,-0.3361,-0.0101,998,1498,1529,1502,2008,1000,1505,1000,1000,1630,1005,1498,1014,14.6254,-1.0448,8.9068,-0.0172,-0.1063,0.9850,0.4220,0.2503,-0.4423,-0.2300,0.8627,0.2400,0.1321,0.8627,0.2400,0.1321,0.3000,0.0600,0.0002,0,-3.3350,-3.5000,-0.2490,-3.3350,-3.5000,-0.2490,0.3153,41.8595,-0.0300,0.2700,0.0000,0.0000,0.0000,0.0000,0.0000,0.0000
-6.3439,40.6978,-34.5254,-0.3315,0.6566,-0.1800,1.6200,0.6400,0.0000,0.0931,-0.3342,-0.0158,996,1497,1527,1502,2008,1000,1505,1000,1000,1630,1005,1498,1014,15.2200,-2.1931,10.7757,-0.0342,-0.0893,0.9919,0.4115,0.2569,-0.4431,-0.2254,0.8627,0.2400,0.1321,0.8627,0.2400,0.1321,0.3000,0.0600,0.0002,0,-3.3350,-3.5000,-0.2490,-3.3350,-3.5000,-0.2490,0.4692,41.7923,-0.0300,0.2700,0.0000,0.0000,0.0000,0.0000,0.0000,0.0000
-6.0795,40.6455,-34.3587,-0.2486,0.8208,-0.1800,1.6200,0.6400,0.0000,0.0924,-0.3328,-0.0209,996,1497,1527,1502,2008,1000,1505,1000,1000,1630,1005,1498,1014,14.0194,-2.9279,12.4744,-0.0384,-0.0601,0.9972,0.4042,0.2614,-0.4461,-0.2195,0.8627,0.2400,0.1321,0.8627,0.2400,0.1321,0.3000,0.0600,0.0002,0,-3.3350,-3.5000,-0.2490,-3.3350,-3.5000,-0.2490,0.6386,41.7227,-0.0300,0.2700,0.0000,0.0000,0.0000,0.0000,0.0000,0.0000
-5.8077,40.5875,-34.1677,-0.3315,0.8208,-0.1800,1.6200,0.6400,0.0000,0.0905,-0.3316,-0.0259,996,1497,1527,1502,2008,1000,1505,1000,1000,1629,1005,1498,1014,13.6325,-3.4382,14.0927,-0.0426,-0.0428,1.0140,0.3962,0.2670,-0.4481,-0.2152,0.8627,0.2400,0.1321,0.8627,0.2400,0.1321,0.3000,0.0600,0.0002,0,-3.3305,-3.5000,-0.2490,-3.3305,-3.5000,-0.2490,0.8280,41.6496,-0.0300,0.2700,0.0000,0.0000,0.0000,0.0000,0.0000,0.0000
-5.5350,40.5282,-33.9548,-0.2486,0.7387,-0.1800,1.6200,0.6400,0.0000,0.0909,-0.3312,-0.0301,996,1497,1527,1502,2008,1000,1505,1000,1000,1629,1005,1498,1014,11.5439,-3.4073,15.4862,-0.0440,-0.0241,1.0188,0.3920,0.2703,-0.4522,-0.2101,0.8627,0.2400,0.1321,0.8627,0.2400,0.1321,0.3000,0.0600,0.0002,0,-3.3305,-3.5000,-0.2490,-3.3305,-3.5000,-0.2490,1.0344,41.5771,-0.0300,0.2700,0.0000,0.0000,0.0000,0.0000,0.0000,0.0000
-5.2616,40.4723,-33.7261,-0.3315,0.8208,-0.1800,1.6200,0.6400,0.0000,0.0886,-0.3314,-0.0334,996,1497,1527,1502,2008,1000,1505,1000,1000,1630,1005,1498,1014,11.5076,-2.8326,16.5696,-0.0438,-0.0157,1.0030,0.3867,0.2762,-0.4535,-0.2094,0.8627,0.2400,0.1321,0.8627,0.2400,0.1321,0.3000,0.0600,0.0002,0,-3.3350,-3.5000,-0.2490,-3.3350,-3.5000,-0.2490,1.2537,41.5040,-0.0300,0.2700,0.0000,0.0000,0.0000,0.0000,0.0000,0.0000
-4.9906,40.4247,-33.4862,-0.3315,0.8208,-0.1800,1.6200,0.6400,0.0000,0.0880,-0.3321,-0.0351,998,1498,1529,1502,2008,1000,1505,1000,1000,1630,1005,1498,1014,10.2495,-2.0062,17.1506,-0.0412,-0.0222,1.0049,0.3849,0.2793,-0.4552,-0.2090,0.8627,0.2400,0.1321,0.8627,0.2400,0.1321,0.3000,0.0600,0.0002,0,-3.3350,-3.5000,-0.2490,-3.3350,-3.5000,-0.2490,1.4818,41.4328,-0.0300,0.2700,0.0000,0.0000,0.0000,0.0000,0.0000,0.0000
-4.7182,40.3834,-33.2444,-0.4144,0.7387,-0.1800,1.6200,0.6400,0.0000,0.0846,-0.3325,-0.0353,996,1497,1527,1502,2008,1000,1505,1000,1000,1630,1005,1498,1014,10.9962,-1.4269,17.1752,-0.0361,-0.0212,0.9981,0.3819,0.2832,-0.4524,-0.2126,0.8627,0.2400,0.1321,0.8627,0.2400,0.1321,0.3000,0.0600,0.0002,0,-3.3350,-3.5000,-0.2490,-3.3350,-3.5000,-0.2490,1.7092,41.3623,-0.0300,0.2700,0.0000,0.0000,0.0000,0.0000,0.0000,0.0000
-4.4466,40.3467,-33.0061,-0.3315,0.8208,-0.1800,1.6200,0.6400,0.0000,0.0820,-0.3327,-0.0343,996,1497,1527,1502,2008,1000,1505,1000,1000,1630,1005,1498,1014,11.2294,-1.0387,16.8201,-0.0356,-0.0271,1.0015,0.3804,0.2851,-0.4490,-0.2164,0.8627,0.2400,0.1321,0.8627,0.2400,0.1321,0.3000,0.0600,0.0002,0,-3.3350,-3.5000,-0.2490,-3.3350,-3.5000,-0.2490,1.9341,41.2933,-0.0300,0.2700,0.0000,0.0000,0.0000,0.0000,0.0000,0.0000
-4.1675,40.3101,-32.7763,-0.4144,0.8208,-0.1800,1.6200,0.6400,0.0000,0.0777,-0.3324,-0.0322,996,1497,1527,1502,2008,1000,1505,1000,1000,1630,1005,1498,1014,12.6369,-1.0371,16.1132,-0.0293,-0.0139,0.9890,0.3780,0.2869,-0.4423,-0.2225,0.8627,0.2400,0.1321,0.8627,0.2400,0.1321,0.3000,0.0600,0.0002,0,-3.3350,-3.5000,-0.2490,-3.3350,-3.5000,-0.2490,2.1484,41.2227,-0.0300,0.2700,0.0000,0.0000,0.0000,0.0000,0.0000,0.0000
-3.8921,40.2710,-32.5590,-0.4144,0.8208,-0.1800,1.6200,0.6400,0.0000,0.0750,-0.3317,-0.0287,996,1497,1527,1502,2008,1000,1505,1000,1000,1629,1005,1498,1014,12.9182,-1.3059,14.9427,-0.0264,-0.0266,1.0014,0.3779,0.2855,-0.4354,-0.2280,0.8627,0.2400,0.1321,0.8627,0.2400,0.1321,0.3000,0.0600,0.0002,0,-3.3305,-3.5000,-0.2490,-3.3305,-3.5000,-0.2490,2.3583,41.1517,-0.0300,0.2700,0.0000,0.0000,0.0000,0.0000,0.0000,0.0000
-3.6162,40.2248,-32.3584,-0.4972,0.7387,-0.1800,1.6200,0.6400,0.0000,0.0716,-0.3305,-0.0252,996,1497,1527,1502,2008,1000,1505,1000,1000,1629,1005,1498,1014,13.6828,-1.9061,13.7251,-0.0229,-0.0025,1.0106,0.3769,0.2841,-0.4273,-0.2338,0.8627,0.2400,0.1321,0.8627,0.2400,0.1321,0.3000,0.0600,0.0002,0,-3.3305,-3.5000,-0.2490,-3.3305,-3.5000,-0.2490,2.5576,41.0801,-0.0300,0.2700,0.0000,0.0000,0.0000,0.0000,0.0000,0.0000
-3.3583,40.1724,-32.1744,-0.4972,0.7387,-0.1800,1.6200,0.6400,0.0000,0.0704,-0.3295,-0.0214,998,1498,1528,1502,2008,1000,1505,1000,1000,1630,1005,1498,1014,12.9155,-2.3280,12.4407,-0.0145,-0.0132,1.0187,0.3785,0.2806,-0.4213,-0.2378,0.8627,0.2400,0.1321,0.8627,0.2400,0.1321,0.3000,0.0600,0.0002,0,-3.3350,-3.5000,-0.2490,-3.3350,-3.5000,-0.2490,2.7514,41.0083,-0.0300,0.2700,0.0000,0.0000,0.0000,0.0000,0.0000,0.0000
-3.1132,40.1164,-32.0067,-0.5801,0.8208,-0.1800,1.6200,0.6400,0.0000,0.0694,-0.3291,-0.0184,996,1497,1527,1502,2008,1000,1505,1000,1000,1630,1005,1498,1014,12.0415,-2.2702,11.3834,-0.0076,0.0083,1.0069,0.3801,0.2781,-0.4169,-0.2413,0.8627,0.2400,0.1321,0.8627,0.2400,0.1321,0.3000,0.0600,0.0002,0,-3.3350,-3.5000,-0.2490,-3.3350,-3.5000,-0.2490,2.9345,40.9372,-0.0300,0.2700,0.0000,0.0000,0.0000,0.0000,0.0000,0.0000
