roll_imu,pitch_imu,yaw_imu,alpha,beta,roll_des,pitch_des,yaw_des,throttle_des,roll_pid,pitch_pid,yaw_pid,radio_ch1,radio_ch2,radio_ch3,radio_ch4,radio_ch5,radio_ch6,radio_ch7,radio_ch8,radio_ch9,radio_ch10,radio_ch11,radio_ch12,radio_ch13,GyroX,GyroY,GyroZ,AccX,AccY,AccZ,s1_command,s2_command,s3_command,s4_command,kp_roll,ki_roll,kd_roll,kp_pitch,ki_pitch,kd_pitch,kp_yaw,ki_yaw,kd_yaw,failsafeTriggered,kp_alphaRoll,ki_alphaRoll,kd_alphaRoll,kp_betaPitch,ki_betaPitch,kd_betaPitch,ripIMU_roll,ripIMU_pitch,ripRoll_des,ripPitch_des,error_alphaRoll,integral_alphaRoll,derivative_alphaRoll,error_betaPitch,integral_betaPitch,derivative_betaPitch
0.0000,0.0000,0.0000,-7.7072,2.7497,0.0000,0.0000,0.0000,0.0000,0.0000,0.0000,0.0000,1000,1500,1500,1500,2000,1000,1000,1000,1500,1500,1500,1500,1500,0.0000,0.0000,0.0000,0.0000,0.0000,0.0000,0.0000,0.0000,0.0000,0.0000,0.8627,0.2400,0.1321,0.8627,0.2400,0.1321,0.3000,0.0600,0.0002,0,-4.9280,-256.2000,-0.5040,-4.9280,-256.2000,-0.5040,0.0000,0.0000,0.0000,0.0000,0.0000,0.0000,0.0000,0.0000,0.0000,0.0000
-39.5760,-37.7988,14.1541,0.0000,-0.0000,-7.8600,-6.5400,-41.9200,0.0000,0.3337,0.2697,-0.1261,910,1369,1391,1369,2008,1000,1505,1000,1000,1002,1005,1000,1017,-0.0293,0.0053,0.0505,0.0011,-0.0091,0.8596,-0.0621,-0.4772,-0.1901,0.7294,0.8627,0.2400,0.1321,0.8627,0.2400,0.1321,0.3000,0.0600,0.0002,0,-4.9181,-257.7372,-0.4808,-4.9181,-257.7372,-0.4808,-38.9391,-38.3816,-1.3100,-1.0900,0.0000,0.0000,0.0000,0.0000,0.0000,0.0000
-39.5416,-37.7777,14.1332,-0.0829,-0.0821,-2.3400,-0.7800,-12.4800,0.0000,0.3810,0.3191,-0.0379,971,1461,1487,1461,2008,1000,1505,1000,1000,1002,1005,1000,1017,-0.0097,0.0308,0.0375,-0.0007,-0.0113,0.9966,0.0239,-0.6622,-0.0997,0.7380,0.8627,0.2400,0.1321,0.8627,0.2400,0.1321,0.3000,0.0600,0.0002,0,-4.9181,-257.7372,-0.4808,-4.9181,-257.7372,-0.4808,-38.9047,-38.3605,-0.3900,-0.1300,0.0000,0.0000,0.0000,0.0000,0.0000,0.0000
-39.5074,-37.7565,14.1119,-0.0829,-0.0821,-0.6000,0.9000,-3.2000,0.0000,0.3957,0.3335,-0.0101,991,1490,1515,1490,2008,1000,1505,1000,1000,1002,1005,1000,1017,-0.0169,-0.0139,0.0253,0.0008,-0.0123,1.0015,0.0520,-0.7190,-0.0723,0.7393,0.8627,0.2400,0.1321,0.8627,0.2400,0.1321,0.3000,0.0600,0.0002,0,-4.9181,-257.7372,-0.4808,-4.9181,-257.7372,-0.4808,-38.8698,-38.3398,-0.1000,0.1500,0.0000,0.0000,0.0000,0.0000,0.0000,0.0000
-39.4726,-37.7356,14.0906,-0.0829,-0.1642,0.0000,1.3200,0.0000,0.0000,0.4005,0.3369,-0.0004,996,1500,1522,1500,2008,1000,1505,1000,1000,1002,1005,1000,1017,0.0043,0.0058,-0.0257,0.0004,-0.0106,1.0011,0.0632,-0.7370,-0.0640,0.7379,0.8627,0.2400,0.1321,0.8627,0.2400,0.1321,0.3000,0.0600,0.0002,0,-4.9181,-257.7372,-0.4808,-4.9181,-257.7372,-0.4808,-38.8351,-38.3190,0.0000,0.2200,0.0000,0.0000,0.0000,0.0000,0.0000,0.0000
-39.4383,-37.7146,14.0699,-0.0829,-0.1642,0.1200,1.5000,0.6400,0.0000,0.4012,0.3384,0.0013,996,1502,1525,1502,2008,1000,1505,1000,1000,1002,1005,1000,1017,0.0664,-0.0502,0.0550,0.0037,-0.0154,1.0048,0.0641,-0.7408,-0.0615,0.7383,0.8627,0.2400,0.1321,0.8627,0.2400,0.1321,0.3000,0.0600,0.0002,0,-4.9181,-257.7372,-0.4808,-4.9181,-257.7372,-0.4808,-38.8009,-38.2983,0.0200,0.2500,0.0000,0.0000,0.0000,0.0000,0.0000,0.0000
-39.4037,-37.6936,14.0490,-0.1657,-0.0821,0.1800,1.6200,0.9600,0.0000,0.4014,0.3391,0.0014,996,1502,1527,1502,2008,1000,1505,1000,1000,1002,1005,1000,1017,0.0310,0.0064,0.0288,0.0042,-0.0121,1.0018,0.0637,-0.7420,-0.0609,0.7392,0.8627,0.2400,0.1321,0.8627,0.2400,0.1321,0.3000,0.0600,0.0002,0,-4.9181,-257.7372,-0.4808,-4.9181,-257.7372,-0.4808,-38.7671,-38.2775,0.0300,0.2700,0.0000,0.0000,0.0000,0.0000,0.0000,0.0000
-39.3693,-37.6725,14.0285,-0.0829,-0.0821,0.1200,1.6200,0.6400,0.0000,0.4007,0.3391,0.0014,996,1502,1527,1502,2008,1000,1505,1000,1000,1002,1005,1000,1017,-0.0068,-0.0572,0.0422,0.0014,-0.0129,1.0004,0.0630,-0.7411,-0.0603,0.7384,0.8627,0.2400,0.1321,0.8627,0.2400,0.1321,0.3000,0.0600,0.0002,0,-4.9181,-257.7372,-0.4808,-4.9181,-257.7372,-0.4808,-38.7329,-38.2561,0.0200,0.2700,0.0000,0.0000,0.0000,0.0000,0.0000,0.0000
-39.3354,-37.6510,14.0080,0.0000,-0.0000,0.1200,1.6200,0.6400,0.0000,0.4004,0.3387,0.0013,996,1502,1527,1502,2008,1000,1505,1000,1000,1002,1005,1000,1018,0.0024,0.0784,0.0672,0.0008,-0.0157,1.0057,0.0630,-0.7403,-0.0604,0.7378,0.8627,0.2400,0.1321,0.8627,0.2400,0.1321,0.3000,0.0600,0.0002,0,-4.9329,-258.5058,-0.4823,-4.9329,-258.5058,-0.4823,-38.6991,-38.2349,0.0200,0.2700,0.0000,0.0000,0.0000,0.0000,0.0000,0.0000
-39.3007,-37.6293,13.9871,-0.0829,-0.0821,0.1200,1.6200,0.6400,0.0000,0.4001,0.3385,0.0014,996,1502,1527,1502,2008,1000,1505,1000,1000,1002,1005,1000,1018,0.0019,0.0709,0.0433,0.0031,-0.0112,1.0058,0.0629,-0.7400,-0.0602,0.7372,0.8627,0.2400,0.1321,0.8627,0.2400,0.1321,0.3000,0.0600,0.0002,0,-4.9329,-258.5058,-0.4823,-4.9329,-258.5058,-0.4823,-38.6649,-38.2134,0.0200,0.2700,0.0000,0.0000,0.0000,0.0000,0.0000,0.0000
-39.2664,-37.6077,13.9662,-0.0829,-0.0821,0.1200,1.6200,0.6400,0.0000,0.3998,0.3384,0.0012,996,1502,1527,1502,2008,1000,1505,1000,1000,1002,1005,1000,1018,-0.0294,-0.0048,0.0830,0.0016,-0.0137,1.0007,0.0626,-0.7395,-0.0602,0.7370,0.8627,0.2400,0.1321,0.8627,0.2400,0.1321,0.3000,0.0600,0.0002,0,-4.9329,-258.5058,-0.4823,-4.9329,-258.5058,-0.4823,-38.6306,-38.1920,0.0200,0.2700,0.0000,0.0000,0.0000,0.0000,0.0000,0.0000
-39.2321,-37.5868,13.9455,0.0000,-0.0821,0.1200,1.6200,0.6400,0.0000,0.3995,0.3383,0.0015,996,1502,1527,1502,2008,1000,1505,1000,1000,1002,1005,1000,1018,0.0169,-0.0188,0.0043,0.0016,-0.0131,0.9988,0.0627,-0.7392,-0.0598,0.7363,0.8627,0.2400,0.1321,0.8627,0.2400,0.1321,0.3000,0.0600,0.0002,0,-4.9329,-258.5058,-0.4823,-4.9329,-258.5058,-0.4823,-38.5960,-38.1706,0.0200,0.2700,0.0000,0.0000,0.0000,0.0000,0.0000,0.0000
-39.1974,-37.5661,13.9244,-0.0829,-0.0000,0.1800,1.6200,0.9600,0.0000,0.3997,0.3381,0.0017,996,1502,1527,1502,2008,1000,1505,1000,1000,1002,1005,1000,1018,-0.0132,-0.0134,-0.0579,0.0044,-0.0122,0.9991,0.0633,-0.7395,-0.0600,0.7361,0.8627,0.2400,0.1321,0.8627,0.2400,0.1321,0.3000,0.0600,0.0002,0,-4.9329,-258.5058,-0.4823,-4.9329,-258.5058,-0.4823,-38.5614,-38.1493,0.0300,0.2700,0.0000,0.0000,0.0000,0.0000,0.0000,0.0000
-39.1629,-37.5454,13.9034,-0.0829,-0.0821,0.1200,1.6200,0.6400,0.0000,0.3989,0.3379,0.0014,996,1502,1527,1502,2008,1000,1505,1000,1000,1002,1005,1000,1018,-0.0185,-0.0149,0.0337,0.0028,-0.0146,1.0017,0.0624,-0.7382,-0.0596,0.7354,0.8627,0.2400,0.1321,0.8627,0.2400,0.1321,0.3000,0.0600,0.0002,0,-4.9329,-258.5058,-0.4823,-4.9329,-258.5058,-0.4823,-38.5269,-38.1280,0.0200,0.2700,0.0000,0.0000,0.0000,0.0000,0.0000,0.0000
-39.1288,-37.5246,13.8829,0.0000,-0.0821,0.1200,1.6200,0.6400,0.0000,0.3986,0.3378,0.0014,996,1502,1527,1502,2008,1000,1505,1000,1000,1002,1005,1000,1018,0.0052,-0.0487,0.0406,-0.0009,-0.0123,1.0045,0.0622,-0.7378,-0.0594,0.7350,0.8627,0.2400,0.1321,0.8627,0.2400,0.1321,0.3000,0.0600,0.0002,0,-4.9329,-258.5058,-0.4823,-4.9329,-258.5058,-0.4823,-38.4921,-38.1069,0.0200,0.2700,0.0000,0.0000,0.0000,0.0000,0.0000,0.0000
-39.0946,-37.5032,13.8620,0.0000,-0.0821,0.1200,1.6200,0.6400,0.0000,0.3983,0.3375,0.0017,996,1502,1527,1502,2008,1000,1505,1000,1000,1002,1005,1000,1018,0.0272,-0.0040,-0.0342,0.0022,-0.0162,0.9972,0.0624,-0.7374,-0.0591,0.7341,0.8627,0.2400,0.1321,0.8627,0.2400,0.1321,0.3000,0.0600,0.0002,0,-4.9329,-258.5058,-0.4823,-4.9329,-258.5058,-0.4823,-38.4570,-38.0857,0.0200,0.2700,0.0000,0.0000,0.0000,0.0000,0.0000,0.0000
-39.0594,-37.4825,13.8404,-0.0829,-0.0821,0.1200,1.6200,0.6400,0.0000,0.3980,0.3374,0.0015,996,1502,1527,1502,2008,1000,1505,1000,1000,1002,1005,1000,1018,-0.0047,-0.0270,-0.0048,-0.0001,-0.0144,1.0015,0.0621,-0.7369,-0.0591,0.7339,0.8627,0.2400,0.1321,0.8627,0.2400,0.1321,0.3000,0.0600,0.0002,0,-4.9329,-258.5058,-0.4823,-4.9329,-258.5058,-0.4823,-38.4219,-38.0643,0.0200,0.2700,0.0000,0.0000,0.0000,0.0000,0.0000,0.0000
-39.0253,-37.4616,13.8195,0.0000,-0.0821,0.1200,1.6200,0.6400,0.0000,0.3977,0.3372,0.0016,996,1502,1527,1502,2008,1000,1505,1000,1000,1002,1005,1000,1018,-0.0302,-0.0458,-0.0159,0.0028,-0.0125,0.9984,0.0621,-0.7365,-0.0590,0.7334,0.8627,0.2400,0.1321,0.8627,0.2400,0.1321,0.3000,0.0600,0.0002,0,-4.9329,-258.5058,-0.4823,-4.9329,-258.5058,-0.4823,-38.3864,-38.0427,0.0200,0.2700,0.0000,0.0000,0.0000,0.0000,0.0000,0.0000
-38.9913,-37.4405,13.7984,-0.0829,-0.0821,0.1800,1.6200,0.9600,0.0000,0.3980,0.3369,0.0015,996,1502,1527,1502,2008,1000,1505,1000,1000,1002,1005,1000,1017,-0.0768,0.0530,-0.0090,0.0022,-0.0127,1.0006,0.0627,-0.7365,-0.0596,0.7334,0.8627,0.2400,0.1321,0.8627,0.2400,0.1321,0.3000,0.0600,0.0002,0,-4.9181,-257.7372,-0.4808,-4.9181,-257.7372,-0.4808,-38.3514,-38.0214,0.0300,0.2700,0.0000,0.0000,0.0000,0.0000,0.0000,0.0000
-38.9565,-37.4192,13.7766,-0.0829,-0.0000,0.1200,1.6200,0.6400,0.0000,0.3971,0.3367,0.0015,996,1502,1527,1502,2008,1000,1505,1000,1000,1002,1005,1000,1017,-0.0115,0.0812,-0.0161,0.0011,-0.0126,1.0051,0.0620,-0.7353,-0.0589,0.7323,0.8627,0.2400,0.1321,0.8627,0.2400,0.1321,0.3000,0.0600,0.0002,0,-4.9181,-257.7372,-0.4808,-4.9181,-257.7372,-0.4808,-38.3173,-37.9997,0.0200,0.2700,0.0000,0.0000,0.0000,0.0000,0.0000,0.0000
-38.9218,-37.3974,13.7551,0.0000,-0.0821,0.1200,1.6200,0.6400,0.0000,0.3968,0.3365,0.0015,996,1502,1527,1502,2008,1000,1505,1000,1000,1002,1005,1000,1017,0.0038,0.0686,0.0106,0.0008,-0.0091,1.0015,0.0618,-0.7348,-0.0588,0.7318,0.8627,0.2400,0.1321,0.8627,0.2400,0.1321,0.3000,0.0600,0.0002,0,-4.9181,-257.7372,-0.4808,-4.9181,-257.7372,-0.4808,-38.2830,-37.9784,0.0200,0.2700,0.0000,0.0000,0.0000,0.0000,0.0000,0.0000
-38.8874,-37.3761,13.7337,0.0000,-0.0000,0.1200,1.6200,0.6400,0.0000,0.3966,0.3364,0.0017,996,1502,1527,1502,2008,1000,1505,1000,1000,1002,1005,1000,1017,-0.0290,0.0364,-0.0551,0.0005,-0.0136,1.0038,0.0619,-0.7346,-0.0585,0.7312,0.8627,0.2400,0.1321,0.8627,0.2400,0.1321,0.3000,0.0600,0.0002,0,-4.9181,-257.7372,-0.4808,-4.9181,-257.7372,-0.4808,-38.2484,-37.9572,0.0200,0.2700,0.0000,0.0000,0.0000,0.0000,0.0000,0.0000
-38.8530,-37.3551,13.7125,-0.0829,-0.0821,0.1200,1.6200,0.6400,0.0000,0.3962,0.3364,0.0016,996,1502,1527,1502,2008,1000,1505,1000,1000,1002,1005,1000,1018,-0.0215,-0.0936,-0.0214,0.0048,-0.0160,1.0043,0.0614,-0.7342,-0.0583,0.7311,0.8627,0.2400,0.1321,0.8627,0.2400,0.1321,0.3000,0.0600,0.0002,0,-4.9329,-258.5058,-0.4823,-4.9329,-258.5058,-0.4823,-38.2137,-37.9359,0.0200,0.2700,0.0000,0.0000,0.0000,0.0000,0.0000,0.0000
-38.8188,-37.3344,13.6921,-0.0829,-0.1642,0.1200,1.6200,0.6400,0.0000,0.3959,0.3361,0.0015,996,1502,1527,1502,2008,1000,1505,1000,1000,1002,1005,1000,1018,-0.0022,-0.0509,0.0010,0.0005,-0.0142,1.0008,0.0613,-0.7336,-0.0583,0.7305,0.8627,0.2400,0.1321,0.8627,0.2400,0.1321,0.3000,0.0600,0.0002,0,-4.9329,-258.5058,-0.4823,-4.9329,-258.5058,-0.4823,-38.1787,-37.9148,0.0200,0.2700,0.0000,0.0000,0.0000,0.0000,0.0000,0.0000
-38.7848,-37.3133,13.6716,-0.0829,-0.0821,0.1800,1.6200,0.9600,0.0000,0.3962,0.3359,0.0014,996,1502,1527,1502,2008,1000,1505,1000,1000,1002,1005,1000,1018,-0.0048,-0.0507,0.0354,0.0003,-0.0169,1.0031,0.0617,-0.7335,-0.0588,0.7307,0.8627,0.2400,0.1321,0.8627,0.2400,0.1321,0.3000,0.0600,0.0002,0,-4.9329,-258.5058,-0.4823,-4.9329,-258.5058,-0.4823,-38.1440,-37.8936,0.0300,0.2700,0.0000,0.0000,0.0000,0.0000,0.0000,0.0000
-38.7507,-37.2922,13.6514,-0.0829,-0.1642,0.1200,1.6200,0.6400,0.0000,0.3953,0.3358,0.0015,996,1502,1527,1502,2008,1000,1505,1000,1000,1002,1005,1000,1017,0.0591,-0.0569,0.0137,0.0048,-0.0170,1.0031,0.0610,-0.7325,-0.0580,0.7295,0.8627,0.2400,0.1321,0.8627,0.2400,0.1321,0.3000,0.0600,0.0002,0,-4.9181,-257.7372,-0.4808,-4.9181,-257.7372,-0.4808,-38.1097,-37.8717,0.0200,0.2700,0.0000,0.0000,0.0000,0.0000,0.0000,0.0000
-38.7163,-37.2708,13.6312,-0.0829,-0.0000,0.1200,1.6200,0.6400,0.0000,0.3950,0.3355,0.0015,996,1502,1527,1502,2008,1000,1505,1000,1000,1002,1005,1000,1017,0.0142,-0.0089,0.0228,-0.0028,-0.0117,1.0030,0.0610,-0.7321,-0.0580,0.7290,0.8627,0.2400,0.1321,0.8627,0.2400,0.1321,0.3000,0.0600,0.0002,0,-4.9181,-257.7372,-0.4808,-4.9181,-257.7372,-0.4808,-38.0754,-37.8500,0.0200,0.2700,0.0000,0.0000,0.0000,0.0000,0.0000,0.0000
-38.6816,-37.2495,13.6102,0.0000,-0.1642,0.1200,1.6200,0.6400,0.0000,0.3947,0.3353,0.0016,996,1502,1527,1502,2008,1000,1505,1000,1000,1002,1005,1000,1017,0.0227,0.0455,-0.0095,0.0038,-0.0138,1.0006,0.0610,-0.7315,-0.0579,0.7284,0.8627,0.2400,0.1321,0.8627,0.2400,0.1321,0.3000,0.0600,0.0002,0,-4.9181,-257.7372,-0.4808,-4.9181,-257.7372,-0.4808,-38.0408,-37.8285,0.0200,0.2700,0.0000,0.0000,0.0000,0.0000,0.0000,0.0000
-38.6466,-37.2286,13.5887,-0.0829,-0.0821,0.1200,1.6200,0.6400,0.0000,0.3944,0.3352,0.0019,996,1502,1527,1502,2008,1000,1505,1000,1000,1002,1005,1000,1017,0.0352,-0.0408,-0.0942,0.0060,-0.0108,0.9977,0.0610,-0.7314,-0.0573,0.7277,0.8627,0.2400,0.1321,0.8627,0.2400,0.1321,0.3000,0.0600,0.0002,0,-4.9181,-257.7372,-0.4808,-4.9181,-257.7372,-0.4808,-38.0061,-37.8075,0.0200,0.2700,0.0000,0.0000,0.0000,0.0000,0.0000,0.0000
-38.6118,-37.2077,13.5677,0.0000,-0.0000,0.1200,1.6200,0.6400,0.0000,0.3942,0.3350,0.0015,996,1502,1527,1502,2008,1000,1505,1000,1000,1002,1005,1000,1017,-0.0226,0.0028,0.0124,0.0026,-0.0128,1.0006,0.0607,-0.7306,-0.0577,0.7277,0.8627,0.2400,0.1321,0.8627,0.2400,0.1321,0.3000,0.0600,0.0002,0,-4.9181,-257.7372,-0.4808,-4.9181,-257.7372,-0.4808,-37.9711,-37.7867,0.0200,0.2700,0.0000,0.0000,0.0000,0.0000,0.0000,0.0000
-38.5772,-37.1864,13.5467,0.0000,-0.0821,0.1800,1.6200,0.9600,0.0000,0.3944,0.3348,0.0015,996,1502,1527,1502,2008,1000,1505,1000,1000,1002,1005,1000,1017,-0.0046,-0.0204,0.0097,0.0044,-0.0119,0.9987,0.0611,-0.7307,-0.0580,0.7277,0.8627,0.2400,0.1321,0.8627,0.2400,0.1321,0.3000,0.0600,0.0002,0,-4.9181,-257.7372,-0.4808,-4.9181,-257.7372,-0.4808,-37.9360,-37.7657,0.0300,0.2700,0.0000,0.0000,0.0000,0.0000,0.0000,0.0000
-38.5424,-37.1651,13.5254,0.0000,-0.0821,0.1200,1.6200,0.6400,0.0000,0.3935,0.3346,0.0017,996,1502,1527,1502,2008,1000,1505,1000,1000,1002,1005,1000,1017,0.0185,0.0292,-0.0573,0.0016,-0.0166,1.0020,0.0607,-0.7298,-0.0572,0.7263,0.8627,0.2400,0.1321,0.8627,0.2400,0.1321,0.3000,0.0600,0.0002,0,-4.9181,-257.7372,-0.4808,-4.9181,-257.7372,-0.4808,-37.9009,-37.7448,0.0200,0.2700,0.0000,0.0000,0.0000,0.0000,0.0000,0.0000
-38.5074,-37.1440,13.5040,0.0000,-0.0821,0.1200,1.6200,0.6400,0.0000,0.3932,0.3344,0.0017,996,1502,1527,1502,2008,1000,1505,1000,1000,1002,1005,1000,1017,0.0156,0.0025,-0.0127,-0.0012,-0.0131,1.0006,0.0605,-0.7293,-0.0571,0.7260,0.8627,0.2400,0.1321,0.8627,0.2400,0.1321,0.3000,0.0600,0.0002,0,-4.9181,-257.7372,-0.4808,-4.9181,-257.7372,-0.4808,-37.8662,-37.7236,0.0200,0.2700,0.0000,0.0000,0.0000,0.0000,0.0000,0.0000
-38.4727,-37.1230,13.4829,-0.0829,-0.0821,0.1200,1.6200,0.6400,0.0000,0.3930,0.3342,0.0017,996,1502,1527,1502,2008,1000,1505,1000,1000,1002,1005,1000,1017,-0.0303,0.0053,-0.0275,0.0022,-0.0134,0.9994,0.0604,-0.7289,-0.0571,0.7255,0.8627,0.2400,0.1321,0.8627,0.2400,0.1321,0.3000,0.0600,0.0002,0,-4.9181,-257.7372,-0.4808,-4.9181,-257.7372,-0.4808,-37.8317,-37.7028,0.0200,0.2700,0.0000,0.0000,0.0000,0.0000,0.0000,0.0000
-38.4386,-37.1015,13.4623,-0.0829,-0.0821,0.1200,1.6200,0.6400,0.0000,0.3927,0.3340,0.0015,996,1502,1527,1502,2008,1000,1505,1000,1000,1002,1005,1000,1017,-0.0238,0.0451,0.0238,0.0011,-0.0155,0.9956,0.0602,-0.7282,-0.0572,0.7251,0.8627,0.2400,0.1321,0.8627,0.2400,0.1321,0.3000,0.0600,0.0002,0,-4.9181,-257.7372,-0.4808,-4.9181,-257.7372,-0.4808,-37.7980,-37.6808,0.0200,0.2700,0.0000,0.0000,0.0000,0.0000,0.0000,0.0000
-38.4045,-37.0799,13.4419,-0.0829,-0.0821,0.1200,1.6200,0.6400,0.0000,0.3924,0.3338,0.0014,996,1502,1527,1502,2008,1000,1505,1000,1000,1002,1005,1000,1017,-0.0399,0.0154,0.0566,-0.0014,-0.0160,1.0000,0.0600,-0.7277,-0.0571,0.7248,0.8627,0.2400,0.1321,0.8627,0.2400,0.1321,0.3000,0.0600,0.0002,0,-4.9181,-257.7372,-0.4808,-4.9181,-257.7372,-0.4808,-37.7641,-37.6591,0.0200,0.2700,0.0000,0.0000,0.0000,0.0000,0.0000,0.0000
-38.3708,-37.0585,13.4217,-0.0829,-0.0821,0.1800,1.6200,0.9600,0.0000,0.3926,0.3338,0.0017,996,1502,1527,1502,2008,1000,1505,1000,1000,1002,1005,1000,1017,0.0057,-0.0563,-0.0142,0.0006,-0.0116,0.9989,0.0605,-0.7280,-0.0571,0.7246,0.8627,0.2400,0.1321,0.8627,0.2400,0.1321,0.3000,0.0600,0.0002,0,-4.9181,-257.7372,-0.4808,-4.9181,-257.7372,-0.4808,-37.7295,-37.6379,0.0300,0.2700,0.0000,0.0000,0.0000,0.0000,0.0000,0.0000
-38.3365,-37.0370,13.4012,-0.0829,-0.0000,0.1200,1.6200,0.6400,0.0000,0.3918,0.3334,0.0014,996,1502,1527,1502,2008,1000,1505,1000,1000,1002,1005,1000,1017,-0.0185,0.0382,0.0569,0.0020,-0.0134,1.0011,0.0597,-0.7266,-0.0569,0.7238,0.8627,0.2400,0.1321,0.8627,0.2400,0.1321,0.3000,0.0600,0.0002,0,-4.9181,-257.7372,-0.4808,-4.9181,-257.7372,-0.4808,-37.6954,-37.6171,0.0200,0.2700,0.0000,0.0000,0.0000,0.0000,0.0000,0.0000
-38.3023,-37.0151,13.3804,-0.0829,-0.0000,0.1200,1.6200,0.6400,0.0000,0.3915,0.3332,0.0016,996,1502,1527,1502,2008,1000,1505,1000,1000,1002,1005,1000,1017,-0.0274,0.0478,0.0059,0.0028,-0.0135,1.0001,0.0599,-0.7264,-0.0567,0.7231,0.8627,0.2400,0.1321,0.8627,0.2400,0.1321,0.3000,0.0600,0.0002,0,-4.9181,-257.7372,-0.4808,-4.9181,-257.7372,-0.4808,-37.6611,-37.5956,0.0200,0.2700,0.0000,0.0000,0.0000,0.0000,0.0000,0.0000
-38.2682,-36.9933,13.3595,0.0000,-0.0821,0.1200,1.6200,0.6400,0.0000,0.3912,0.3331,0.0016,996,1502,1527,1502,2008,1000,1505,1000,1000,1002,1005,1000,1017,-0.0226,0.0425,0.0005,0.0052,-0.0106,1.0018,0.0598,-0.7259,-0.0565,0.7226,0.8627,0.2400,0.1321,0.8627,0.2400,0.1321,0.3000,0.0600,0.0002,0,-4.9181,-257.7372,-0.4808,-4.9181,-257.7372,-0.4808,-37.6273,-37.5745,0.0200,0.2700,0.0000,0.0000,0.0000,0.0000,0.0000,0.0000
-38.2337,-36.9715,13.3385,0.0000,-0.0000,0.1200,1.6200,0.6400,0.0000,0.3909,0.3329,0.0016,996,1502,1527,1502,2008,1000,1505,1000,1000,1002,1005,1000,1017,-0.0034,0.0379,0.0024,0.0029,-0.0143,0.9992,0.0596,-0.7254,-0.0564,0.7221,0.8627,0.2400,0.1321,0.8627,0.2400,0.1321,0.3000,0.0600,0.0002,0,-4.9181,-257.7372,-0.4808,-4.9181,-257.7372,-0.4808,-37.5925,-37.5529,0.0200,0.2700,0.0000,0.0000,0.0000,0.0000,0.0000,0.0000
-38.1992,-36.9496,13.3177,-0.0829,-0.0821,0.1200,1.6200,0.6400,0.0000,0.3906,0.3327,0.0015,996,1502,1527,1502,2008,1000,1505,1000,1000,1002,1005,1000,1017,0.0023,0.0439,0.0473,0.0049,-0.0152,1.0043,0.0594,-0.7247,-0.0564,0.7218,0.8627,0.2400,0.1321,0.8627,0.2400,0.1321,0.3000,0.0600,0.0002,0,-4.9181,-257.7372,-0.4808,-4.9181,-257.7372,-0.4808,-37.5581,-37.5310,0.0200,0.2700,0.0000,0.0000,0.0000,0.0000,0.0000,0.0000
-38.1650,-36.9277,13.2976,-0.1657,-0.1642,0.1800,1.6200,0.9600,0.0000,0.3908,0.3325,0.0014,996,1502,1527,1502,2008,1000,1505,1000,1000,1002,1005,1000,1017,0.0271,0.0257,0.0710,0.0010,-0.0138,1.0042,0.0597,-0.7247,-0.0568,0.7219,0.8627,0.2400,0.1321,0.8627,0.2400,0.1321,0.3000,0.0600,0.0002,0,-4.9181,-257.7372,-0.4808,-4.9181,-257.7372,-0.4808,-37.5240,-37.5092,0.0300,0.2700,0.0000,0.0000,0.0000,0.0000,0.0000,0.0000
-38.1307,-36.9055,13.2774,0.0000,-0.0821,0.1200,1.6200,0.6400,0.0000,0.3900,0.3323,0.0014,996,1502,1527,1502,2008,1000,1505,1000,1000,1002,1005,1000,1017,-0.0221,0.0178,0.0599,-0.0014,-0.0141,1.0045,0.0591,-0.7238,-0.0563,0.7210,0.8627,0.2400,0.1321,0.8627,0.2400,0.1321,0.3000,0.0600,0.0002,0,-4.9181,-257.7372,-0.4808,-4.9181,-257.7372,-0.4808,-37.4904,-37.4870,0.0200,0.2700,0.0000,0.0000,0.0000,0.0000,0.0000,0.0000
-38.0971,-36.8834,13.2573,-0.0829,-0.1642,0.1200,1.6200,0.6400,0.0000,0.3898,0.3322,0.0015,996,1502,1527,1502,2008,1000,1505,1000,1000,1002,1005,1000,1017,-0.0392,0.0091,0.0515,0.0025,-0.0132,1.0023,0.0591,-0.7234,-0.0561,0.7204,0.8627,0.2400,0.1321,0.8627,0.2400,0.1321,0.3000,0.0600,0.0002,0,-4.9181,-257.7372,-0.4808,-4.9181,-257.7372,-0.4808,-37.4564,-37.4648,0.0200,0.2700,0.0000,0.0000,0.0000,0.0000,0.0000,0.0000
-38.0631,-36.8613,13.2370,-0.0829,-0.0821,0.1200,1.6200,0.6400,0.0000,0.3894,0.3320,0.0014,996,1502,1527,1502,2008,1000,1505,1000,1000,1002,1005,1000,1017,0.0123,0.0167,0.0809,0.0039,-0.0124,0.9997,0.0588,-0.7227,-0.0561,0.7200,0.8627,0.2400,0.1321,0.8627,0.2400,0.1321,0.3000,0.0600,0.0002,0,-4.9181,-257.7372,-0.4808,-4.9181,-257.7372,-0.4808,-37.4228,-37.4425,0.0200,0.2700,0.0000,0.0000,0.0000,0.0000,0.0000,0.0000
-38.0293,-36.8392,13.2168,-0.0829,-0.1642,0.1200,1.6200,0.6400,0.0000,0.3892,0.3317,0.0015,996,1502,1527,1502,2008,1000,1505,1000,1000,1002,1005,1000,1017,-0.0649,0.0483,0.0325,0.0027,-0.0148,0.9997,0.0590,-0.7225,-0.0559,0.7194,0.8627,0.2400,0.1321,0.8627,0.2400,0.1321,0.3000,0.0600,0.0002,0,-4.9181,-257.7372,-0.4808,-4.9181,-257.7372,-0.4808,-37.3887,-37.4205,0.0200,0.2700,0.0000,0.0000,0.0000,0.0000,0.0000,0.0000
-37.9960,-36.8176,13.1966,0.0000,-0.0821,0.1200,1.6200,0.6400,0.0000,0.3889,0.3316,0.0016,996,1502,1527,1502,2008,1000,1505,1000,1000,1002,1005,1000,1017,-0.0396,-0.0317,0.0314,0.0072,-0.0131,0.9991,0.0588,-0.7221,-0.0557,0.7189,0.8627,0.2400,0.1321,0.8627,0.2400,0.1321,0.3000,0.0600,0.0002,0,-4.9181,-257.7372,-0.4808,-4.9181,-257.7372,-0.4808,-37.3546,-37.3983,0.0200,0.2700,0.0000,0.0000,0.0000,0.0000,0.0000,0.0000
-37.9620,-36.7964,13.1763,-0.0829,-0.0000,0.1800,1.6200,0.9600,0.0000,0.3890,0.3314,0.0018,996,1502,1527,1502,2008,1000,1505,1000,1000,1002,1005,1000,1017,0.0024,-0.0124,-0.0401,0.0019,-0.0120,1.0030,0.0594,-0.7223,-0.0558,0.7187,0.8627,0.2400,0.1321,0.8627,0.2400,0.1321,0.3000,0.0600,0.0002,0,-4.9181,-257.7372,-0.4808,-4.9181,-257.7372,-0.4808,-37.3199,-37.3768,0.0300,0.2700,0.0000,0.0000,0.0000,0.0000,0.0000,0.0000
-37.9272,-36.7751,13.1551,-0.0829,-0.0821,0.1200,1.6200,0.6400,0.0000,0.3882,0.3312,0.0020,996,1502,1527,1502,2008,1000,1505,1000,1000,1002,1005,1000,1017,-0.0093,0.0338,-0.1002,-0.0010,-0.0128,0.9990,0.0590,-0.7214,-0.0551,0.7175,0.8627,0.2400,0.1321,0.8627,0.2400,0.1321,0.3000,0.0600,0.0002,0,-4.9181,-257.7372,-0.4808,-4.9181,-257.7372,-0.4808,-37.2855,-37.3556,0.0200,0.2700,0.0000,0.0000,0.0000,0.0000,0.0000,0.0000
-37.8924,-36.7541,13.1339,-0.0829,-0.0821,0.1200,1.6200,0.6400,0.0000,0.3879,0.3311,0.0019,996,1502,1527,1502,2008,1000,1505,1000,1000,1002,1005,1000,1017,0.0112,-0.0138,-0.0699,0.0011,-0.0128,0.9997,0.0587,-0.7208,-0.0550,0.7171,0.8627,0.2400,0.1321,0.8627,0.2400,0.1321,0.3000,0.0600,0.0002,0,-4.9181,-257.7372,-0.4808,-4.9181,-257.7372,-0.4808,-37.2508,-37.3342,0.0200,0.2700,0.0000,0.0000,0.0000,0.0000,0.0000,0.0000
-37.8571,-36.7329,13.1119,-0.0829,-0.0000,0.1200,1.6200,0.6400,0.0000,0.3876,0.3308,0.0021,996,1502,1527,1502,2008,1000,1505,1000,1000,1002,1005,1000,1017,0.0283,0.0610,-0.1179,0.0018,-0.0139,1.0040,0.0589,-0.7204,-0.0547,0.7163,0.8627,0.2400,0.1321,0.8627,0.2400,0.1321,0.3000,0.0600,0.0002,0,-4.9181,-257.7372,-0.4808,-4.9181,-257.7372,-0.4808,-37.2164,-37.3126,0.0200,0.2700,0.0000,0.0000,0.0000,0.0000,0.0000,0.0000
-37.8212,-36.7116,13.0894,0.0000,-0.0821,0.1200,1.6200,0.6400,0.0000,0.3873,0.3306,0.0022,996,1502,1527,1502,2008,1000,1505,1000,1000,1002,1005,1000,1017,0.0471,0.0764,-0.1674,0.0046,-0.0146,1.0031,0.0589,-0.7200,-0.0545,0.7156,0.8627,0.2400,0.1321,0.8627,0.2400,0.1321,0.3000,0.0600,0.0002,0,-4.9181,-257.7372,-0.4808,-4.9181,-257.7372,-0.4808,-37.1818,-37.2918,0.0200,0.2700,0.0000,0.0000,0.0000,0.0000,0.0000,0.0000
-37.7859,-36.6903,13.0678,0.0000,-0.0821,0.1200,1.6200,0.6400,0.0000,0.3870,0.3305,0.0019,996,1502,1527,1502,2008,1000,1505,1000,1000,1002,1005,1000,1017,0.0364,0.0256,-0.0572,-0.0000,-0.0157,1.0023,0.0584,-0.7193,-0.0546,0.7156,0.8627,0.2400,0.1321,0.8627,0.2400,0.1321,0.3000,0.0600,0.0002,0,-4.9181,-257.7372,-0.4808,-4.9181,-257.7372,-0.4808,-37.1470,-37.2703,0.0200,0.2700,0.0000,0.0000,0.0000,0.0000,0.0000,0.0000
-37.7509,-36.6690,13.0460,0.0829,-0.0821,0.1800,1.6200,0.9600,0.0000,0.3872,0.3303,0.0019,996,1502,1527,1502,2008,1000,1505,1000,1000,1002,1005,1000,1017,0.0076,0.0371,-0.0846,0.0005,-0.0125,1.0018,0.0588,-0.7194,-0.0551,0.7156,0.8627,0.2400,0.1321,0.8627,0.2400,0.1321,0.3000,0.0600,0.0002,0,-4.9181,-257.7372,-0.4808,-4.9181,-257.7372,-0.4808,-37.1123,-37.2487,0.0300,0.2700,0.0000,0.0000,0.0000,0.0000,0.0000,0.0000
-37.7167,-36.6473,13.0252,-0.0829,-0.0000,0.1200,1.6200,0.6400,0.0000,0.3865,0.3301,0.0018,996,1502,1527,1502,2008,1000,1505,1000,1000,1002,1005,1000,1017,-0.0315,0.0279,-0.0265,0.0026,-0.0155,1.0033,0.0581,-0.7183,-0.0546,0.7148,0.8627,0.2400,0.1321,0.8627,0.2400,0.1321,0.3000,0.0600,0.0002,0,-4.9181,-257.7372,-0.4808,-4.9181,-257.7372,-0.4808,-37.0784,-37.2272,0.0200,0.2700,0.0000,0.0000,0.0000,0.0000,0.0000,0.0000
-37.6827,-36.6256,13.0046,0.0000,-0.0821,0.1200,1.6200,0.6400,0.0000,0.3862,0.3300,0.0015,996,1502,1527,1502,2008,1000,1505,1000,1000,1002,1005,1000,1018,-0.0398,-0.0248,0.0557,0.0015,-0.0138,1.0039,0.0577,-0.7176,-0.0547,0.7147,0.8627,0.2400,0.1321,0.8627,0.2400,0.1321,0.3000,0.0600,0.0002,0,-4.9329,-258.5058,-0.4823,-4.9329,-258.5058,-0.4823,-37.0439,-37.2051,0.0200,0.2700,0.0000,0.0000,0.0000,0.0000,0.0000,0.0000
-37.6493,-36.6036,12.9854,0.0000,-0.0821,0.1200,1.6200,0.6400,0.0000,0.3859,0.3298,0.0012,996,1502,1527,1502,2008,1000,1505,1000,1000,1002,1005,1000,1018,-0.0126,-0.0477,0.1448,0.0033,-0.0153,1.0013,0.0573,-0.7169,-0.0548,0.7144,0.8627,0.2400,0.1321,0.8627,0.2400,0.1321,0.3000,0.0600,0.0002,0,-4.9329,-258.5058,-0.4823,-4.9329,-258.5058,-0.4823,-37.0092,-37.1825,0.0200,0.2700,0.0000,0.0000,0.0000,0.0000,0.0000,0.0000
-37.6161,-36.5813,12.9664,0.0829,-0.0821,0.1200,1.6200,0.6400,0.0000,0.3856,0.3296,0.0014,996,1502,1527,1502,2008,1000,1505,1000,1000,1002,1005,1000,1017,-0.0251,-0.0046,0.1014,0.0016,-0.0143,1.0007,0.0574,-0.7165,-0.0546,0.7138,0.8627,0.2400,0.1321,0.8627,0.2400,0.1321,0.3000,0.0600,0.0002,0,-4.9181,-257.7372,-0.4808,-4.9181,-257.7372,-0.4808,-36.9754,-37.1600,0.0200,0.2700,0.0000,0.0000,0.0000,0.0000,0.0000,0.0000
-37.5832,-36.5590,12.9479,-0.0829,-0.0000,0.1200,1.6200,0.6400,0.0000,0.3853,0.3294,0.0014,996,1502,1527,1502,2008,1000,1505,1000,1000,1002,1005,1000,1017,-0.0146,-0.0293,0.0872,-0.0011,-0.0156,1.0051,0.0573,-0.7161,-0.0544,0.7132,0.8627,0.2400,0.1321,0.8627,0.2400,0.1321,0.3000,0.0600,0.0002,0,-4.9181,-257.7372,-0.4808,-4.9181,-257.7372,-0.4808,-36.9422,-37.1372,0.0200,0.2700,0.0000,0.0000,0.0000,0.0000,0.0000,0.0000
-37.5502,-36.5367,12.9289,0.0000,-0.0821,0.1800,1.6200,0.9600,0.0000,0.3856,0.3292,0.0013,996,1502,1527,1502,2008,1000,1505,1000,1000,1002,1005,1000,1018,-0.0451,-0.0202,0.1177,0.0030,-0.0153,0.9991,0.0577,-0.7161,-0.0550,0.7134,0.8627,0.2400,0.1321,0.8627,0.2400,0.1321,0.3000,0.0600,0.0002,0,-4.9329,-258.5058,-0.4823,-4.9329,-258.5058,-0.4823,-36.9085,-37.1148,0.0300,0.2700,0.0000,0.0000,0.0000,0.0000,0.0000,0.0000
-37.5170,-36.5139,12.9099,-0.0829,-0.0000,0.1200,1.6200,0.6400,0.0000,0.3847,0.3290,0.0014,996,1502,1527,1502,2008,1000,1505,1000,1000,1002,1005,1000,1017,0.0174,-0.0087,0.0880,0.0008,-0.0151,1.0020,0.0571,-0.7151,-0.0543,0.7122,0.8627,0.2400,0.1321,0.8627,0.2400,0.1321,0.3000,0.0600,0.0002,0,-4.9181,-257.7372,-0.4808,-4.9181,-257.7372,-0.4808,-36.8745,-37.0924,0.0200,0.2700,0.0000,0.0000,0.0000,0.0000,0.0000,0.0000
-37.4832,-36.4913,12.8903,0.0000,-0.0000,0.1200,1.6200,0.6400,0.0000,0.3845,0.3287,0.0016,996,1502,1527,1502,2008,1000,1505,1000,1000,1002,1005,1000,1017,-0.0434,0.0301,0.0513,0.0023,-0.0176,0.9983,0.0573,-0.7148,-0.0541,0.7116,0.8627,0.2400,0.1321,0.8627,0.2400,0.1321,0.3000,0.0600,0.0002,0,-4.9181,-257.7372,-0.4808,-4.9181,-257.7372,-0.4808,-36.8401,-37.0701,0.0200,0.2700,0.0000,0.0000,0.0000,0.0000,0.0000,0.0000
-37.4498,-36.4686,12.8704,-0.1657,-0.1642,0.1200,1.6200,0.6400,0.0000,0.3842,0.3286,0.0015,996,1502,1527,1502,2008,1000,1505,1000,1000,1002,1005,1000,1017,-0.0517,-0.0222,0.0849,0.0032,-0.0109,1.0025,0.0570,-0.7143,-0.0541,0.7113,0.8627,0.2400,0.1321,0.8627,0.2400,0.1321,0.3000,0.0600,0.0002,0,-4.9181,-257.7372,-0.4808,-4.9181,-257.7372,-0.4808,-36.8052,-37.0473,0.0200,0.2700,0.0000,0.0000,0.0000,0.0000,0.0000,0.0000
-37.4159,-36.4461,12.8506,0.0000,-0.0821,0.1200,1.6200,0.6400,0.0000,0.3838,0.3283,0.0014,996,1502,1527,1502,2008,1000,1505,1000,1000,1002,1005,1000,1017,0.0440,0.0422,0.0823,0.0003,-0.0120,1.0000,0.0569,-0.7135,-0.0540,0.7107,0.8627,0.2400,0.1321,0.8627,0.2400,0.1321,0.3000,0.0600,0.0002,0,-4.9181,-257.7372,-0.4808,-4.9181,-257.7372,-0.4808,-36.7717,-37.0247,0.0200,0.2700,0.0000,0.0000,0.0000,0.0000,0.0000,0.0000
-37.3818,-36.4235,12.8307,0.0000,-0.1642,0.1200,1.6200,0.6400,0.0000,0.3835,0.3282,0.0017,996,1502,1527,1502,2008,1000,1505,1000,1000,1002,1005,1000,1017,0.0396,0.0083,0.0216,0.0026,-0.0178,1.0004,0.0570,-0.7134,-0.0536,0.7100,0.8627,0.2400,0.1321,0.8627,0.2400,0.1321,0.3000,0.0600,0.0002,0,-4.9181,-257.7372,-0.4808,-4.9181,-257.7372,-0.4808,-36.7377,-37.0021,0.0200,0.2700,0.0000,0.0000,0.0000,0.0000,0.0000,0.0000
-37.3479,-36.4016,12.8107,0.0000,-0.0821,0.1800,1.6200,0.9600,0.0000,0.3837,0.3281,0.0017,996,1502,1527,1502,2008,1000,1505,1000,1000,1002,1005,1000,1017,0.0150,-0.0828,-0.0013,0.0013,-0.0118,1.0036,0.0573,-0.7136,-0.0539,0.7101,0.8627,0.2400,0.1321,0.8627,0.2400,0.1321,0.3000,0.0600,0.0002,0,-4.9181,-257.7372,-0.4808,-4.9181,-257.7372,-0.4808,-36.7038,-36.9793,0.0300,0.2700,0.0000,0.0000,0.0000,0.0000,0.0000,0.0000
-37.3137,-36.3803,12.7909,0.0000,-0.0821,0.1200,1.6200,0.6400,0.0000,0.3829,0.3279,0.0020,996,1502,1527,1502,2008,1000,1505,1000,1000,1002,1005,1000,1017,0.0221,-0.0166,-0.0835,0.0002,-0.0150,1.0021,0.0570,-0.7127,-0.0531,0.7088,0.8627,0.2400,0.1321,0.8627,0.2400,0.1321,0.3000,0.0600,0.0002,0,-4.9181,-257.7372,-0.4808,-4.9181,-257.7372,-0.4808,-36.6685,-36.9570,0.0200,0.2700,0.0000,0.0000,0.0000,0.0000,0.0000,0.0000
-37.2791,-36.3593,12.7703,0.0000,-0.0821,0.1200,1.6200,0.6400,0.0000,0.3826,0.3277,0.0020,996,1502,1527,1502,2008,1000,1505,1000,1000,1002,1005,1000,1017,0.0217,-0.0396,-0.0748,0.0015,-0.0124,0.9983,0.0569,-0.7123,-0.0529,0.7083,0.8627,0.2400,0.1321,0.8627,0.2400,0.1321,0.3000,0.0600,0.0002,0,-4.9181,-257.7372,-0.4808,-4.9181,-257.7372,-0.4808,-36.6340,-36.9351,0.0200,0.2700,0.0000,0.0000,0.0000,0.0000,0.0000,0.0000
-37.2443,-36.3376,12.7492,0.0000,-0.0000,0.1200,1.6200,0.6400,0.0000,0.3823,0.3274,0.0019,996,1502,1527,1502,2008,1000,1505,1000,1000,1002,1005,1000,1017,0.0108,0.0758,-0.0698,-0.0006,-0.0129,1.0046,0.0569,-0.7116,-0.0530,0.7078,0.8627,0.2400,0.1321,0.8627,0.2400,0.1321,0.3000,0.0600,0.0002,0,-4.9181,-257.7372,-0.4808,-4.9181,-257.7372,-0.4808,-36.5991,-36.9132,0.0200,0.2700,0.0000,0.0000,0.0000,0.0000,0.0000,0.0000
-37.2096,-36.3161,12.7285,-0.0829,-0.0821,0.1200,1.6200,0.6400,0.0000,0.3820,0.3273,0.0019,996,1502,1527,1502,2008,1000,1505,1000,1000,1002,1005,1000,1017,0.0264,-0.0004,-0.0521,0.0008,-0.0151,0.9992,0.0566,-0.7112,-0.0528,0.7074,0.8627,0.2400,0.1321,0.8627,0.2400,0.1321,0.3000,0.0600,0.0002,0,-4.9181,-257.7372,-0.4808,-4.9181,-257.7372,-0.4808,-36.5646,-36.8911,0.0200,0.2700,0.0000,0.0000,0.0000,0.0000,0.0000,0.0000
-37.1747,-36.2944,12.7076,0.0000,-0.0821,0.1200,1.6200,0.6400,0.0000,0.3817,0.3271,0.0020,996,1502,1527,1502,2008,1000,1505,1000,1000,1002,1005,1000,1017,0.0299,0.0082,-0.0627,0.0037,-0.0139,1.0010,0.0566,-0.7108,-0.0526,0.7068,0.8627,0.2400,0.1321,0.8627,0.2400,0.1321,0.3000,0.0600,0.0002,0,-4.9181,-257.7372,-0.4808,-4.9181,-257.7372,-0.4808,-36.5308,-36.8693,0.0200,0.2700,0.0000,0.0000,0.0000,0.0000,0.0000,0.0000
-37.1411,-36.2729,12.6874,0.0000,-0.0821,0.1800,1.6200,0.9600,0.0000,0.3820,0.3270,0.0018,996,1502,1527,1502,2008,1000,1505,1000,1000,1002,1005,1000,1017,-0.0255,-0.0408,-0.0259,0.0021,-0.0142,1.0047,0.0569,-0.7108,-0.0532,0.7071,0.8627,0.2400,0.1321,0.8627,0.2400,0.1321,0.3000,0.0600,0.0002,0,-4.9181,-257.7372,-0.4808,-4.9181,-257.7372,-0.4808,-36.4966,-36.8472,0.0300,0.2700,0.0000,0.0000,0.0000,0.0000,0.0000,0.0000
-37.1070,-36.2514,12.6674,-0.0829,-0.0000,0.1200,1.6200,0.6400,0.0000,0.3812,0.3267,0.0017,996,1502,1527,1502,2008,1000,1505,1000,1000,1002,1005,1000,1018,-0.0053,-0.0251,0.0117,0.0038,-0.0117,0.9998,0.0562,-0.7097,-0.0527,0.7062,0.8627,0.2400,0.1321,0.8627,0.2400,0.1321,0.3000,0.0600,0.0002,0,-4.9329,-258.5058,-0.4823,-4.9329,-258.5058,-0.4823,-36.4619,-36.8254,0.0200,0.2700,0.0000,0.0000,0.0000,0.0000,0.0000,0.0000
-37.0728,-36.2295,12.6473,0.0000,-0.0821,0.1200,1.6200,0.6400,0.0000,0.3808,0.3265,0.0017,996,1502,1527,1502,2008,1000,1505,1000,1000,1002,1005,1000,1018,0.0242,-0.0125,0.0121,0.0004,-0.0149,1.0015,0.0560,-0.7091,-0.0526,0.7057,0.8627,0.2400,0.1321,0.8627,0.2400,0.1321,0.3000,0.0600,0.0002,0,-4.9329,-258.5058,-0.4823,-4.9329,-258.5058,-0.4823,-36.4267,-36.8037,0.0200,0.2700,0.0000,0.0000,0.0000,0.0000,0.0000,0.0000
-37.0383,-36.2075,12.6267,-0.0829,-0.0821,0.1200,1.6200,0.6400,0.0000,0.3805,0.3264,0.0020,996,1502,1527,1502,2008,1000,1505,1000,1000,1002,1005,1000,1017,0.0793,-0.0429,-0.0805,0.0004,-0.0128,1.0003,0.0561,-0.7089,-0.0520,0.7048,0.8627,0.2400,0.1321,0.8627,0.2400,0.1321,0.3000,0.0600,0.0002,0,-4.9181,-257.7372,-0.4808,-4.9181,-257.7372,-0.4808,-36.3925,-36.7817,0.0200,0.2700,0.0000,0.0000,0.0000,0.0000,0.0000,0.0000
-37.0035,-36.1861,12.6061,-0.0829,-0.0821,0.1200,1.6200,0.6400,0.0000,0.3802,0.3262,0.0020,996,1502,1527,1502,2008,1000,1505,1000,1000,1002,1005,1000,1017,0.0740,-0.0007,-0.0593,0.0012,-0.0136,1.0011,0.0560,-0.7083,-0.0520,0.7043,0.8627,0.2400,0.1321,0.8627,0.2400,0.1321,0.3000,0.0600,0.0002,0,-4.9181,-257.7372,-0.4808,-4.9181,-257.7372,-0.4808,-36.3578,-36.7596,0.0200,0.2700,0.0000,0.0000,0.0000,0.0000,0.0000,0.0000
-36.9698,-36.1646,12.5863,-0.0829,-0.0000,0.1200,1.6200,0.6400,0.0000,0.3801,0.3261,0.0017,996,1502,1527,1502,2008,1000,1505,1000,1000,1002,1005,1000,1017,-0.0670,-0.1056,0.0130,0.0009,-0.0151,1.0028,0.0556,-0.7079,-0.0523,0.7045,0.8627,0.2400,0.1321,0.8627,0.2400,0.1321,0.3000,0.0600,0.0002,0,-4.9181,-257.7372,-0.4808,-4.9181,-257.7372,-0.4808,-36.3233,-36.7376,0.0200,0.2700,0.0000,0.0000,0.0000,0.0000,0.0000,0.0000
-36.9365,-36.1426,12.5669,0.0000,-0.0821,0.1800,1.6200,0.9600,0.0000,0.3803,0.3258,0.0015,996,1502,1527,1502,2008,1000,1505,1000,1000,1002,1005,1000,1018,-0.0371,-0.0156,0.0706,0.0017,-0.0113,1.0016,0.0560,-0.7076,-0.0529,0.7045,0.8627,0.2400,0.1321,0.8627,0.2400,0.1321,0.3000,0.0600,0.0002,0,-4.9329,-258.5058,-0.4823,-4.9329,-258.5058,-0.4823,-36.2891,-36.7152,0.0300,0.2700,0.0000,0.0000,0.0000,0.0000,0.0000,0.0000
-36.9034,-36.1197,12.5480,0.0000,-0.0821,0.1200,1.6200,0.6400,0.0000,0.3795,0.3256,0.0016,996,1502,1527,1502,2008,1000,1505,1000,1000,1002,1005,1000,1018,-0.0431,0.0150,0.0875,0.0033,-0.0131,1.0035,0.0555,-0.7066,-0.0523,0.7035,0.8627,0.2400,0.1321,0.8627,0.2400,0.1321,0.3000,0.0600,0.0002,0,-4.9329,-258.5058,-0.4823,-4.9329,-258.5058,-0.4823,-36.2558,-36.6925,0.0200,0.2700,0.0000,0.0000,0.0000,0.0000,0.0000,0.0000
-36.8700,-36.0970,12.5285,-0.0829,-0.0821,0.1200,1.6200,0.6400,0.0000,0.3791,0.3254,0.0017,996,1502,1527,1502,2008,1000,1505,1000,1000,1002,1005,1000,1018,0.0091,0.0252,0.0409,0.0006,-0.0136,1.0066,0.0554,-0.7061,-0.0521,0.7028,0.8627,0.2400,0.1321,0.8627,0.2400,0.1321,0.3000,0.0600,0.0002,0,-4.9329,-258.5058,-0.4823,-4.9329,-258.5058,-0.4823,-36.2217,-36.6700,0.0200,0.2700,0.0000,0.0000,0.0000,0.0000,0.0000,0.0000
-36.8365,-36.0749,12.5089,-0.0829,-0.0821,0.1200,1.6200,0.6400,0.0000,0.3789,0.3253,0.0019,996,1502,1527,1502,2008,1000,1505,1000,1000,1002,1005,1000,1018,-0.0218,-0.0623,-0.0318,-0.0003,-0.0118,0.9976,0.0555,-0.7061,-0.0516,0.7022,0.8627,0.2400,0.1321,0.8627,0.2400,0.1321,0.3000,0.0600,0.0002,0,-4.9329,-258.5058,-0.4823,-4.9329,-258.5058,-0.4823,-36.1878,-36.6475,0.0200,0.2700,0.0000,0.0000,0.0000,0.0000,0.0000,0.0000
-36.8023,-36.0530,12.4886,-0.0829,-0.0821,0.1200,1.6200,0.6400,0.0000,0.3785,0.3251,0.0021,996,1502,1527,1502,2008,1000,1505,1000,1000,1002,1005,1000,1018,0.0324,-0.0382,-0.0886,0.0043,-0.0143,1.0020,0.0555,-0.7057,-0.0513,0.7014,0.8627,0.2400,0.1321,0.8627,0.2400,0.1321,0.3000,0.0600,0.0002,0,-4.9329,-258.5058,-0.4823,-4.9329,-258.5058,-0.4823,-36.1537,-36.6253,0.0200,0.2700,0.0000,0.0000,0.0000,0.0000,0.0000,0.0000
-36.7678,-36.0314,12.4676,0.0000,-0.0821,0.1200,1.6200,0.6400,0.0000,0.3783,0.3248,0.0020,996,1502,1527,1502,2008,1000,1505,1000,1000,1002,1005,1000,1018,-0.0425,-0.0147,-0.0640,-0.0004,-0.0129,1.0057,0.0555,-0.7051,-0.0514,0.7011,0.8627,0.2400,0.1321,0.8627,0.2400,0.1321,0.3000,0.0600,0.0002,0,-4.9329,-258.5058,-0.4823,-4.9329,-258.5058,-0.4823,-36.1188,-36.6025,0.0200,0.2700,0.0000,0.0000,0.0000,0.0000,0.0000,0.0000
-36.7336,-36.0100,12.4467,-0.1657,-0.0821,0.1800,1.6200,0.9600,0.0000,0.3785,0.3247,0.0021,996,1502,1527,1502,2008,1000,1505,1000,1000,1002,1005,1000,1017,-0.0103,-0.0324,-0.0978,0.0027,-0.0123,1.0041,0.0559,-0.7053,-0.0517,0.7010,0.8627,0.2400,0.1321,0.8627,0.2400,0.1321,0.3000,0.0600,0.0002,0,-4.9181,-257.7372,-0.4808,-4.9181,-257.7372,-0.4808,-36.0838,-36.5803,0.0300,0.2700,0.0000,0.0000,0.0000,0.0000,0.0000,0.0000
-36.6995,-35.9884,12.4269,-0.0829,-0.0821,0.1200,1.6200,0.6400,0.0000,0.3775,0.3245,0.0019,996,1502,1527,1502,2008,1000,1505,1000,1000,1002,1005,1000,1018,0.0788,-0.0430,0.0029,0.0021,-0.0145,1.0023,0.0549,-0.7039,-0.0512,0.7002,0.8627,0.2400,0.1321,0.8627,0.2400,0.1321,0.3000,0.0600,0.0002,0,-4.9329,-258.5058,-0.4823,-4.9329,-258.5058,-0.4823,-36.0499,-36.5583,0.0200,0.2700,0.0000,0.0000,0.0000,0.0000,0.0000,0.0000
-36.6653,-35.9662,12.4071,-0.1657,-0.1642,0.1200,1.6200,0.6400,0.0000,0.3774,0.3243,0.0017,996,1502,1527,1502,2008,1000,1505,1000,1000,1002,1005,1000,1018,-0.0165,-0.0426,0.0273,-0.0016,-0.0168,1.0015,0.0548,-0.7034,-0.0513,0.7000,0.8627,0.2400,0.1321,0.8627,0.2400,0.1321,0.3000,0.0600,0.0002,0,-4.9329,-258.5058,-0.4823,-4.9329,-258.5058,-0.4823,-36.0156,-36.5353,0.0200,0.2700,0.0000,0.0000,0.0000,0.0000,0.0000,0.0000
-36.6313,-35.9435,12.3871,-0.0829,-0.0000,0.1200,1.6200,0.6400,0.0000,0.3771,0.3239,0.0017,996,1502,1527,1502,2008,1000,1505,1000,1000,1002,1005,1000,1017,-0.0158,0.0944,0.0430,0.0022,-0.0133,1.0047,0.0549,-0.7027,-0.0514,0.6993,0.8627,0.2400,0.1321,0.8627,0.2400,0.1321,0.3000,0.0600,0.0002,0,-4.9181,-257.7372,-0.4808,-4.9181,-257.7372,-0.4808,-35.9819,-36.5136,0.0200,0.2700,0.0000,0.0000,0.0000,0.0000,0.0000,0.0000
-36.5979,-35.9204,12.3672,-0.1657,-0.1642,0.1200,1.6200,0.6400,0.0000,0.3769,0.3238,0.0016,996,1502,1527,1502,2008,1000,1505,1000,1000,1002,1005,1000,1017,-0.0854,0.0542,0.0510,0.0015,-0.0155,1.0012,0.0547,-0.7023,-0.0515,0.6990,0.8627,0.2400,0.1321,0.8627,0.2400,0.1321,0.3000,0.0600,0.0002,0,-4.9181,-257.7372,-0.4808,-4.9181,-257.7372,-0.4808,-35.9477,-36.4914,0.0200,0.2700,0.0000,0.0000,0.0000,0.0000,0.0000,0.0000
-36.5650,-35.8978,12.3474,-0.0829,-0.0821,0.1200,1.6200,0.6400,0.0000,0.3767,0.3237,0.0017,996,1502,1527,1502,2008,1000,1505,1000,1000,1002,1005,1000,1017,-0.1315,0.0011,0.0356,-0.0012,-0.0131,1.0037,0.0547,-0.7020,-0.0513,0.6986,0.8627,0.2400,0.1321,0.8627,0.2400,0.1321,0.3000,0.0600,0.0002,0,-4.9181,-257.7372,-0.4808,-4.9181,-257.7372,-0.4808,-35.9135,-36.4682,0.0200,0.2700,0.0000,0.0000,0.0000,0.0000,0.0000,0.0000
-36.5317,-35.8751,12.3274,-0.0829,-0.0821,0.1800,1.6200,0.9600,0.0000,0.3768,0.3234,0.0018,996,1502,1527,1502,2008,1000,1505,1000,1000,1002,1005,1000,1017,-0.0723,0.0233,-0.0007,0.0044,-0.0140,1.0056,0.0552,-0.7021,-0.0515,0.6984,0.8627,0.2400,0.1321,0.8627,0.2400,0.1321,0.3000,0.0600,0.0002,0,-4.9181,-257.7372,-0.4808,-4.9181,-257.7372,-0.4808,-35.8799,-36.4455,0.0300,0.2700,0.0000,0.0000,0.0000,0.0000,0.0000,0.0000
-36.4979,-35.8526,12.3077,0.0000,-0.0821,0.1200,1.6200,0.6400,0.0000,0.3759,0.3233,0.0016,996,1502,1527,1502,2008,1000,1505,1000,1000,1002,1005,1000,1017,-0.0070,0.0027,0.0908,0.0012,-0.0118,0.9988,0.0542,-0.7008,-0.0511,0.6976,0.8627,0.2400,0.1321,0.8627,0.2400,0.1321,0.3000,0.0600,0.0002,0,-4.9181,-257.7372,-0.4808,-4.9181,-257.7372,-0.4808,-35.8461,-36.4231,0.0200,0.2700,0.0000,0.0000,0.0000,0.0000,0.0000,0.0000
-36.4643,-35.8297,12.2880,0.0000,-0.0821,0.1200,1.6200,0.6400,0.0000,0.3757,0.3230,0.0018,996,1502,1527,1502,2008,1000,1505,1000,1000,1002,1005,1000,1018,-0.0526,0.0599,0.0108,0.0025,-0.0131,0.9994,0.0545,-0.7005,-0.0509,0.6969,0.8627,0.2400,0.1321,0.8627,0.2400,0.1321,0.3000,0.0600,0.0002,0,-4.9329,-258.5058,-0.4823,-4.9329,-258.5058,-0.4823,-35.8115,-36.4007,0.0200,0.2700,0.0000,0.0000,0.0000,0.0000,0.0000,0.0000
-36.4305,-35.8065,12.2680,-0.0829,-0.0821,0.1200,1.6200,0.6400,0.0000,0.3753,0.3228,0.0016,996,1502,1527,1502,2008,1000,1505,1000,1000,1002,1005,1000,1018,-0.0120,0.0524,0.0949,0.0017,-0.0120,0.9991,0.0541,-0.6997,-0.0510,0.6966,0.8627,0.2400,0.1321,0.8627,0.2400,0.1321,0.3000,0.0600,0.0002,0,-4.9329,-258.5058,-0.4823,-4.9329,-258.5058,-0.4823,-35.7772,-36.3778,0.0200,0.2700,0.0000,0.0000,0.0000,0.0000,0.0000,0.0000
-36.3972,-35.7838,12.2486,-0.0829,-0.0821,0.1200,1.6200,0.6400,0.0000,0.3751,0.3227,0.0016,996,1502,1527,1502,2008,1000,1505,1000,1000,1002,1005,1000,1017,-0.0467,0.0019,0.0529,0.0002,-0.0127,1.0038,0.0541,-0.6994,-0.0508,0.6961,0.8627,0.2400,0.1321,0.8627,0.2400,0.1321,0.3000,0.0600,0.0002,0,-4.9181,-257.7372,-0.4808,-4.9181,-257.7372,-0.4808,-35.7435,-36.3552,0.0200,0.2700,0.0000,0.0000,0.0000,0.0000,0.0000,0.0000
-36.3636,-35.7612,12.2294,0.0000,-0.0821,0.1200,1.6200,0.6400,0.0000,0.3747,0.3225,0.0019,996,1502,1527,1502,2008,1000,1505,1000,1000,1002,1005,1000,1017,0.0247,-0.0333,-0.0113,0.0045,-0.0145,1.0028,0.0541,-0.6991,-0.0503,0.6953,0.8627,0.2400,0.1321,0.8627,0.2400,0.1321,0.3000,0.0600,0.0002,0,-4.9181,-257.7372,-0.4808,-4.9181,-257.7372,-0.4808,-35.7088,-36.3324,0.0200,0.2700,0.0000,0.0000,0.0000,0.0000,0.0000,0.0000
-36.3297,-35.7389,12.2098,-0.0829,-0.0000,0.1800,1.6200,0.9600,0.0000,0.3749,0.3223,0.0018,996,1502,1527,1502,2008,1000,1505,1000,1000,1002,1005,1000,1017,0.0490,-0.0089,0.0365,0.0015,-0.0141,1.0064,0.0544,-0.6990,-0.0508,0.6955,0.8627,0.2400,0.1321,0.8627,0.2400,0.1321,0.3000,0.0600,0.0002,0,-4.9181,-257.7372,-0.4808,-4.9181,-257.7372,-0.4808,-35.6742,-36.3094,0.0300,0.2700,0.0000,0.0000,0.0000,0.0000,0.0000,0.0000
-36.2961,-35.7163,12.1905,0.0829,-0.0821,0.1200,1.6200,0.6400,0.0000,0.3743,0.3221,0.0018,996,1502,1527,1502,2008,1000,1505,1000,1000,1002,1005,1000,1017,-0.0682,-0.0078,0.0389,0.0052,-0.0119,1.0007,0.0539,-0.6981,-0.0504,0.6946,0.8627,0.2400,0.1321,0.8627,0.2400,0.1321,0.3000,0.0600,0.0002,0,-4.9181,-257.7372,-0.4808,-4.9181,-257.7372,-0.4808,-35.6406,-36.2870,0.0200,0.2700,0.0000,0.0000,0.0000,0.0000,0.0000,0.0000
-36.2628,-35.6932,12.1710,0.0829,-0.0821,0.1200,1.6200,0.6400,0.0000,0.3739,0.3219,0.0018,996,1502,1527,1502,2008,1000,1505,1000,1000,1002,1005,1000,1017,0.0005,0.0316,0.0361,0.0039,-0.0125,0.9987,0.0538,-0.6975,-0.0502,0.6939,0.8627,0.2400,0.1321,0.8627,0.2400,0.1321,0.3000,0.0600,0.0002,0,-4.9181,-257.7372,-0.4808,-4.9181,-257.7372,-0.4808,-35.6067,-36.2643,0.0200,0.2700,0.0000,0.0000,0.0000,0.0000,0.0000,0.0000
-36.2286,-35.6711,12.1509,0.0000,-0.0821,0.1200,1.6200,0.6400,0.0000,0.3736,0.3218,0.0022,996,1502,1527,1502,2008,1000,1505,1000,1000,1002,1005,1000,1018,0.0143,-0.0696,-0.0993,-0.0016,-0.0143,1.0023,0.0539,-0.6975,-0.0496,0.6932,0.8627,0.2400,0.1321,0.8627,0.2400,0.1321,0.3000,0.0600,0.0002,0,-4.9329,-258.5058,-0.4823,-4.9329,-258.5058,-0.4823,-35.5724,-36.2415,0.0200,0.2700,0.0000,0.0000,0.0000,0.0000,0.0000,0.0000
-36.1949,-35.6490,12.1312,0.0000,-0.0821,0.1200,1.6200,0.6400,0.0000,0.3733,0.3215,0.0021,996,1502,1527,1502,2008,1000,1505,1000,1000,1002,1005,1000,1018,-0.0185,-0.0016,-0.0592,0.0013,-0.0102,1.0015,0.0539,-0.6969,-0.0497,0.6928,0.8627,0.2400,0.1321,0.8627,0.2400,0.1321,0.3000,0.0600,0.0002,0,-4.9329,-258.5058,-0.4823,-4.9329,-258.5058,-0.4823,-35.5381,-36.2191,0.0200,0.2700,0.0000,0.0000,0.0000,0.0000,0.0000,0.0000
-36.1604,-35.6269,12.1105,0.0000,-0.0821,0.1200,1.6200,0.6400,0.0000,0.3729,0.3213,0.0021,996,1502,1527,1502,2008,1000,1505,1000,1000,1002,1005,1000,1017,0.0507,-0.0061,-0.0760,0.0006,-0.0114,1.0040,0.0537,-0.6963,-0.0495,0.6922,0.8627,0.2400,0.1321,0.8627,0.2400,0.1321,0.3000,0.0600,0.0002,0,-4.9181,-257.7372,-0.4808,-4.9181,-257.7372,-0.4808,-35.5035,-36.1971,0.0200,0.2700,0.0000,0.0000,0.0000,0.0000,0.0000,0.0000
-36.1259,-35.6050,12.0899,-0.0829,-0.0821,0.1800,1.6200,0.9600,0.0000,0.3732,0.3212,0.0022,996,1502,1527,1502,2008,1000,1505,1000,1000,1002,1005,1000,1017,0.0448,-0.0590,-0.0943,0.0008,-0.0126,1.0038,0.0541,-0.6965,-0.0498,0.6922,0.8627,0.2400,0.1321,0.8627,0.2400,0.1321,0.3000,0.0600,0.0002,0,-4.9181,-257.7372,-0.4808,-4.9181,-257.7372,-0.4808,-35.4690,-36.1747,0.0300,0.2700,0.0000,0.0000,0.0000,0.0000,0.0000,0.0000
-36.0914,-35.5830,12.0702,-0.0829,-0.1642,0.1200,1.6200,0.6400,0.0000,0.3724,0.3210,0.0019,996,1502,1527,1502,2008,1000,1505,1000,1000,1002,1005,1000,1017,0.0158,-0.0230,-0.0092,0.0044,-0.0147,0.9991,0.0533,-0.6953,-0.0495,0.6914,0.8627,0.2400,0.1321,0.8627,0.2400,0.1321,0.3000,0.0600,0.0002,0,-4.9181,-257.7372,-0.4808,-4.9181,-257.7372,-0.4808,-35.4337,-36.1522,0.0200,0.2700,0.0000,0.0000,0.0000,0.0000,0.0000,0.0000
-36.0572,-35.5603,12.0498,0.0000,-0.0000,0.1200,1.6200,0.6400,0.0000,0.3721,0.3207,0.0018,996,1502,1527,1502,2008,1000,1505,1000,1000,1002,1005,1000,1018,0.0169,0.0777,0.0146,0.0027,-0.0165,1.0024,0.0532,-0.6945,-0.0496,0.6909,0.8627,0.2400,0.1321,0.8627,0.2400,0.1321,0.3000,0.0600,0.0002,0,-4.9329,-258.5058,-0.4823,-4.9329,-258.5058,-0.4823,-35.3988,-36.1296,0.0200,0.2700,0.0000,0.0000,0.0000,0.0000,0.0000,0.0000
-36.0236,-35.5371,12.0302,-0.1657,-0.0821,0.1200,1.6200,0.6400,0.0000,0.3718,0.3205,0.0018,996,1502,1527,1502,2008,1000,1505,1000,1000,1002,1005,1000,1018,0.0245,0.0338,0.0337,-0.0005,-0.0161,1.0042,0.0531,-0.6941,-0.0495,0.6905,0.8627,0.2400,0.1321,0.8627,0.2400,0.1321,0.3000,0.0600,0.0002,0,-4.9329,-258.5058,-0.4823,-4.9329,-258.5058,-0.4823,-35.3639,-36.1072,0.0200,0.2700,0.0000,0.0000,0.0000,0.0000,0.0000,0.0000
-35.9896,-35.5146,12.0108,-0.0829,-0.0821,0.1200,1.6200,0.6400,0.0000,0.3714,0.3204,0.0016,996,1502,1527,1502,2008,1000,1505,1000,1000,1002,1005,1000,1018,0.0538,-0.0516,0.0831,0.0017,-0.0139,1.0013,0.0526,-0.6935,-0.0494,0.6902,0.8627,0.2400,0.1321,0.8627,0.2400,0.1321,0.3000,0.0600,0.0002,0,-4.9329,-258.5058,-0.4823,-4.9329,-258.5058,-0.4823,-35.3292,-36.0843,0.0200,0.2700,0.0000,0.0000,0.0000,0.0000,0.0000,0.0000
-35.9560,-35.4918,11.9918,0.0000,-0.0821,0.1200,1.6200,0.6400,0.0000,0.3713,0.3202,0.0017,996,1502,1527,1502,2008,1000,1505,1000,1000,1002,1005,1000,1018,-0.0361,-0.0078,0.0643,0.0012,-0.0142,0.9990,0.0528,-0.6932,-0.0494,0.6897,0.8627,0.2400,0.1321,0.8627,0.2400,0.1321,0.3000,0.0600,0.0002,0,-4.9329,-258.5058,-0.4823,-4.9329,-258.5058,-0.4823,-35.2953,-36.0608,0.0200,0.2700,0.0000,0.0000,0.0000,0.0000,0.0000,0.0000
-35.9228,-35.4688,11.9731,0.0000,-0.0821,0.1800,1.6200,0.9600,0.0000,0.3715,0.3200,0.0017,996,1502,1527,1502,2008,1000,1505,1000,1000,1002,1005,1000,1018,-0.0078,-0.0248,0.0943,0.0039,-0.0159,1.0038,0.0531,-0.6931,-0.0498,0.6898,0.8627,0.2400,0.1321,0.8627,0.2400,0.1321,0.3000,0.0600,0.0002,0,-4.9329,-258.5058,-0.4823,-4.9329,-258.5058,-0.4823,-35.2615,-36.0373,0.0300,0.2700,0.0000,0.0000,0.0000,0.0000,0.0000,0.0000
-35.8895,-35.4458,11.9543,0.0000,-0.0000,0.1200,1.6200,0.6400,0.0000,0.3707,0.3198,0.0016,996,1502,1527,1502,2008,1000,1505,1000,1000,1002,1005,1000,1017,-0.0510,0.0123,0.1013,0.0049,-0.0123,1.0013,0.0526,-0.6921,-0.0494,0.6889,0.8627,0.2400,0.1321,0.8627,0.2400,0.1321,0.3000,0.0600,0.0002,0,-4.9181,-257.7372,-0.4808,-4.9181,-257.7372,-0.4808,-35.2275,-36.0141,0.0200,0.2700,0.0000,0.0000,0.0000,0.0000,0.0000,0.0000
-35.8568,-35.4230,11.9364,0.0829,-0.0821,0.1200,1.6200,0.6400,0.0000,0.3704,0.3197,0.0014,996,1502,1527,1502,2008,1000,1505,1000,1000,1002,1005,1000,1017,-0.0134,-0.0831,0.1711,0.0010,-0.0128,0.9983,0.0521,-0.6915,-0.0493,0.6887,0.8627,0.2400,0.1321,0.8627,0.2400,0.1321,0.3000,0.0600,0.0002,0,-4.9181,-257.7372,-0.4808,-4.9181,-257.7372,-0.4808,-35.1935,-35.9905,0.0200,0.2700,0.0000,0.0000,0.0000,0.0000,0.0000,0.0000
-35.8238,-35.3997,11.9184,0.0000,-0.0821,0.1200,1.6200,0.6400,0.0000,0.3701,0.3194,0.0017,996,1502,1527,1502,2008,1000,1505,1000,1000,1002,1005,1000,1017,0.0221,-0.0160,0.0980,0.0028,-0.0122,0.9984,0.0524,-0.6911,-0.0490,0.6878,0.8627,0.2400,0.1321,0.8627,0.2400,0.1321,0.3000,0.0600,0.0002,0,-4.9181,-257.7372,-0.4808,-4.9181,-257.7372,-0.4808,-35.1595,-35.9668,0.0200,0.2700,0.0000,0.0000,0.0000,0.0000,0.0000,0.0000
-35.7905,-35.3766,11.8999,-0.0829,-0.0821,0.1200,1.6200,0.6400,0.0000,0.3697,0.3192,0.0016,996,1502,1527,1502,2008,1000,1505,1000,1000,1002,1005,1000,1017,0.0649,-0.0186,0.1009,0.0044,-0.0152,1.0017,0.0522,-0.6905,-0.0489,0.6873,0.8627,0.2400,0.1321,0.8627,0.2400,0.1321,0.3000,0.0600,0.0002,0,-4.9181,-257.7372,-0.4808,-4.9181,-257.7372,-0.4808,-35.1264,-35.9431,0.0200,0.2700,0.0000,0.0000,0.0000,0.0000,0.0000,0.0000
-35.7570,-35.3536,11.8815,0.0000,-0.0821,0.1200,1.6200,0.6400,0.0000,0.3695,0.3190,0.0016,996,1502,1527,1502,2008,1000,1505,1000,1000,1002,1005,1000,1018,0.0083,0.0018,0.1008,0.0011,-0.0144,1.0005,0.0522,-0.6901,-0.0489,0.6868,0.8627,0.2400,0.1321,0.8627,0.2400,0.1321,0.3000,0.0600,0.0002,0,-4.9329,-258.5058,-0.4823,-4.9329,-258.5058,-0.4823,-35.0929,-35.9196,0.0200,0.2700,0.0000,0.0000,0.0000,0.0000,0.0000,0.0000
-35.7241,-35.3304,11.8629,0.0000,-0.0821,0.1800,1.6200,0.9600,0.0000,0.3698,0.3188,0.0017,996,1502,1527,1502,2008,1000,1505,1000,1000,1002,1005,1000,1017,-0.0144,-0.0409,0.0979,0.0002,-0.0145,0.9999,0.0526,-0.6902,-0.0493,0.6869,0.8627,0.2400,0.1321,0.8627,0.2400,0.1321,0.3000,0.0600,0.0002,0,-4.9181,-257.7372,-0.4808,-4.9181,-257.7372,-0.4808,-35.0588,-35.8960,0.0300,0.2700,0.0000,0.0000,0.0000,0.0000,0.0000,0.0000
-35.6911,-35.3076,11.8442,0.0000,-0.0000,0.1200,1.6200,0.6400,0.0000,0.3690,0.3187,0.0019,996,1502,1527,1502,2008,1000,1505,1000,1000,1002,1005,1000,1017,-0.0168,-0.0656,0.0179,0.0014,-0.0135,1.0030,0.0522,-0.6895,-0.0484,0.6858,0.8627,0.2400,0.1321,0.8627,0.2400,0.1321,0.3000,0.0600,0.0002,0,-4.9181,-257.7372,-0.4808,-4.9181,-257.7372,-0.4808,-35.0252,-35.8731,0.0200,0.2700,0.0000,0.0000,0.0000,0.0000,0.0000,0.0000
-35.6577,-35.2850,11.8245,0.0000,-0.0000,0.1200,1.6200,0.6400,0.0000,0.3688,0.3184,0.0019,996,1502,1527,1502,2008,1000,1505,1000,1000,1002,1005,1000,1018,-0.0794,0.0178,0.0142,0.0035,-0.0137,1.0012,0.0523,-0.6890,-0.0485,0.6852,0.8627,0.2400,0.1321,0.8627,0.2400,0.1321,0.3000,0.0600,0.0002,0,-4.9329,-258.5058,-0.4823,-4.9329,-258.5058,-0.4823,-34.9913,-35.8504,0.0200,0.2700,0.0000,0.0000,0.0000,0.0000,0.0000,0.0000
-35.6235,-35.2623,11.8044,0.0000,-0.1642,0.1200,1.6200,0.6400,0.0000,0.3683,0.3181,0.0021,996,1502,1527,1502,2008,1000,1505,1000,1000,1002,1005,1000,1018,0.0084,0.0284,-0.0569,0.0047,-0.0126,1.0007,0.0523,-0.6886,-0.0481,0.6844,0.8627,0.2400,0.1321,0.8627,0.2400,0.1321,0.3000,0.0600,0.0002,0,-4.9329,-258.5058,-0.4823,-4.9329,-258.5058,-0.4823,-34.9568,-35.8279,0.0200,0.2700,0.0000,0.0000,0.0000,0.0000,0.0000,0.0000
-35.5893,-35.2401,11.7839,-0.0829,-0.0821,0.1200,1.6200,0.6400,0.0000,0.3681,0.3181,0.0021,996,1502,1527,1502,2008,1000,1505,1000,1000,1002,1005,1000,1017,-0.0460,-0.0453,-0.0729,0.0009,-0.0162,0.9944,0.0522,-0.6883,-0.0479,0.6840,0.8627,0.2400,0.1321,0.8627,0.2400,0.1321,0.3000,0.0600,0.0002,0,-4.9181,-257.7372,-0.4808,-4.9181,-257.7372,-0.4808,-34.9225,-35.8052,0.0200,0.2700,0.0000,0.0000,0.0000,0.0000,0.0000,0.0000
-35.5549,-35.2182,11.7630,-0.0829,-0.0821,0.1200,1.6200,0.6400,0.0000,0.3678,0.3178,0.0025,996,1502,1527,1502,2008,1000,1505,1000,1000,1002,1005,1000,1017,-0.0239,-0.0271,-0.1857,0.0038,-0.0131,0.9964,0.0525,-0.6881,-0.0475,0.6831,0.8627,0.2400,0.1321,0.8627,0.2400,0.1321,0.3000,0.0600,0.0002,0,-4.9181,-257.7372,-0.4808,-4.9181,-257.7372,-0.4808,-34.8875,-35.7827,0.0200,0.2700,0.0000,0.0000,0.0000,0.0000,0.0000,0.0000
-35.5200,-35.1967,11.7422,-0.0829,-0.0821,0.1800,1.6200,0.9600,0.0000,0.3680,0.3177,0.0027,996,1502,1527,1502,2008,1000,1505,1000,1000,1002,1005,1000,1017,0.0154,-0.0607,-0.2284,0.0006,-0.0146,1.0039,0.0529,-0.6883,-0.0476,0.6830,0.8627,0.2400,0.1321,0.8627,0.2400,0.1321,0.3000,0.0600,0.0002,0,-4.9181,-257.7372,-0.4808,-4.9181,-257.7372,-0.4808,-34.8524,-35.7608,0.0300,0.2700,0.0000,0.0000,0.0000,0.0000,0.0000,0.0000
-35.4849,-35.1752,11.7210,0.0000,-0.0000,0.1200,1.6200,0.6400,0.0000,0.3671,0.3175,0.0026,996,1502,1527,1502,2008,1000,1505,1000,1000,1002,1005,1000,1018,0.0502,-0.0161,-0.1910,0.0030,-0.0148,1.0040,0.0522,-0.6871,-0.0471,0.6820,0.8627,0.2400,0.1321,0.8627,0.2400,0.1321,0.3000,0.0600,0.0002,0,-4.9329,-258.5058,-0.4823,-4.9329,-258.5058,-0.4823,-34.8176,-35.7392,0.0200,0.2700,0.0000,0.0000,0.0000,0.0000,0.0000,0.0000
-35.4499,-35.1532,11.6997,-0.0829,-0.0000,0.1200,1.6200,0.6400,0.0000,0.3668,0.3173,0.0024,996,1502,1527,1502,2008,1000,1505,1000,1000,1002,1005,1000,1018,0.0419,-0.0143,-0.1465,0.0044,-0.0143,0.9960,0.0520,-0.6865,-0.0471,0.6817,0.8627,0.2400,0.1321,0.8627,0.2400,0.1321,0.3000,0.0600,0.0002,0,-4.9329,-258.5058,-0.4823,-4.9329,-258.5058,-0.4823,-34.7821,-35.7168,0.0200,0.2700,0.0000,0.0000,0.0000,0.0000,0.0000,0.0000
-35.4152,-35.1310,11.6785,0.0000,-0.0821,0.1200,1.6200,0.6400,0.0000,0.3665,0.3171,0.0024,996,1502,1527,1502,2008,1000,1505,1000,1000,1002,1005,1000,1018,0.0103,0.0001,-0.1353,0.0002,-0.0141,1.0022,0.0519,-0.6860,-0.0471,0.6812,0.8627,0.2400,0.1321,0.8627,0.2400,0.1321,0.3000,0.0600,0.0002,0,-4.9329,-258.5058,-0.4823,-4.9329,-258.5058,-0.4823,-34.7466,-35.6940,0.0200,0.2700,0.0000,0.0000,0.0000,0.0000,0.0000,0.0000
-35.3806,-35.1085,11.6581,-0.0829,-0.0821,0.1200,1.6200,0.6400,0.0000,0.3663,0.3169,0.0022,996,1502,1527,1502,2008,1000,1505,1000,1000,1002,1005,1000,1018,-0.0317,-0.0130,-0.0658,-0.0000,-0.0126,1.0035,0.0516,-0.6854,-0.0472,0.6810,0.8627,0.2400,0.1321,0.8627,0.2400,0.1321,0.3000,0.0600,0.0002,0,-4.9329,-258.5058,-0.4823,-4.9329,-258.5058,-0.4823,-34.7118,-35.6712,0.0200,0.2700,0.0000,0.0000,0.0000,0.0000,0.0000,0.0000
-35.3473,-35.0854,11.6384,0.0000,-0.0821,0.1200,1.6200,0.6400,0.0000,0.3660,0.3166,0.0019,996,1502,1527,1502,2008,1000,1505,1000,1000,1002,1005,1000,1017,-0.0291,0.0720,0.0075,0.0024,-0.0134,1.0008,0.0514,-0.6845,-0.0475,0.6807,0.8627,0.2400,0.1321,0.8627,0.2400,0.1321,0.3000,0.0600,0.0002,0,-4.9181,-257.7372,-0.4808,-4.9181,-257.7372,-0.4808,-34.6776,-35.6487,0.0200,0.2700,0.0000,0.0000,0.0000,0.0000,0.0000,0.0000
-35.3145,-35.0616,11.6197,-0.0829,-0.0821,0.1800,1.6200,0.9600,0.0000,0.3662,0.3163,0.0015,996,1502,1527,1502,2008,1000,1505,1000,1000,1002,1005,1000,1018,0.0016,0.0849,0.1569,0.0007,-0.0117,1.0034,0.0514,-0.6841,-0.0483,0.6810,0.8627,0.2400,0.1321,0.8627,0.2400,0.1321,0.3000,0.0600,0.0002,0,-4.9329,-258.5058,-0.4823,-4.9329,-258.5058,-0.4823,-34.6441,-35.6243,0.0300,0.2700,0.0000,0.0000,0.0000,0.0000,0.0000,0.0000
-35.2823,-35.0373,11.6018,0.0000,-0.0821,0.1200,1.6200,0.6400,0.0000,0.3655,0.3163,0.0014,996,1502,1527,1502,2008,1000,1505,1000,1000,1002,1005,1000,1018,-0.0329,-0.0080,0.1967,0.0037,-0.0136,1.0015,0.0506,-0.6831,-0.0478,0.6803,0.8627,0.2400,0.1321,0.8627,0.2400,0.1321,0.3000,0.0600,0.0002,0,-4.9329,-258.5058,-0.4823,-4.9329,-258.5058,-0.4823,-34.6120,-35.5998,0.0200,0.2700,0.0000,0.0000,0.0000,0.0000,0.0000,0.0000
-35.2502,-35.0126,11.5850,0.0000,-0.0821,0.1200,1.6200,0.6400,0.0000,0.3652,0.3160,0.0011,996,1502,1527,1502,2008,1000,1505,1000,1000,1002,1005,1000,1017,-0.0263,0.0309,0.2995,0.0012,-0.0156,1.0015,0.0503,-0.6823,-0.0481,0.6800,0.8627,0.2400,0.1321,0.8627,0.2400,0.1321,0.3000,0.0600,0.0002,0,-4.9181,-257.7372,-0.4808,-4.9181,-257.7372,-0.4808,-34.5798,-35.5755,0.0200,0.2700,0.0000,0.0000,0.0000,0.0000,0.0000,0.0000
-35.2189,-34.9876,11.5690,-0.0829,-0.0821,0.1200,1.6200,0.6400,0.0000,0.3649,0.3158,0.0010,996,1502,1527,1502,2008,1000,1505,1000,1000,1002,1005,1000,1017,-0.0403,0.0015,0.3361,-0.0035,-0.0169,1.0045,0.0501,-0.6817,-0.0481,0.6798,0.8627,0.2400,0.1321,0.8627,0.2400,0.1321,0.3000,0.0600,0.0002,0,-4.9181,-257.7372,-0.4808,-4.9181,-257.7372,-0.4808,-34.5475,-35.5508,0.0200,0.2700,0.0000,0.0000,0.0000,0.0000,0.0000,0.0000
-35.1874,-34.9624,11.5529,-0.0829,-0.0821,0.1200,1.6200,0.6400,0.0000,0.3646,0.3155,0.0012,996,1502,1527,1502,2008,1000,1505,1000,1000,1002,1005,1000,1018,0.0004,0.1000,0.2946,-0.0003,-0.0151,1.0055,0.0503,-0.6812,-0.0480,0.6789,0.8627,0.2400,0.1321,0.8627,0.2400,0.1321,0.3000,0.0600,0.0002,0,-4.9329,-258.5058,-0.4823,-4.9329,-258.5058,-0.4823,-34.5149,-35.5262,0.0200,0.2700,0.0000,0.0000,0.0000,0.0000,0.0000,0.0000
-35.1549,-34.9379,11.5355,-0.0829,-0.0000,0.1200,1.6200,0.6400,0.0000,0.3643,0.3154,0.0015,996,1502,1527,1502,2008,1000,1505,1000,1000,1002,1005,1000,1018,-0.0086,-0.0391,0.1673,0.0027,-0.0152,0.9997,0.0504,-0.6813,-0.0474,0.6782,0.8627,0.2400,0.1321,0.8627,0.2400,0.1321,0.3000,0.0600,0.0002,0,-4.9329,-258.5058,-0.4823,-4.9329,-258.5058,-0.4823,-34.4819,-35.5020,0.0200,0.2700,0.0000,0.0000,0.0000,0.0000,0.0000,0.0000
-35.1224,-34.9141,11.5180,0.0000,-0.0821,0.1800,1.6200,0.9600,0.0000,0.3647,0.3152,0.0018,996,1502,1527,1502,2008,1000,1505,1000,1000,1002,1005,1000,1017,-0.0774,-0.0267,0.0931,0.0020,-0.0160,1.0005,0.0512,-0.6817,-0.0477,0.6781,0.8627,0.2400,0.1321,0.8627,0.2400,0.1321,0.3000,0.0600,0.0002,0,-4.9181,-257.7372,-0.4808,-4.9181,-257.7372,-0.4808,-34.4482,-35.4778,0.0300,0.2700,0.0000,0.0000,0.0000,0.0000,0.0000,0.0000
-35.0899,-34.8912,11.4996,0.0000,-0.0821,0.1200,1.6200,0.6400,0.0000,0.3638,0.3151,0.0020,996,1502,1527,1502,2008,1000,1505,1000,1000,1002,1005,1000,1017,-0.0208,-0.0759,0.0174,0.0036,-0.0118,0.9989,0.0507,-0.6808,-0.0467,0.6769,0.8627,0.2400,0.1321,0.8627,0.2400,0.1321,0.3000,0.0600,0.0002,0,-4.9181,-257.7372,-0.4808,-4.9181,-257.7372,-0.4808,-34.4150,-35.4544,0.0200,0.2700,0.0000,0.0000,0.0000,0.0000,0.0000,0.0000
-35.0564,-34.8682,11.4806,0.0000,-0.0000,0.1200,1.6200,0.6400,0.0000,0.3634,0.3148,0.0022,996,1502,1527,1502,2008,1000,1505,1000,1000,1002,1005,1000,1017,0.0316,-0.0394,-0.0416,0.0005,-0.0146,0.9953,0.0508,-0.6804,-0.0464,0.6761,0.8627,0.2400,0.1321,0.8627,0.2400,0.1321,0.3000,0.0600,0.0002,0,-4.9181,-257.7372,-0.4808,-4.9181,-257.7372,-0.4808,-34.3813,-35.4310,0.0200,0.2700,0.0000,0.0000,0.0000,0.0000,0.0000,0.0000
-35.0222,-34.8456,11.4609,0.0000,-0.1642,0.1200,1.6200,0.6400,0.0000,0.3631,0.3146,0.0023,996,1502,1527,1502,2008,1000,1505,1000,1000,1001,1005,1000,1017,0.0261,0.0081,-0.0845,0.0007,-0.0163,1.0015,0.0509,-0.6800,-0.0463,0.6754,0.8627,0.2400,0.1321,0.8627,0.2400,0.1321,0.3000,0.0600,0.0002,0,-4.8984,-257.7372,-0.4808,-4.8984,-257.7372,-0.4808,-34.3466,-35.4080,0.0200,0.2700,0.0000,0.0000,0.0000,0.0000,0.0000,0.0000
-34.9877,-34.8232,11.4406,-0.0829,-0.0821,0.1200,1.6200,0.6400,0.0000,0.3629,0.3145,0.0022,996,1502,1527,1502,2008,1000,1505,1000,1000,1001,1005,1000,1017,0.0148,-0.0565,-0.0908,0.0054,-0.0141,1.0020,0.0506,-0.6796,-0.0461,0.6751,0.8627,0.2400,0.1321,0.8627,0.2400,0.1321,0.3000,0.0600,0.0002,0,-4.8984,-257.7372,-0.4808,-4.8984,-257.7372,-0.4808,-34.3126,-35.3855,0.0200,0.2700,0.0000,0.0000,0.0000,0.0000,0.0000,0.0000
-34.9533,-34.8003,11.4202,0.0000,-0.0000,0.1200,1.6200,0.6400,0.0000,0.3626,0.3142,0.0023,996,1502,1527,1502,2008,1000,1505,1000,1000,1002,1005,1000,1017,0.0122,0.0330,-0.1006,0.0016,-0.0156,0.9965,0.0508,-0.6791,-0.0461,0.6744,0.8627,0.2400,0.1321,0.8627,0.2400,0.1321,0.3000,0.0600,0.0002,0,-4.9181,-257.7372,-0.4808,-4.9181,-257.7372,-0.4808,-34.2781,-35.3628,0.0200,0.2700,0.0000,0.0000,0.0000,0.0000,0.0000,0.0000
-34.9184,-34.7775,11.3992,0.0000,-0.0821,0.1800,1.6200,0.9600,0.0000,0.3628,0.3139,0.0025,996,1502,1527,1502,2008,1000,1505,1000,1000,1002,1005,1000,1017,0.0058,0.0675,-0.1631,0.0036,-0.0137,1.0024,0.0514,-0.6792,-0.0464,0.6742,0.8627,0.2400,0.1321,0.8627,0.2400,0.1321,0.3000,0.0600,0.0002,0,-4.9181,-257.7372,-0.4808,-4.9181,-257.7372,-0.4808,-34.2432,-35.3400,0.0300,0.2700,0.0000,0.0000,0.0000,0.0000,0.0000,0.0000
-34.8839,-34.7547,11.3780,-0.0829,-0.0000,0.1200,1.6200,0.6400,0.0000,0.3620,0.3138,0.0024,996,1502,1527,1502,2008,1000,1505,1000,1000,1002,1005,1000,1017,0.0054,0.0248,-0.1198,0.0004,-0.0139,0.9998,0.0506,-0.6782,-0.0458,0.6733,0.8627,0.2400,0.1321,0.8627,0.2400,0.1321,0.3000,0.0600,0.0002,0,-4.9181,-257.7372,-0.4808,-4.9181,-257.7372,-0.4808,-34.2089,-35.3171,0.0200,0.2700,0.0000,0.0000,0.0000,0.0000,0.0000,0.0000
-34.8498,-34.7318,11.3577,0.0000,-0.0000,0.1200,1.6200,0.6400,0.0000,0.3617,0.3136,0.0024,996,1502,1527,1502,2008,1000,1505,1000,1000,1002,1005,1000,1017,-0.0195,0.0228,-0.0975,0.0013,-0.0153,1.0010,0.0505,-0.6777,-0.0457,0.6729,0.8627,0.2400,0.1321,0.8627,0.2400,0.1321,0.3000,0.0600,0.0002,0,-4.9181,-257.7372,-0.4808,-4.9181,-257.7372,-0.4808,-34.1742,-35.2940,0.0200,0.2700,0.0000,0.0000,0.0000,0.0000,0.0000,0.0000
-34.8157,-34.7093,11.3372,0.0000,-0.0821,0.1200,1.6200,0.6400,0.0000,0.3614,0.3135,0.0023,996,1502,1527,1502,2008,1000,1505,1000,1000,1002,1005,1000,1017,-0.0259,-0.0523,-0.0918,0.0047,-0.0140,1.0040,0.0502,-0.6772,-0.0456,0.6726,0.8627,0.2400,0.1321,0.8627,0.2400,0.1321,0.3000,0.0600,0.0002,0,-4.9181,-257.7372,-0.4808,-4.9181,-257.7372,-0.4808,-34.1392,-35.2708,0.0200,0.2700,0.0000,0.0000,0.0000,0.0000,0.0000,0.0000
-34.7817,-34.6871,11.3173,-0.0829,-0.0821,0.1200,1.6200,0.6400,0.0000,0.3611,0.3132,0.0025,996,1502,1527,1502,2008,1000,1505,1000,1000,1002,1005,1000,1018,0.0098,-0.0167,-0.1403,-0.0018,-0.0125,0.9988,0.0504,-0.6769,-0.0453,0.6718,0.8627,0.2400,0.1321,0.8627,0.2400,0.1321,0.3000,0.0600,0.0002,0,-4.9329,-258.5058,-0.4823,-4.9329,-258.5058,-0.4823,-34.1043,-35.2475,0.0200,0.2700,0.0000,0.0000,0.0000,0.0000,0.0000,0.0000
-34.7476,-34.6640,11.2972,-0.2486,-0.1642,0.1200,1.6200,0.6400,0.0000,0.3608,0.3130,0.0023,996,1502,1527,1502,2008,1000,1505,1000,1000,1002,1005,1000,1018,0.0067,0.0160,-0.0552,0.0001,-0.0146,0.9994,0.0501,-0.6761,-0.0455,0.6715,0.8627,0.2400,0.1321,0.8627,0.2400,0.1321,0.3000,0.0600,0.0002,0,-4.9329,-258.5058,-0.4823,-4.9329,-258.5058,-0.4823,-34.0695,-35.2246,0.0200,0.2700,0.0000,0.0000,0.0000,0.0000,0.0000,0.0000
-34.7139,-34.6413,11.2781,0.0000,-0.0000,0.1800,1.6200,0.9600,0.0000,0.3610,0.3129,0.0020,996,1502,1527,1502,2008,1000,1505,1000,1000,1002,1005,1000,1017,0.0055,-0.0234,-0.0016,0.0041,-0.0120,1.0013,0.0502,-0.6759,-0.0462,0.6719,0.8627,0.2400,0.1321,0.8627,0.2400,0.1321,0.3000,0.0600,0.0002,0,-4.9181,-257.7372,-0.4808,-4.9181,-257.7372,-0.4808,-34.0349,-35.2015,0.0300,0.2700,0.0000,0.0000,0.0000,0.0000,0.0000,0.0000
-34.6808,-34.6182,11.2597,-0.1657,-0.0821,0.1200,1.6200,0.6400,0.0000,0.3603,0.3126,0.0018,996,1502,1527,1502,2008,1000,1505,1000,1000,1002,1005,1000,1018,-0.0323,0.0185,0.0743,0.0011,-0.0119,0.9998,0.0495,-0.6747,-0.0458,0.6710,0.8627,0.2400,0.1321,0.8627,0.2400,0.1321,0.3000,0.0600,0.0002,0,-4.9329,-258.5058,-0.4823,-4.9329,-258.5058,-0.4823,-34.0017,-35.1775,0.0200,0.2700,0.0000,0.0000,0.0000,0.0000,0.0000,0.0000
-34.6483,-34.5943,11.2422,0.0000,-0.0000,0.1200,1.6200,0.6400,0.0000,0.3600,0.3124,0.0017,996,1502,1527,1502,2008,1000,1505,1000,1000,1002,1005,1000,1018,-0.0311,-0.0132,0.1345,0.0074,-0.0146,0.9960,0.0492,-0.6741,-0.0459,0.6707,0.8627,0.2400,0.1321,0.8627,0.2400,0.1321,0.3000,0.0600,0.0002,0,-4.9329,-258.5058,-0.4823,-4.9329,-258.5058,-0.4823,-33.9683,-35.1533,0.0200,0.2700,0.0000,0.0000,0.0000,0.0000,0.0000,0.0000
-34.6154,-34.5700,11.2248,-0.0829,-0.1642,0.1200,1.6200,0.6400,0.0000,0.3596,0.3122,0.0013,996,1502,1527,1502,2008,1000,1505,1000,1000,1002,1005,1000,1017,0.0320,-0.0131,0.2387,0.0042,-0.0142,0.9981,0.0487,-0.6732,-0.0461,0.6705,0.8627,0.2400,0.1321,0.8627,0.2400,0.1321,0.3000,0.0600,0.0002,0,-4.9181,-257.7372,-0.4808,-4.9181,-257.7372,-0.4808,-33.9351,-35.1290,0.0200,0.2700,0.0000,0.0000,0.0000,0.0000,0.0000,0.0000
-34.5827,-34.5451,11.2076,-0.0829,-0.0821,0.1200,1.6200,0.6400,0.0000,0.3595,0.3119,0.0015,996,1502,1527,1502,2008,1000,1505,1000,1000,1002,1005,1000,1017,-0.0583,0.0675,0.1834,0.0028,-0.0125,1.0066,0.0491,-0.6729,-0.0460,0.6698,0.8627,0.2400,0.1321,0.8627,0.2400,0.1321,0.3000,0.0600,0.0002,0,-4.9181,-257.7372,-0.4808,-4.9181,-257.7372,-0.4808,-33.9029,-35.1048,0.0200,0.2700,0.0000,0.0000,0.0000,0.0000,0.0000,0.0000
-34.5500,-34.5202,11.1904,-0.0829,-0.0821,0.1200,1.6200,0.6400,0.0000,0.3590,0.3118,0.0015,996,1502,1527,1502,2008,1000,1505,1000,1000,1002,1005,1000,1017,0.0539,0.0099,0.2005,0.0049,-0.0127,1.0019,0.0487,-0.6723,-0.0458,0.6693,0.8627,0.2400,0.1321,0.8627,0.2400,0.1321,0.3000,0.0600,0.0002,0,-4.9181,-257.7372,-0.4808,-4.9181,-257.7372,-0.4808,-33.8712,-35.0803,0.0200,0.2700,0.0000,0.0000,0.0000,0.0000,0.0000,0.0000
-34.5166,-34.4955,11.1724,-0.0829,-0.0821,0.1800,1.6200,0.9600,0.0000,0.3593,0.3115,0.0016,996,1502,1527,1502,2008,1000,1505,1000,1000,1002,1005,1000,1018,0.0541,0.0634,0.1510,0.0013,-0.0133,1.0007,0.0494,-0.6724,-0.0461,0.6691,0.8627,0.2400,0.1321,0.8627,0.2400,0.1321,0.3000,0.0600,0.0002,0,-4.9329,-258.5058,-0.4823,-4.9329,-258.5058,-0.4823,-33.8389,-35.0555,0.0300,0.2700,0.0000,0.0000,0.0000,0.0000,0.0000,0.0000
-34.4831,-34.4712,11.1544,0.0000,-0.0821,0.1200,1.6200,0.6400,0.0000,0.3585,0.3113,0.0020,996,1502,1527,1502,2008,1000,1505,1000,1000,1002,1005,1000,1018,-0.0066,0.0087,0.0632,0.0025,-0.0113,1.0031,0.0492,-0.6719,-0.0452,0.6679,0.8627,0.2400,0.1321,0.8627,0.2400,0.1321,0.3000,0.0600,0.0002,0,-4.9329,-258.5058,-0.4823,-4.9329,-258.5058,-0.4823,-33.8052,-35.0315,0.0200,0.2700,0.0000,0.0000,0.0000,0.0000,0.0000,0.0000
-34.4501,-34.4475,11.1357,0.0829,-0.0000,0.1200,1.6200,0.6400,0.0000,0.3583,0.3112,0.0019,996,1502,1527,1502,2008,1000,1505,1000,1000,1002,1005,1000,1018,-0.0415,-0.0091,0.0562,0.0001,-0.0136,1.0000,0.0490,-0.6714,-0.0452,0.6676,0.8627,0.2400,0.1321,0.8627,0.2400,0.1321,0.3000,0.0600,0.0002,0,-4.9329,-258.5058,-0.4823,-4.9329,-258.5058,-0.4823,-33.7723,-35.0076,0.0200,0.2700,0.0000,0.0000,0.0000,0.0000,0.0000,0.0000
-34.4167,-34.4238,11.1171,0.0000,-0.0821,0.1200,1.6200,0.6400,0.0000,0.3580,0.3110,0.0021,996,1502,1527,1502,2008,1000,1505,1000,1000,1002,1005,1000,1018,-0.0317,-0.0320,0.0130,0.0023,-0.0169,1.0005,0.0491,-0.6711,-0.0449,0.6669,0.8627,0.2400,0.1321,0.8627,0.2400,0.1321,0.3000,0.0600,0.0002,0,-4.9329,-258.5058,-0.4823,-4.9329,-258.5058,-0.4823,-33.7389,-34.9842,0.0200,0.2700,0.0000,0.0000,0.0000,0.0000,0.0000,0.0000
-34.3834,-34.4005,11.0980,0.0000,-0.0821,0.1200,1.6200,0.6400,0.0000,0.3577,0.3108,0.0022,996,1502,1527,1502,2008,1000,1505,1000,1000,1002,1005,1000,1017,-0.0151,-0.0262,-0.0362,0.0048,-0.0141,1.0014,0.0491,-0.6707,-0.0447,0.6663,0.8627,0.2400,0.1321,0.8627,0.2400,0.1321,0.3000,0.0600,0.0002,0,-4.9181,-257.7372,-0.4808,-4.9181,-257.7372,-0.4808,-33.7051,-34.9604,0.0200,0.2700,0.0000,0.0000,0.0000,0.0000,0.0000,0.0000
-34.3487,-34.3772,11.0785,0.0000,-0.0821,0.1200,1.6200,0.6400,0.0000,0.3573,0.3106,0.0022,996,1502,1527,1502,2008,1000,1505,1000,1000,1002,1005,1000,1017,0.0789,-0.0204,-0.0226,0.0023,-0.0160,1.0007,0.0488,-0.6700,-0.0445,0.6657,0.8627,0.2400,0.1321,0.8627,0.2400,0.1321,0.3000,0.0600,0.0002,0,-4.9181,-257.7372,-0.4808,-4.9181,-257.7372,-0.4808,-33.6706,-34.9370,0.0200,0.2700,0.0000,0.0000,0.0000,0.0000,0.0000,0.0000
-34.3145,-34.3542,11.0591,0.0000,-0.0821,0.1800,1.6200,0.9600,0.0000,0.3575,0.3104,0.0024,996,1502,1527,1502,2008,1000,1505,1000,1000,1002,1005,1000,1017,0.0269,-0.0327,-0.0748,0.0021,-0.0155,0.9984,0.0495,-0.6703,-0.0448,0.6656,0.8627,0.2400,0.1321,0.8627,0.2400,0.1321,0.3000,0.0600,0.0002,0,-4.9181,-257.7372,-0.4808,-4.9181,-257.7372,-0.4808,-33.6366,-34.9140,0.0300,0.2700,0.0000,0.0000,0.0000,0.0000,0.0000,0.0000
-34.2799,-34.3313,11.0388,0.0000,-0.0821,0.1200,1.6200,0.6400,0.0000,0.3567,0.3101,0.0025,996,1502,1527,1502,2008,1000,1505,1000,1000,1002,1005,1000,1017,0.0149,0.0617,-0.1292,0.0042,-0.0120,1.0011,0.0492,-0.6693,-0.0442,0.6643,0.8627,0.2400,0.1321,0.8627,0.2400,0.1321,0.3000,0.0600,0.0002,0,-4.9181,-257.7372,-0.4808,-4.9181,-257.7372,-0.4808,-33.6025,-34.8909,0.0200,0.2700,0.0000,0.0000,0.0000,0.0000,0.0000,0.0000
-34.2458,-34.3083,11.0187,0.0000,-0.0821,0.1200,1.6200,0.6400,0.0000,0.3565,0.3100,0.0023,996,1502,1527,1502,2008,1000,1505,1000,1000,1002,1005,1000,1017,-0.0314,-0.0273,-0.0802,0.0015,-0.0153,1.0004,0.0489,-0.6688,-0.0442,0.6642,0.8627,0.2400,0.1321,0.8627,0.2400,0.1321,0.3000,0.0600,0.0002,0,-4.9181,-257.7372,-0.4808,-4.9181,-257.7372,-0.4808,-33.5679,-34.8674,0.0200,0.2700,0.0000,0.0000,0.0000,0.0000,0.0000,0.0000
-34.2118,-34.2856,10.9990,-0.0829,-0.0000,0.1200,1.6200,0.6400,0.0000,0.3562,0.3098,0.0025,996,1502,1527,1502,2008,1000,1505,1000,1000,1002,1005,1000,1018,-0.0299,-0.0427,-0.1090,0.0019,-0.0146,1.0045,0.0489,-0.6685,-0.0439,0.6636,0.8627,0.2400,0.1321,0.8627,0.2400,0.1321,0.3000,0.0600,0.0002,0,-4.9329,-258.5058,-0.4823,-4.9329,-258.5058,-0.4823,-33.5331,-34.8440,0.0200,0.2700,0.0000,0.0000,0.0000,0.0000,0.0000,0.0000
-34.1783,-34.2622,10.9796,0.0000,-0.0821,0.1200,1.6200,0.6400,0.0000,0.3559,0.3096,0.0023,996,1502,1527,1502,2008,1000,1505,1000,1000,1002,1005,1000,1018,-0.0227,-0.0149,-0.0541,-0.0000,-0.0171,1.0014,0.0486,-0.6678,-0.0441,0.6632,0.8627,0.2400,0.1321,0.8627,0.2400,0.1321,0.3000,0.0600,0.0002,0,-4.9329,-258.5058,-0.4823,-4.9329,-258.5058,-0.4823,-33.4986,-34.8209,0.0200,0.2700,0.0000,0.0000,0.0000,0.0000,0.0000,0.0000
-34.1444,-34.2389,10.9601,-0.0829,-0.1642,0.1200,1.6200,0.6400,0.0000,0.3556,0.3094,0.0023,996,1502,1527,1502,2008,1000,1505,1000,1000,1002,1005,1000,1017,-0.0219,-0.0097,-0.0503,0.0018,-0.0146,1.0010,0.0486,-0.6673,-0.0440,0.6627,0.8627,0.2400,0.1321,0.8627,0.2400,0.1321,0.3000,0.0600,0.0002,0,-4.9181,-257.7372,-0.4808,-4.9181,-257.7372,-0.4808,-33.4653,-34.7977,0.0200,0.2700,0.0000,0.0000,0.0000,0.0000,0.0000,0.0000
-34.1102,-34.2159,10.9406,-0.0829,-0.1642,0.1800,1.6200,0.9600,0.0000,0.3558,0.3091,0.0023,996,1502,1527,1502,2008,1000,1505,1000,1000,1002,1005,1000,1018,0.0446,0.0191,-0.0564,0.0024,-0.0148,0.9972,0.0489,-0.6672,-0.0443,0.6626,0.8627,0.2400,0.1321,0.8627,0.2400,0.1321,0.3000,0.0600,0.0002,0,-4.9329,-258.5058,-0.4823,-4.9329,-258.5058,-0.4823,-33.4319,-34.7745,0.0300,0.2700,0.0000,0.0000,0.0000,0.0000,0.0000,0.0000
-34.0765,-34.1923,10.9212,0.0000,-0.0821,0.1200,1.6200,0.6400,0.0000,0.3551,0.3089,0.0024,996,1502,1527,1502,2008,1000,1505,1000,1000,1002,1005,1000,1018,-0.0301,0.0601,-0.0741,0.0029,-0.0164,1.0033,0.0485,-0.6663,-0.0438,0.6616,0.8627,0.2400,0.1321,0.8627,0.2400,0.1321,0.3000,0.0600,0.0002,0,-4.9329,-258.5058,-0.4823,-4.9329,-258.5058,-0.4823,-33.3984,-34.7510,0.0200,0.2700,0.0000,0.0000,0.0000,0.0000,0.0000,0.0000
-34.0427,-34.1687,10.9017,-0.0829,-0.1642,0.1200,1.6200,0.6400,0.0000,0.3547,0.3088,0.0021,996,1502,1527,1502,2008,1000,1505,1000,1000,1002,1005,1000,1017,0.0051,-0.0096,0.0107,0.0004,-0.0151,1.0032,0.0481,-0.6656,-0.0438,0.6614,0.8627,0.2400,0.1321,0.8627,0.2400,0.1321,0.3000,0.0600,0.0002,0,-4.9181,-257.7372,-0.4808,-4.9181,-257.7372,-0.4808,-33.3647,-34.7268,0.0200,0.2700,0.0000,0.0000,0.0000,0.0000,0.0000,0.0000
-34.0095,-34.1448,10.8832,-0.0829,-0.0000,0.1200,1.6200,0.6400,0.0000,0.3544,0.3085,0.0021,996,1502,1527,1502,2008,1000,1505,1000,1000,1002,1005,1000,1017,0.0261,0.0107,0.0290,0.0043,-0.0110,1.0047,0.0479,-0.6650,-0.0438,0.6609,0.8627,0.2400,0.1321,0.8627,0.2400,0.1321,0.3000,0.0600,0.0002,0,-4.9181,-257.7372,-0.4808,-4.9181,-257.7372,-0.4808,-33.3308,-34.7029,0.0200,0.2700,0.0000,0.0000,0.0000,0.0000,0.0000,0.0000
-33.9764,-34.1205,10.8653,-0.1657,-0.1642,0.1200,1.6200,0.6400,0.0000,0.3541,0.3084,0.0018,996,1502,1527,1502,2008,1000,1505,1000,1000,1002,1005,1000,1017,0.0333,-0.0335,0.1221,0.0008,-0.0130,0.9996,0.0476,-0.6643,-0.0439,0.6607,0.8627,0.2400,0.1321,0.8627,0.2400,0.1321,0.3000,0.0600,0.0002,0,-4.9181,-257.7372,-0.4808,-4.9181,-257.7372,-0.4808,-33.2974,-34.6786,0.0200,0.2700,0.0000,0.0000,0.0000,0.0000,0.0000,0.0000
-33.9433,-34.0963,10.8476,0.0000,-0.0821,0.1200,1.6200,0.6400,0.0000,0.3539,0.3082,0.0019,996,1502,1527,1502,2008,1000,1505,1000,1000,1002,1005,1000,1017,-0.0248,-0.0443,0.1005,-0.0001,-0.0114,1.0024,0.0476,-0.6640,-0.0438,0.6602,0.8627,0.2400,0.1321,0.8627,0.2400,0.1321,0.3000,0.0600,0.0002,0,-4.9181,-257.7372,-0.4808,-4.9181,-257.7372,-0.4808,-33.2632,-34.6540,0.0200,0.2700,0.0000,0.0000,0.0000,0.0000,0.0000,0.0000
-33.9105,-34.0723,10.8298,0.0000,-0.0821,0.1800,1.6200,0.9600,0.0000,0.3541,0.3080,0.0020,996,1502,1527,1502,2008,1000,1505,1000,1000,1002,1005,1000,1017,-0.0299,-0.0252,0.0669,0.0030,-0.0167,1.0048,0.0482,-0.6641,-0.0442,0.6601,0.8627,0.2400,0.1321,0.8627,0.2400,0.1321,0.3000,0.0600,0.0002,0,-4.9181,-257.7372,-0.4808,-4.9181,-257.7372,-0.4808,-33.2304,-34.6296,0.0300,0.2700,0.0000,0.0000,0.0000,0.0000,0.0000,0.0000
-33.8778,-34.0486,10.8115,-0.0829,-0.0000,0.1200,1.6200,0.6400,0.0000,0.3533,0.3077,0.0022,996,1502,1527,1502,2008,1000,1505,1000,1000,1002,1005,1000,1018,-0.0284,0.0352,-0.0144,-0.0013,-0.0101,1.0053,0.0479,-0.6632,-0.0435,0.6588,0.8627,0.2400,0.1321,0.8627,0.2400,0.1321,0.3000,0.0600,0.0002,0,-4.9329,-258.5058,-0.4823,-4.9329,-258.5058,-0.4823,-33.1969,-34.6055,0.0200,0.2700,0.0000,0.0000,0.0000,0.0000,0.0000,0.0000
-33.8445,-34.0248,10.7927,0.0829,-0.0821,0.1200,1.6200,0.6400,0.0000,0.3531,0.3075,0.0021,996,1502,1527,1502,2008,1000,1505,1000,1000,1002,1005,1000,1018,-0.0390,-0.0023,0.0245,-0.0015,-0.0140,1.0013,0.0477,-0.6627,-0.0434,0.6584,0.8627,0.2400,0.1321,0.8627,0.2400,0.1321,0.3000,0.0600,0.0002,0,-4.9329,-258.5058,-0.4823,-4.9329,-258.5058,-0.4823,-33.1634,-34.5816,0.0200,0.2700,0.0000,0.0000,0.0000,0.0000,0.0000,0.0000
-33.8113,-34.0014,10.7738,0.0000,-0.0821,0.1200,1.6200,0.6400,0.0000,0.3527,0.3073,0.0024,996,1502,1527,1502,2008,1000,1505,1000,1000,1002,1005,1000,1017,0.0530,-0.0321,-0.0637,0.0029,-0.0116,1.0079,0.0477,-0.6624,-0.0429,0.6576,0.8627,0.2400,0.1321,0.8627,0.2400,0.1321,0.3000,0.0600,0.0002,0,-4.9181,-257.7372,-0.4808,-4.9181,-257.7372,-0.4808,-33.1292,-34.5577,0.0200,0.2700,0.0000,0.0000,0.0000,0.0000,0.0000,0.0000
-33.7776,-33.9782,10.7544,-0.0829,-0.0000,0.1200,1.6200,0.6400,0.0000,0.3525,0.3071,0.0023,996,1502,1527,1502,2008,1000,1505,1000,1000,1002,1005,1000,1017,-0.0665,0.0072,-0.0501,-0.0008,-0.0158,1.0029,0.0478,-0.6620,-0.0431,0.6573,0.8627,0.2400,0.1321,0.8627,0.2400,0.1321,0.3000,0.0600,0.0002,0,-4.9181,-257.7372,-0.4808,-4.9181,-257.7372,-0.4808,-33.0956,-34.5340,0.0200,0.2700,0.0000,0.0000,0.0000,0.0000,0.0000,0.0000
-33.7448,-33.9544,10.7358,-0.0829,-0.1642,0.1200,1.6200,0.6400,0.0000,0.3522,0.3069,0.0019,996,1502,1527,1502,2008,1000,1505,1000,1000,1002,1005,1000,1017,-0.0518,-0.0295,0.0908,-0.0008,-0.0120,0.9970,0.0472,-0.6610,-0.0434,0.6573,0.8627,0.2400,0.1321,0.8627,0.2400,0.1321,0.3000,0.0600,0.0002,0,-4.9181,-257.7372,-0.4808,-4.9181,-257.7372,-0.4808,-33.0616,-34.5096,0.0200,0.2700,0.0000,0.0000,0.0000,0.0000,0.0000,0.0000
-33.7117,-33.9301,10.7174,0.0000,-0.0821,0.1800,1.6200,0.9600,0.0000,0.3524,0.3067,0.0022,996,1502,1527,1502,2008,1000,1505,1000,1000,1001,1005,1000,1017,-0.0263,-0.0086,-0.0128,0.0062,-0.0128,1.0038,0.0480,-0.6614,-0.0435,0.6569,0.8627,0.2400,0.1321,0.8627,0.2400,0.1321,0.3000,0.0600,0.0002,0,-4.8984,-257.7372,-0.4808,-4.8984,-257.7372,-0.4808,-33.0277,-34.4851,0.0300,0.2700,0.0000,0.0000,0.0000,0.0000,0.0000,0.0000
-33.6787,-33.9062,10.6989,0.0000,-0.0000,0.1200,1.6200,0.6400,0.0000,0.3516,0.3065,0.0021,996,1502,1527,1502,2008,1000,1505,1000,1000,1001,1005,1000,1017,0.0138,-0.0192,0.0357,0.0023,-0.0155,1.0039,0.0472,-0.6602,-0.0429,0.6560,0.8627,0.2400,0.1321,0.8627,0.2400,0.1321,0.3000,0.0600,0.0002,0,-4.8984,-257.7372,-0.4808,-4.8984,-257.7372,-0.4808,-32.9942,-34.4606,0.0200,0.2700,0.0000,0.0000,0.0000,0.0000,0.0000,0.0000
-33.6460,-33.8824,10.6811,-0.0829,-0.0000,0.1200,1.6200,0.6400,0.0000,0.3514,0.3063,0.0022,996,1502,1527,1502,2008,1000,1505,1000,1000,1002,1005,1000,1017,-0.0426,-0.0198,0.0260,0.0039,-0.0118,1.0022,0.0472,-0.6598,-0.0429,0.6555,0.8627,0.2400,0.1321,0.8627,0.2400,0.1321,0.3000,0.0600,0.0002,0,-4.9181,-257.7372,-0.4808,-4.9181,-257.7372,-0.4808,-32.9618,-34.4360,0.0200,0.2700,0.0000,0.0000,0.0000,0.0000,0.0000,0.0000
-33.6130,-33.8582,10.6633,0.0000,-0.0821,0.1200,1.6200,0.6400,0.0000,0.3510,0.3061,0.0021,996,1502,1527,1502,2008,1000,1505,1000,1000,1002,1005,1000,1017,0.0468,-0.0200,0.0578,0.0019,-0.0118,1.0036,0.0469,-0.6591,-0.0428,0.6550,0.8627,0.2400,0.1321,0.8627,0.2400,0.1321,0.3000,0.0600,0.0002,0,-4.9181,-257.7372,-0.4808,-4.9181,-257.7372,-0.4808,-32.9285,-34.4117,0.0200,0.2700,0.0000,0.0000,0.0000,0.0000,0.0000,0.0000
-33.5798,-33.8340,10.6448,0.0000,-0.0821,0.1200,1.6200,0.6400,0.0000,0.3508,0.3058,0.0023,996,1502,1527,1502,2008,1000,1505,1000,1000,1002,1005,1000,1018,-0.0203,0.0734,-0.0205,0.0001,-0.0146,1.0013,0.0473,-0.6588,-0.0427,0.6542,0.8627,0.2400,0.1321,0.8627,0.2400,0.1321,0.3000,0.0600,0.0002,0,-4.9329,-258.5058,-0.4823,-4.9329,-258.5058,-0.4823,-32.8949,-34.3874,0.0200,0.2700,0.0000,0.0000,0.0000,0.0000,0.0000,0.0000
-33.5463,-33.8101,10.6261,0.0000,-0.0821,0.1200,1.6200,0.6400,0.0000,0.3504,0.3057,0.0023,996,1502,1527,1502,2008,1000,1505,1000,1000,1002,1005,1000,1018,0.0050,-0.0461,-0.0166,0.0032,-0.0116,1.0038,0.0470,-0.6584,-0.0425,0.6539,0.8627,0.2400,0.1321,0.8627,0.2400,0.1321,0.3000,0.0600,0.0002,0,-4.9329,-258.5058,-0.4823,-4.9329,-258.5058,-0.4823,-32.8614,-34.3631,0.0200,0.2700,0.0000,0.0000,0.0000,0.0000,0.0000,0.0000
-33.5135,-33.7863,10.6079,0.0000,-0.0821,0.1800,1.6200,0.9600,0.0000,0.3508,0.3054,0.0020,996,1502,1527,1502,2008,1000,1505,1000,1000,1002,1005,1000,1017,-0.0848,0.0079,0.0750,0.0010,-0.0161,1.0031,0.0474,-0.6583,-0.0433,0.6542,0.8627,0.2400,0.1321,0.8627,0.2400,0.1321,0.3000,0.0600,0.0002,0,-4.9181,-257.7372,-0.4808,-4.9181,-257.7372,-0.4808,-32.8277,-34.3389,0.0300,0.2700,0.0000,0.0000,0.0000,0.0000,0.0000,0.0000
-33.4806,-33.7619,10.5898,0.0000,-0.0821,0.1200,1.6200,0.6400,0.0000,0.3499,0.3052,0.0021,996,1502,1527,1502,2008,1000,1505,1000,1000,1002,1005,1000,1017,-0.0187,0.0129,0.0219,-0.0000,-0.0128,1.0033,0.0468,-0.6573,-0.0425,0.6530,0.8627,0.2400,0.1321,0.8627,0.2400,0.1321,0.3000,0.0600,0.0002,0,-4.9181,-257.7372,-0.4808,-4.9181,-257.7372,-0.4808,-32.7944,-34.3145,0.0200,0.2700,0.0000,0.0000,0.0000,0.0000,0.0000,0.0000
-33.4473,-33.7381,10.5717,0.0000,-0.0000,0.1200,1.6200,0.6400,0.0000,0.3496,0.3051,0.0023,996,1502,1527,1502,2008,1000,1505,1000,1000,1002,1005,1000,1017,0.0216,-0.0243,-0.0082,0.0024,-0.0103,1.0025,0.0468,-0.6569,-0.0422,0.6524,0.8627,0.2400,0.1321,0.8627,0.2400,0.1321,0.3000,0.0600,0.0002,0,-4.9181,-257.7372,-0.4808,-4.9181,-257.7372,-0.4808,-32.7609,-34.2901,0.0200,0.2700,0.0000,0.0000,0.0000,0.0000,0.0000,0.0000
-33.4136,-33.7139,10.5534,-0.0829,-0.1642,0.1200,1.6200,0.6400,0.0000,0.3493,0.3048,0.0021,996,1502,1527,1502,2008,1000,1505,1000,1000,1002,1005,1000,1018,0.0108,0.0366,0.0504,0.0031,-0.0127,1.0016,0.0466,-0.6562,-0.0424,0.6519,0.8627,0.2400,0.1321,0.8627,0.2400,0.1321,0.3000,0.0600,0.0002,0,-4.9329,-258.5058,-0.4823,-4.9329,-258.5058,-0.4823,-32.7273,-34.2659,0.0200,0.2700,0.0000,0.0000,0.0000,0.0000,0.0000,0.0000
-33.3802,-33.6896,10.5346,0.0000,-0.0821,0.1200,1.6200,0.6400,0.0000,0.3491,0.3046,0.0024,996,1502,1527,1502,2008,1000,1505,1000,1000,1002,1005,1000,1018,-0.0413,0.0033,-0.0432,0.0027,-0.0142,0.9995,0.0468,-0.6561,-0.0421,0.6513,0.8627,0.2400,0.1321,0.8627,0.2400,0.1321,0.3000,0.0600,0.0002,0,-4.9329,-258.5058,-0.4823,-4.9329,-258.5058,-0.4823,-32.6939,-34.2415,0.0200,0.2700,0.0000,0.0000,0.0000,0.0000,0.0000,0.0000
-33.3471,-33.6656,10.5161,-0.1657,-0.1642,0.1200,1.6200,0.6400,0.0000,0.3487,0.3044,0.0023,996,1502,1527,1502,2008,1000,1505,1000,1000,1002,1005,1000,1017,0.0053,0.0005,-0.0183,0.0006,-0.0153,0.9997,0.0466,-0.6554,-0.0420,0.6508,0.8627,0.2400,0.1321,0.8627,0.2400,0.1321,0.3000,0.0600,0.0002,0,-4.9181,-257.7372,-0.4808,-4.9181,-257.7372,-0.4808,-32.6605,-34.2175,0.0200,0.2700,0.0000,0.0000,0.0000,0.0000,0.0000,0.0000
-33.3140,-33.6420,10.4982,-0.0829,-0.0821,0.1800,1.6200,0.9600,0.0000,0.3490,0.3043,0.0021,996,1502,1527,1502,2008,1000,1505,1000,1000,1002,1005,1000,1017,-0.0634,-0.0860,0.0498,-0.0007,-0.0138,1.0023,0.0468,-0.6554,-0.0426,0.6513,0.8627,0.2400,0.1321,0.8627,0.2400,0.1321,0.3000,0.0600,0.0002,0,-4.9181,-257.7372,-0.4808,-4.9181,-257.7372,-0.4808,-32.6275,-34.1934,0.0300,0.2700,0.0000,0.0000,0.0000,0.0000,0.0000,0.0000
-33.2819,-33.6180,10.4809,-0.1657,-0.0000,0.1200,1.6200,0.6400,0.0000,0.3482,0.3041,0.0020,996,1502,1527,1502,2008,1000,1505,1000,1000,1002,1005,1000,1017,-0.0000,-0.0668,0.0820,0.0008,-0.0133,0.9997,0.0461,-0.6543,-0.0420,0.6502,0.8627,0.2400,0.1321,0.8627,0.2400,0.1321,0.3000,0.0600,0.0002,0,-4.9181,-257.7372,-0.4808,-4.9181,-257.7372,-0.4808,-32.5947,-34.1688,0.0200,0.2700,0.0000,0.0000,0.0000,0.0000,0.0000,0.0000
-33.2484,-33.5939,10.4630,-0.0829,-0.0821,0.1200,1.6200,0.6400,0.0000,0.3479,0.3038,0.0023,996,1502,1527,1502,2008,1000,1505,1000,1000,1002,1005,1000,1017,-0.0066,-0.0061,-0.0110,0.0020,-0.0104,1.0044,0.0464,-0.6540,-0.0418,0.6494,0.8627,0.2400,0.1321,0.8627,0.2400,0.1321,0.3000,0.0600,0.0002,0,-4.9181,-257.7372,-0.4808,-4.9181,-257.7372,-0.4808,-32.5611,-34.1438,0.0200,0.2700,0.0000,0.0000,0.0000,0.0000,0.0000,0.0000
-33.2149,-33.5701,10.4443,0.0000,-0.1642,0.1200,1.6200,0.6400,0.0000,0.3476,0.3036,0.0023,996,1502,1527,1502,2008,1000,1505,1000,1000,1002,1005,1000,1017,-0.0197,-0.0099,-0.0283,0.0032,-0.0157,1.0003,0.0464,-0.6536,-0.0417,0.6489,0.8627,0.2400,0.1321,0.8627,0.2400,0.1321,0.3000,0.0600,0.0002,0,-4.9181,-257.7372,-0.4808,-4.9181,-257.7372,-0.4808,-32.5279,-34.1192,0.0200,0.2700,0.0000,0.0000,0.0000,0.0000,0.0000,0.0000
-33.1818,-33.5461,10.4260,0.0000,-0.0821,0.1200,1.6200,0.6400,0.0000,0.3473,0.3033,0.0022,996,1502,1527,1502,2008,1000,1505,1000,1000,1002,1005,1000,1018,-0.0094,0.0393,0.0215,0.0019,-0.0105,0.9998,0.0462,-0.6528,-0.0418,0.6484,0.8627,0.2400,0.1321,0.8627,0.2400,0.1321,0.3000,0.0600,0.0002,0,-4.9329,-258.5058,-0.4823,-4.9329,-258.5058,-0.4823,-32.4940,-34.0944,0.0200,0.2700,0.0000,0.0000,0.0000,0.0000,0.0000,0.0000
-33.1483,-33.5216,10.4077,0.0000,-0.0000,0.1200,1.6200,0.6400,0.0000,0.3470,0.3032,0.0023,996,1502,1527,1502,2008,1000,1505,1000,1000,1002,1005,1000,1018,0.0258,-0.0093,-0.0102,0.0017,-0.0142,0.9997,0.0461,-0.6525,-0.0415,0.6478,0.8627,0.2400,0.1321,0.8627,0.2400,0.1321,0.3000,0.0600,0.0002,0,-4.9329,-258.5058,-0.4823,-4.9329,-258.5058,-0.4823,-32.4598,-34.0702,0.0200,0.2700,0.0000,0.0000,0.0000,0.0000,0.0000,0.0000
-33.1149,-33.4979,10.3894,0.0000,-0.0821,0.1800,1.6200,0.9600,0.0000,0.3472,0.3029,0.0022,996,1502,1527,1502,2008,1000,1505,1000,1000,1002,1005,1000,1017,0.0447,0.0151,0.0149,0.0049,-0.0136,0.9996,0.0465,-0.6524,-0.0420,0.6479,0.8627,0.2400,0.1321,0.8627,0.2400,0.1321,0.3000,0.0600,0.0002,0,-4.9181,-257.7372,-0.4808,-4.9181,-257.7372,-0.4808,-32.4256,-34.0455,0.0300,0.2700,0.0000,0.0000,0.0000,0.0000,0.0000,0.0000
-33.0814,-33.4736,10.3715,0.0000,-0.0000,0.1200,1.6200,0.6400,0.0000,0.3464,0.3028,0.0022,996,1502,1527,1502,2008,1000,1505,1000,1000,1002,1005,1000,1017,0.0011,-0.0451,0.0261,0.0039,-0.0130,1.0020,0.0458,-0.6514,-0.0414,0.6470,0.8627,0.2400,0.1321,0.8627,0.2400,0.1321,0.3000,0.0600,0.0002,0,-4.9181,-257.7372,-0.4808,-4.9181,-257.7372,-0.4808,-32.3921,-34.0208,0.0200,0.2700,0.0000,0.0000,0.0000,0.0000,0.0000,0.0000
-33.0488,-33.4496,10.3536,-0.0829,-0.0821,0.1200,1.6200,0.6400,0.0000,0.3462,0.3026,0.0022,996,1502,1527,1502,2008,1000,1505,1000,1000,1002,1005,1000,1017,-0.0406,-0.0250,0.0220,-0.0001,-0.0143,0.9969,0.0458,-0.6510,-0.0414,0.6466,0.8627,0.2400,0.1321,0.8627,0.2400,0.1321,0.3000,0.0600,0.0002,0,-4.9181,-257.7372,-0.4808,-4.9181,-257.7372,-0.4808,-32.3587,-33.9958,0.0200,0.2700,0.0000,0.0000,0.0000,0.0000,0.0000,0.0000
-33.0157,-33.4252,10.3351,0.0000,-0.0821,0.1200,1.6200,0.6400,0.0000,0.3459,0.3024,0.0023,996,1502,1527,1502,2008,1000,1505,1000,1000,1002,1005,1000,1017,0.0002,-0.0149,-0.0374,0.0022,-0.0115,1.0045,0.0459,-0.6506,-0.0412,0.6459,0.8627,0.2400,0.1321,0.8627,0.2400,0.1321,0.3000,0.0600,0.0002,0,-4.9181,-257.7372,-0.4808,-4.9181,-257.7372,-0.4808,-32.3256,-33.9717,0.0200,0.2700,0.0000,0.0000,0.0000,0.0000,0.0000,0.0000
-32.9823,-33.4009,10.3168,-0.0829,-0.0000,0.1200,1.6200,0.6400,0.0000,0.3455,0.3021,0.0023,996,1502,1527,1502,2008,1000,1505,1000,1000,1002,1005,1000,1017,0.0290,0.0490,0.0110,-0.0027,-0.0175,1.0005,0.0458,-0.6499,-0.0412,0.6453,0.8627,0.2400,0.1321,0.8627,0.2400,0.1321,0.3000,0.0600,0.0002,0,-4.9181,-257.7372,-0.4808,-4.9181,-257.7372,-0.4808,-32.2926,-33.9472,0.0200,0.2700,0.0000,0.0000,0.0000,0.0000,0.0000,0.0000
-32.9492,-33.3761,10.2986,-0.0829,-0.0821,0.1200,1.6200,0.6400,0.0000,0.3453,0.3019,0.0022,996,1502,1527,1502,2008,1000,1505,1000,1000,1002,1005,1000,1018,-0.0333,0.0264,0.0266,0.0025,-0.0148,1.0005,0.0457,-0.6494,-0.0412,0.6450,0.8627,0.2400,0.1321,0.8627,0.2400,0.1321,0.3000,0.0600,0.0002,0,-4.9329,-258.5058,-0.4823,-4.9329,-258.5058,-0.4823,-32.2587,-33.9228,0.0200,0.2700,0.0000,0.0000,0.0000,0.0000,0.0000,0.0000
-32.9165,-33.3520,10.2807,0.0829,-0.0000,0.1800,1.6200,0.9600,0.0000,0.3456,0.3017,0.0022,996,1502,1527,1502,2008,1000,1505,1000,1000,1002,1005,1000,1017,-0.0202,-0.0269,0.0323,0.0031,-0.0155,1.0052,0.0461,-0.6495,-0.0416,0.6450,0.8627,0.2400,0.1321,0.8627,0.2400,0.1321,0.3000,0.0600,0.0002,0,-4.9181,-257.7372,-0.4808,-4.9181,-257.7372,-0.4808,-32.2248,-33.8984,0.0300,0.2700,0.0000,0.0000,0.0000,0.0000,0.0000,0.0000
-32.8834,-33.3276,10.2628,0.0000,-0.0821,0.1200,1.6200,0.6400,0.0000,0.3447,0.3015,0.0022,996,1502,1527,1502,2008,1000,1505,1000,1000,1002,1005,1000,1017,0.0198,-0.0024,0.0316,-0.0008,-0.0133,1.0031,0.0454,-0.6484,-0.0410,0.6440,0.8627,0.2400,0.1321,0.8627,0.2400,0.1321,0.3000,0.0600,0.0002,0,-4.9181,-257.7372,-0.4808,-4.9181,-257.7372,-0.4808,-32.1918,-33.8739,0.0200,0.2700,0.0000,0.0000,0.0000,0.0000,0.0000,0.0000
-32.8503,-33.3028,10.2448,0.0000,-0.0821,0.1200,1.6200,0.6400,0.0000,0.3444,0.3013,0.0022,996,1502,1527,1502,2008,1000,1505,1000,1000,1002,1005,1000,1017,-0.0007,0.0115,0.0343,0.0047,-0.0142,1.0044,0.0454,-0.6479,-0.0409,0.6435,0.8627,0.2400,0.1321,0.8627,0.2400,0.1321,0.3000,0.0600,0.0002,0,-4.9181,-257.7372,-0.4808,-4.9181,-257.7372,-0.4808,-32.1587,-33.8489,0.0200,0.2700,0.0000,0.0000,0.0000,0.0000,0.0000,0.0000
-32.8174,-33.2783,10.2265,0.0000,-0.0821,0.1200,1.6200,0.6400,0.0000,0.3442,0.3010,0.0023,996,1502,1527,1502,2008,1000,1505,1000,1000,1002,1005,1000,1017,-0.0592,0.0315,0.0099,0.0015,-0.0127,1.0061,0.0455,-0.6476,-0.0409,0.6429,0.8627,0.2400,0.1321,0.8627,0.2400,0.1321,0.3000,0.0600,0.0002,0,-4.9181,-257.7372,-0.4808,-4.9181,-257.7372,-0.4808,-32.1252,-33.8243,0.0200,0.2700,0.0000,0.0000,0.0000,0.0000,0.0000,0.0000
-32.7845,-33.2537,10.2086,-0.1657,-0.1642,0.1200,1.6200,0.6400,0.0000,0.3438,0.3009,0.0021,996,1502,1527,1502,2008,1000,1505,1000,1000,1002,1005,1000,1018,0.0154,-0.0224,0.0608,0.0013,-0.0147,0.9971,0.0451,-0.6468,-0.0408,0.6426,0.8627,0.2400,0.1321,0.8627,0.2400,0.1321,0.3000,0.0600,0.0002,0,-4.9329,-258.5058,-0.4823,-4.9329,-258.5058,-0.4823,-32.0919,-33.8001,0.0200,0.2700,0.0000,0.0000,0.0000,0.0000,0.0000,0.0000
-32.7515,-33.2291,10.1906,0.0000,-0.0821,0.1200,1.6200,0.6400,0.0000,0.3436,0.3006,0.0023,996,1502,1527,1502,2008,1000,1505,1000,1000,1002,1005,1000,1018,-0.0344,0.0459,-0.0097,0.0059,-0.0108,1.0041,0.0454,-0.6466,-0.0407,0.6419,0.8627,0.2400,0.1321,0.8627,0.2400,0.1321,0.3000,0.0600,0.0002,0,-4.9329,-258.5058,-0.4823,-4.9329,-258.5058,-0.4823,-32.0584,-33.7757,0.0200,0.2700,0.0000,0.0000,0.0000,0.0000,0.0000,0.0000
-32.7185,-33.2050,10.1723,-0.0829,-0.1642,0.1800,1.6200,0.9600,0.0000,0.3439,0.3004,0.0025,996,1502,1527,1502,2008,1000,1505,1000,1000,1002,1005,1000,1017,-0.0323,0.0090,-0.0515,0.0020,-0.0157,1.0002,0.0460,-0.6468,-0.0409,0.6418,0.8627,0.2400,0.1321,0.8627,0.2400,0.1321,0.3000,0.0600,0.0002,0,-4.9181,-257.7372,-0.4808,-4.9181,-257.7372,-0.4808,-32.0249,-33.7510,0.0300,0.2700,0.0000,0.0000,0.0000,0.0000,0.0000,0.0000
-32.6852,-33.1808,10.1537,0.0000,-0.0821,0.1200,1.6200,0.6400,0.0000,0.3431,0.3002,0.0025,996,1502,1527,1502,2008,1000,1505,1000,1000,1002,1005,1000,1017,-0.0385,0.0012,-0.0466,0.0053,-0.0161,1.0027,0.0453,-0.6458,-0.0403,0.6408,0.8627,0.2400,0.1321,0.8627,0.2400,0.1321,0.3000,0.0600,0.0002,0,-4.9181,-257.7372,-0.4808,-4.9181,-257.7372,-0.4808,-31.9914,-33.7267,0.0200,0.2700,0.0000,0.0000,0.0000,0.0000,0.0000,0.0000
-32.6522,-33.1564,10.1351,0.0000,-0.2462,0.1200,1.6200,0.6400,0.0000,0.3427,0.3000,0.0025,996,1502,1527,1502,2008,1000,1505,1000,1000,1002,1005,1000,1017,-0.0005,0.0364,-0.0397,0.0013,-0.0152,1.0057,0.0452,-0.6451,-0.0403,0.6402,0.8627,0.2400,0.1321,0.8627,0.2400,0.1321,0.3000,0.0600,0.0002,0,-4.9181,-257.7372,-0.4808,-4.9181,-257.7372,-0.4808,-31.9581,-33.7017,0.0200,0.2700,0.0000,0.0000,0.0000,0.0000,0.0000,0.0000
-32.6183,-33.1320,10.1163,-0.0829,-0.0000,0.1200,1.6200,0.6400,0.0000,0.3424,0.2998,0.0023,996,1502,1527,1502,2008,1000,1505,1000,1000,1002,1005,1000,1017,-0.0074,0.0216,0.0024,0.0028,-0.0128,1.0000,0.0450,-0.6445,-0.0404,0.6399,0.8627,0.2400,0.1321,0.8627,0.2400,0.1321,0.3000,0.0600,0.0002,0,-4.9181,-257.7372,-0.4808,-4.9181,-257.7372,-0.4808,-31.9251,-33.6766,0.0200,0.2700,0.0000,0.0000,0.0000,0.0000,0.0000,0.0000
-32.5846,-33.1075,10.0979,0.0829,-0.1642,0.1200,1.6200,0.6400,0.0000,0.3421,0.2996,0.0023,996,1502,1527,1502,2008,1000,1505,1000,1000,1002,1005,1000,1017,0.0273,-0.0198,0.0099,0.0054,-0.0146,1.0010,0.0448,-0.6440,-0.0402,0.6394,0.8627,0.2400,0.1321,0.8627,0.2400,0.1321,0.3000,0.0600,0.0002,0,-4.9181,-257.7372,-0.4808,-4.9181,-257.7372,-0.4808,-31.8923,-33.6517,0.0200,0.2700,0.0000,0.0000,0.0000,0.0000,0.0000,0.0000
-32.5512,-33.0830,10.0794,-0.0829,-0.0000,0.1200,1.6200,0.6400,0.0000,0.3419,0.2993,0.0025,996,1502,1527,1502,2008,1000,1505,1000,1000,1002,1005,1000,1018,-0.0156,0.0454,-0.0372,0.0044,-0.0146,1.0035,0.0450,-0.6437,-0.0401,0.6387,0.8627,0.2400,0.1321,0.8627,0.2400,0.1321,0.3000,0.0600,0.0002,0,-4.9329,-258.5058,-0.4823,-4.9329,-258.5058,-0.4823,-31.8594,-33.6267,0.0200,0.2700,0.0000,0.0000,0.0000,0.0000,0.0000,0.0000
-32.5176,-33.0581,10.0606,-0.0829,-0.0821,0.1800,1.6200,0.9600,0.0000,0.3421,0.2991,0.0023,996,1502,1527,1502,2008,1000,1505,1000,1000,1002,1005,1000,1017,-0.0365,0.0698,0.0237,0.0004,-0.0114,1.0008,0.0453,-0.6435,-0.0408,0.6389,0.8627,0.2400,0.1321,0.8627,0.2400,0.1321,0.3000,0.0600,0.0002,0,-4.9181,-257.7372,-0.4808,-4.9181,-257.7372,-0.4808,-31.8268,-33.6016,0.0300,0.2700,0.0000,0.0000,0.0000,0.0000,0.0000,0.0000
-32.4846,-33.0332,10.0424,-0.0829,-0.0821,0.1200,1.6200,0.6400,0.0000,0.3413,0.2990,0.0024,996,1502,1527,1502,2008,1000,1505,1000,1000,1002,1005,1000,1017,-0.0098,-0.0015,-0.0163,0.0036,-0.0143,1.0050,0.0448,-0.6427,-0.0399,0.6378,0.8627,0.2400,0.1321,0.8627,0.2400,0.1321,0.3000,0.0600,0.0002,0,-4.9181,-257.7372,-0.4808,-4.9181,-257.7372,-0.4808,-31.7939,-33.5771,0.0200,0.2700,0.0000,0.0000,0.0000,0.0000,0.0000,0.0000
-32.4517,-33.0092,10.0245,0.0000,-0.0821,0.1200,1.6200,0.6400,0.0000,0.3410,0.2988,0.0024,996,1502,1527,1502,2008,1000,1505,1000,1000,1002,1005,1000,1017,-0.0008,-0.0270,-0.0046,-0.0002,-0.0130,0.9989,0.0446,-0.6422,-0.0398,0.6374,0.8627,0.2400,0.1321,0.8627,0.2400,0.1321,0.3000,0.0600,0.0002,0,-4.9181,-257.7372,-0.4808,-4.9181,-257.7372,-0.4808,-31.7605,-33.5523,0.0200,0.2700,0.0000,0.0000,0.0000,0.0000,0.0000,0.0000
-32.4186,-32.9845,10.0066,0.0000,-0.0000,0.1200,1.6200,0.6400,0.0000,0.3407,0.2985,0.0022,996,1502,1527,1502,2008,1000,1505,1000,1000,1002,1005,1000,1017,0.0049,0.0388,0.0404,0.0038,-0.0143,1.0005,0.0445,-0.6414,-0.0400,0.6369,0.8627,0.2400,0.1321,0.8627,0.2400,0.1321,0.3000,0.0600,0.0002,0,-4.9181,-257.7372,-0.4808,-4.9181,-257.7372,-0.4808,-31.7271,-33.5271,0.0200,0.2700,0.0000,0.0000,0.0000,0.0000,0.0000,0.0000
-32.3852,-32.9602,9.9890,0.0000,-0.0821,0.1200,1.6200,0.6400,0.0000,0.3404,0.2983,0.0025,996,1502,1527,1502,2008,1000,1505,1000,1000,1002,1005,1000,1017,0.0184,-0.0033,-0.0336,0.0035,-0.0121,1.0030,0.0445,-0.6412,-0.0396,0.6363,0.8627,0.2400,0.1321,0.8627,0.2400,0.1321,0.3000,0.0600,0.0002,0,-4.9181,-257.7372,-0.4808,-4.9181,-257.7372,-0.4808,-31.6936,-33.5022,0.0200,0.2700,0.0000,0.0000,0.0000,0.0000,0.0000,0.0000
-32.3521,-32.9357,9.9709,0.0000,-0.0821,0.1200,1.6200,0.6400,0.0000,0.3402,0.2981,0.0024,996,1502,1527,1502,2008,1000,1505,1000,1000,1002,1005,1000,1017,-0.0438,-0.0226,-0.0020,-0.0002,-0.0127,1.0008,0.0444,-0.6407,-0.0397,0.6360,0.8627,0.2400,0.1321,0.8627,0.2400,0.1321,0.3000,0.0600,0.0002,0,-4.9181,-257.7372,-0.4808,-4.9181,-257.7372,-0.4808,-31.6609,-33.4780,0.0200,0.2700,0.0000,0.0000,0.0000,0.0000,0.0000,0.0000
-32.3196,-32.9112,9.9535,0.0000,-0.0821,0.1800,1.6200,0.9600,0.0000,0.3404,0.2979,0.0021,996,1502,1527,1502,2008,1000,1505,1000,1000,1002,1005,1000,1018,-0.0504,0.0360,0.0705,0.0027,-0.0119,0.9982,0.0447,-0.6404,-0.0405,0.6362,0.8627,0.2400,0.1321,0.8627,0.2400,0.1321,0.3000,0.0600,0.0002,0,-4.9329,-258.5058,-0.4823,-4.9329,-258.5058,-0.4823,-31.6278,-33.4537,0.0300,0.2700,0.0000,0.0000,0.0000,0.0000,0.0000,0.0000
-32.2870,-32.8859,9.9361,0.0829,-0.0000,0.1200,1.6200,0.6400,0.0000,0.3396,0.2977,0.0023,996,1502,1527,1502,2008,1000,1505,1000,1000,1001,1005,1000,1017,-0.0239,-0.0092,0.0499,0.0016,-0.0168,1.0024,0.0442,-0.6396,-0.0396,0.6350,0.8627,0.2400,0.1321,0.8627,0.2400,0.1321,0.3000,0.0600,0.0002,0,-4.8984,-257.7372,-0.4808,-4.8984,-257.7372,-0.4808,-31.5946,-33.4287,0.0200,0.2700,0.0000,0.0000,0.0000,0.0000,0.0000,0.0000
-32.2547,-32.8615,9.9188,0.0000,-0.0000,0.1200,1.6200,0.6400,0.0000,0.3393,0.2975,0.0022,996,1502,1527,1502,2008,1000,1505,1000,1000,1001,1005,1000,1017,-0.0349,-0.0091,0.0722,-0.0018,-0.0159,1.0026,0.0440,-0.6390,-0.0397,0.6347,0.8627,0.2400,0.1321,0.8627,0.2400,0.1321,0.3000,0.0600,0.0002,0,-4.8984,-257.7372,-0.4808,-4.8984,-257.7372,-0.4808,-31.5622,-33.4039,0.0200,0.2700,0.0000,0.0000,0.0000,0.0000,0.0000,0.0000
-32.2216,-32.8367,9.9009,-0.0829,-0.0821,0.1200,1.6200,0.6400,0.0000,0.3389,0.2973,0.0024,996,1502,1527,1502,2008,1000,1505,1000,1000,1002,1005,1000,1017,0.0548,-0.0253,-0.0209,0.0037,-0.0148,1.0014,0.0441,-0.6387,-0.0392,0.6338,0.8627,0.2400,0.1321,0.8627,0.2400,0.1321,0.3000,0.0600,0.0002,0,-4.9181,-257.7372,-0.4808,-4.9181,-257.7372,-0.4808,-31.5289,-33.3792,0.0200,0.2700,0.0000,0.0000,0.0000,0.0000,0.0000,0.0000
-32.1884,-32.8117,9.8831,-0.0829,-0.0000,0.1200,1.6200,0.6400,0.0000,0.3388,0.2970,0.0020,996,1502,1527,1502,2008,1000,1505,1000,1000,1002,1005,1000,1017,-0.0880,0.0389,0.1284,0.0019,-0.0130,1.0032,0.0438,-0.6378,-0.0399,0.6338,0.8627,0.2400,0.1321,0.8627,0.2400,0.1321,0.3000,0.0600,0.0002,0,-4.9181,-257.7372,-0.4808,-4.9181,-257.7372,-0.4808,-31.4958,-33.3542,0.0200,0.2700,0.0000,0.0000,0.0000,0.0000,0.0000,0.0000
-32.1558,-32.7870,9.8659,0.0000,-0.0000,0.1200,1.6200,0.6400,0.0000,0.3385,0.2969,0.0023,996,1502,1527,1502,2008,1000,1505,1000,1000,1002,1005,1000,1017,-0.0348,-0.0793,0.0250,-0.0002,-0.0145,1.0017,0.0438,-0.6377,-0.0393,0.6331,0.8627,0.2400,0.1321,0.8627,0.2400,0.1321,0.3000,0.0600,0.0002,0,-4.9181,-257.7372,-0.4808,-4.9181,-257.7372,-0.4808,-31.4626,-33.3294,0.0200,0.2700,0.0000,0.0000,0.0000,0.0000,0.0000,0.0000
-32.1230,-32.7630,9.8488,0.0000,-0.0821,0.1800,1.6200,0.9600,0.0000,0.3387,0.2967,0.0024,996,1502,1527,1502,2008,1000,1505,1000,1000,1002,1005,1000,1017,0.0200,-0.0534,0.0101,0.0028,-0.0127,1.0008,0.0444,-0.6378,-0.0395,0.6329,0.8627,0.2400,0.1321,0.8627,0.2400,0.1321,0.3000,0.0600,0.0002,0,-4.9181,-257.7372,-0.4808,-4.9181,-257.7372,-0.4808,-31.4291,-33.3050,0.0300,0.2700,0.0000,0.0000,0.0000,0.0000,0.0000,0.0000
-32.0895,-32.7384,9.8307,-0.1657,-0.1642,0.1200,1.6200,0.6400,0.0000,0.3378,0.2964,0.0025,996,1502,1527,1502,2008,1000,1505,1000,1000,1002,1005,1000,1017,0.0241,0.0068,-0.0277,-0.0005,-0.0136,0.9992,0.0439,-0.6368,-0.0389,0.6317,0.8627,0.2400,0.1321,0.8627,0.2400,0.1321,0.3000,0.0600,0.0002,0,-4.9181,-257.7372,-0.4808,-4.9181,-257.7372,-0.4808,-31.3954,-33.2795,0.0200,0.2700,0.0000,0.0000,0.0000,0.0000,0.0000,0.0000
-32.0563,-32.7137,9.8128,0.0000,-0.0821,0.1200,1.6200,0.6400,0.0000,0.3376,0.2962,0.0023,996,1502,1527,1502,2008,1000,1505,1000,1000,1002,1005,1000,1017,-0.0005,0.0264,0.0243,0.0005,-0.0117,1.0022,0.0438,-0.6361,-0.0391,0.6314,0.8627,0.2400,0.1321,0.8627,0.2400,0.1321,0.3000,0.0600,0.0002,0,-4.9181,-257.7372,-0.4808,-4.9181,-257.7372,-0.4808,-31.3616,-33.2542,0.0200,0.2700,0.0000,0.0000,0.0000,0.0000,0.0000,0.0000
-32.0233,-32.6888,9.7951,-0.1657,-0.0821,0.1200,1.6200,0.6400,0.0000,0.3373,0.2960,0.0024,996,1502,1527,1502,2008,1000,1505,1000,1000,1002,1005,1000,1017,-0.0253,0.0197,0.0108,0.0026,-0.0145,1.0008,0.0438,-0.6357,-0.0390,0.6309,0.8627,0.2400,0.1321,0.8627,0.2400,0.1321,0.3000,0.0600,0.0002,0,-4.9181,-257.7372,-0.4808,-4.9181,-257.7372,-0.4808,-31.3284,-33.2288,0.0200,0.2700,0.0000,0.0000,0.0000,0.0000,0.0000,0.0000
-31.9899,-32.6642,9.7770,-0.0829,-0.0821,0.1200,1.6200,0.6400,0.0000,0.3370,0.2958,0.0025,996,1502,1527,1502,2008,1000,1505,1000,1000,1002,1005,1000,1017,0.0294,-0.0254,-0.0311,0.0014,-0.0138,1.0057,0.0437,-0.6353,-0.0387,0.6303,0.8627,0.2400,0.1321,0.8627,0.2400,0.1321,0.3000,0.0600,0.0002,0,-4.9181,-257.7372,-0.4808,-4.9181,-257.7372,-0.4808,-31.2949,-33.2036,0.0200,0.2700,0.0000,0.0000,0.0000,0.0000,0.0000,0.0000
-31.9563,-32.6392,9.7586,-0.0829,-0.2462,0.1200,1.6200,0.6400,0.0000,0.3366,0.2955,0.0025,996,1502,1527,1502,2008,1000,1505,1000,1000,1002,1005,1000,1017,0.0658,0.0270,-0.0321,0.0033,-0.0138,1.0049,0.0436,-0.6347,-0.0386,0.6296,0.8627,0.2400,0.1321,0.8627,0.2400,0.1321,0.3000,0.0600,0.0002,0,-4.9181,-257.7372,-0.4808,-4.9181,-257.7372,-0.4808,-31.2615,-33.1786,0.0200,0.2700,0.0000,0.0000,0.0000,0.0000,0.0000,0.0000
-31.9229,-32.6144,9.7404,0.0829,-0.0821,0.1800,1.6200,0.9600,0.0000,0.3370,0.2953,0.0024,996,1502,1527,1502,2008,1000,1505,1000,1000,1002,1005,1000,1017,-0.0102,0.0126,0.0027,-0.0002,-0.0122,1.0017,0.0441,-0.6347,-0.0392,0.6299,0.8627,0.2400,0.1321,0.8627,0.2400,0.1321,0.3000,0.0600,0.0002,0,-4.9181,-257.7372,-0.4808,-4.9181,-257.7372,-0.4808,-31.2282,-33.1537,0.0300,0.2700,0.0000,0.0000,0.0000,0.0000,0.0000,0.0000
-31.8897,-32.5894,9.7224,-0.0829,-0.0000,0.1200,1.6200,0.6400,0.0000,0.3362,0.2951,0.0023,996,1502,1527,1502,2008,1000,1505,1000,1000,1001,1005,1000,1018,-0.0029,0.0049,0.0291,0.0008,-0.0131,1.0009,0.0434,-0.6336,-0.0387,0.6289,0.8627,0.2400,0.1321,0.8627,0.2400,0.1321,0.3000,0.0600,0.0002,0,-4.9132,-258.5058,-0.4823,-4.9132,-258.5058,-0.4823,-31.1944,-33.1290,0.0200,0.2700,0.0000,0.0000,0.0000,0.0000,0.0000,0.0000
-31.8568,-32.5646,9.7045,0.0000,-0.0821,0.1200,1.6200,0.6400,0.0000,0.3359,0.2949,0.0024,996,1502,1527,1502,2008,1000,1505,1000,1000,1001,1005,1000,1018,0.0089,-0.0265,-0.0101,0.0011,-0.0147,0.9976,0.0433,-0.6332,-0.0385,0.6284,0.8627,0.2400,0.1321,0.8627,0.2400,0.1321,0.3000,0.0600,0.0002,0,-4.9132,-258.5058,-0.4823,-4.9132,-258.5058,-0.4823,-31.1611,-33.1041,0.0200,0.2700,0.0000,0.0000,0.0000,0.0000,0.0000,0.0000
-31.8237,-32.5400,9.6869,-0.0829,-0.0000,0.1200,1.6200,0.6400,0.0000,0.3356,0.2948,0.0024,996,1502,1527,1502,2008,1000,1505,1000,1000,1002,1005,1000,1018,-0.0386,-0.0594,0.0207,-0.0017,-0.0123,1.0017,0.0432,-0.6328,-0.0385,0.6280,0.8627,0.2400,0.1321,0.8627,0.2400,0.1321,0.3000,0.0600,0.0002,0,-4.9329,-258.5058,-0.4823,-4.9329,-258.5058,-0.4823,-31.1281,-33.0790,0.0200,0.2700,0.0000,0.0000,0.0000,0.0000,0.0000,0.0000
-31.7911,-32.5155,9.6694,0.0000,-0.0000,0.1200,1.6200,0.6400,0.0000,0.3353,0.2945,0.0024,996,1502,1527,1502,2008,1000,1505,1000,1000,1002,1005,1000,1018,-0.0318,-0.0422,0.0023,0.0007,-0.0133,1.0010,0.0432,-0.6323,-0.0384,0.6275,0.8627,0.2400,0.1321,0.8627,0.2400,0.1321,0.3000,0.0600,0.0002,0,-4.9329,-258.5058,-0.4823,-4.9329,-258.5058,-0.4823,-31.0956,-33.0539,0.0200,0.2700,0.0000,0.0000,0.0000,0.0000,0.0000,0.0000
-31.7582,-32.4909,9.6523,-0.0829,-0.1642,0.1200,1.6200,0.6400,0.0000,0.3350,0.2943,0.0024,996,1502,1527,1502,2008,1000,1505,1000,1000,1002,1005,1000,1017,0.0126,-0.0209,0.0301,0.0035,-0.0102,1.0031,0.0431,-0.6317,-0.0383,0.6269,0.8627,0.2400,0.1321,0.8627,0.2400,0.1321,0.3000,0.0600,0.0002,0,-4.9181,-257.7372,-0.4808,-4.9181,-257.7372,-0.4808,-31.0621,-33.0281,0.0200,0.2700,0.0000,0.0000,0.0000,0.0000,0.0000,0.0000
-31.7253,-32.4657,9.6350,-0.0829,0.0821,0.1800,1.6200,0.9600,0.0000,0.3352,0.2941,0.0022,996,1502,1527,1502,2008,1000,1505,1000,1000,1002,1005,1000,1017,0.0224,-0.0046,0.0763,0.0010,-0.0147,1.0005,0.0434,-0.6315,-0.0390,0.6271,0.8627,0.2400,0.1321,0.8627,0.2400,0.1321,0.3000,0.0600,0.0002,0,-4.9181,-257.7372,-0.4808,-4.9181,-257.7372,-0.4808,-31.0297,-33.0030,0.0300,0.2700,0.0000,0.0000,0.0000,0.0000,0.0000,0.0000
-31.6926,-32.4405,9.6182,0.0000,-0.0000,0.1200,1.6200,0.6400,0.0000,0.3345,0.2940,0.0024,996,1502,1527,1502,2008,1000,1505,1000,1000,1002,1005,1000,1017,-0.0674,-0.1211,0.0171,0.0045,-0.0149,0.9999,0.0430,-0.6310,-0.0381,0.6261,0.8627,0.2400,0.1321,0.8627,0.2400,0.1321,0.3000,0.0600,0.0002,0,-4.9181,-257.7372,-0.4808,-4.9181,-257.7372,-0.4808,-31.0028,-32.9804,0.0200,0.2700,0.0000,0.0000,0.0000,0.0000,0.0000,0.0000
-31.6656,-32.4179,9.6022,0.0000,-0.0821,0.1200,1.6200,0.6400,0.0000,0.3353,0.2939,0.0022,996,1502,1527,1502,2008,1000,1505,1000,1000,1002,1005,1000,1018,-0.7883,-0.1762,0.0936,-0.0386,0.0196,0.9914,0.0435,-0.6313,-0.0392,0.6270,0.8627,0.2400,0.1321,0.8627,0.2400,0.1321,0.3000,0.0600,0.0002,0,-4.9329,-258.5058,-0.4823,-4.9329,-258.5058,-0.4823,-31.0205,-32.9780,0.0200,0.2700,0.0000,0.0000,0.0000,0.0000,0.0000,0.0000
-31.6357,-32.3939,9.5868,-0.0829,-0.0821,0.1200,1.6200,0.6400,0.0000,0.3340,0.2935,0.0024,996,1502,1527,1502,2008,1000,1505,1000,1000,1002,1005,1000,1018,-0.0314,-0.0457,0.0361,0.0201,-0.0327,1.0164,0.0429,-0.6299,-0.0381,0.6251,0.8627,0.2400,0.1321,0.8627,0.2400,0.1321,0.3000,0.0600,0.0002,0,-4.9329,-258.5058,-0.4823,-4.9329,-258.5058,-0.4823,-31.0149,-32.9621,0.0200,0.2700,0.0000,0.0000,0.0000,0.0000,0.0000,0.0000
-31.6116,-32.3700,9.5713,-0.1657,-0.1642,0.1200,1.6200,0.6400,0.0000,0.3353,0.2940,0.0022,996,1502,1527,1502,2008,1000,1505,1000,1000,1002,1005,1000,1017,-1.1651,-0.6188,0.0922,0.0064,-0.0202,0.9883,0.0435,-0.6316,-0.0390,0.6271,0.8627,0.2400,0.1321,0.8627,0.2400,0.1321,0.3000,0.0600,0.0002,0,-4.9181,-257.7372,-0.4808,-4.9181,-257.7372,-0.4808,-31.0357,-32.9600,0.0200,0.2700,0.0000,0.0000,0.0000,0.0000,0.0000,0.0000
-31.5898,-32.3492,9.5586,-0.1657,-0.1642,0.1200,1.6200,0.6400,0.0000,0.3343,0.2935,0.0021,996,1502,1527,1502,2008,1000,1505,1000,1000,1002,1005,1000,1017,-0.5248,-0.3524,0.1383,-0.0073,-0.0158,0.9950,0.0428,-0.6299,-0.0386,0.6257,0.8627,0.2400,0.1321,0.8627,0.2400,0.1321,0.3000,0.0600,0.0002,0,-4.9181,-257.7372,-0.4808,-4.9181,-257.7372,-0.4808,-31.0729,-32.9649,0.0200,0.2700,0.0000,0.0000,0.0000,0.0000,0.0000,0.0000
-31.5682,-32.3267,9.5446,-0.2486,-0.1642,0.1800,1.6200,0.9600,0.0000,0.3356,0.2936,0.0023,996,1502,1527,1502,2008,1000,1505,1000,1000,1002,1005,1000,1017,-1.3157,-0.5325,0.0708,0.0032,-0.0124,1.0038,0.0444,-0.6315,-0.0398,0.6269,0.8627,0.2400,0.1321,0.8627,0.2400,0.1321,0.3000,0.0600,0.0002,0,-4.9181,-257.7372,-0.4808,-4.9181,-257.7372,-0.4808,-31.0943,-32.9621,0.0300,0.2700,0.0000,0.0000,0.0000,0.0000,0.0000,0.0000
-31.5537,-32.3099,9.5344,-0.2486,-0.2462,0.1200,1.6200,0.6400,0.0000,0.3348,0.2940,0.0022,996,1502,1527,1502,2008,1000,1505,1000,1000,1002,1005,1000,1017,-1.1840,-0.9563,0.1040,-0.0006,-0.0083,0.9880,0.0430,-0.6310,-0.0387,0.6266,0.8627,0.2400,0.1321,0.8627,0.2400,0.1321,0.3000,0.0600,0.0002,0,-4.9181,-257.7372,-0.4808,-4.9181,-257.7372,-0.4808,-31.1460,-32.9708,0.0200,0.2700,0.0000,0.0000,0.0000,0.0000,0.0000,0.0000
-31.5315,-32.2884,9.5213,-0.3315,-0.2462,0.1200,1.6200,0.6400,0.0000,0.3342,0.2929,0.0018,996,1502,1527,1502,2008,1000,1505,1000,1000,1002,1005,1000,1017,-0.8522,-0.2873,0.2192,0.0118,-0.0175,1.0259,0.0431,-0.6289,-0.0395,0.6253,0.8627,0.2400,0.1321,0.8627,0.2400,0.1321,0.3000,0.0600,0.0002,0,-4.9181,-257.7372,-0.4808,-4.9181,-257.7372,-0.4808,-31.1651,-32.9598,0.0200,0.2700,0.0000,0.0000,0.0000,0.0000,0.0000,0.0000
-31.5129,-32.2682,9.5099,-0.2486,-0.2462,0.1200,1.6200,0.6400,0.0000,0.3337,0.2931,0.0019,996,1502,1527,1502,2008,1000,1505,1000,1000,1002,1005,1000,1017,-0.6364,-0.5975,0.2023,0.0028,-0.0133,0.9762,0.0425,-0.6288,-0.0387,0.6250,0.8627,0.2400,0.1321,0.8627,0.2400,0.1321,0.3000,0.0600,0.0002,0,-4.9181,-257.7372,-0.4808,-4.9181,-257.7372,-0.4808,-31.1900,-32.9542,0.0200,0.2700,0.0000,0.0000,0.0000,0.0000,0.0000,0.0000
-31.4835,-32.2432,9.4965,-0.3315,-0.3283,0.1200,1.6200,0.6400,0.0000,0.3330,0.2923,0.0016,996,1502,1527,1502,2008,1000,1505,1000,1000,1002,1005,1000,1017,-0.2331,-0.0975,0.3146,0.0005,-0.0055,1.0130,0.0422,-0.6268,-0.0391,0.6237,0.8627,0.2400,0.1321,0.8627,0.2400,0.1321,0.3000,0.0600,0.0002,0,-4.9181,-257.7372,-0.4808,-4.9181,-257.7372,-0.4808,-31.1867,-32.9376,0.0200,0.2700,0.0000,0.0000,0.0000,0.0000,0.0000,0.0000
-31.4578,-32.2189,9.4834,-0.2486,-0.3283,0.1200,1.6200,0.6400,0.0000,0.3324,0.2921,0.0015,996,1502,1527,1502,2008,1000,1505,1000,1000,1002,1005,1000,1017,0.0292,-0.1578,0.3363,-0.0026,-0.0103,0.9882,0.0417,-0.6260,-0.0388,0.6231,0.8627,0.2400,0.1321,0.8627,0.2400,0.1321,0.3000,0.0600,0.0002,0,-4.9181,-257.7372,-0.4808,-4.9181,-257.7372,-0.4808,-31.1929,-32.9215,0.0200,0.2700,0.0000,0.0000,0.0000,0.0000,0.0000,0.0000
-31.4213,-32.1916,9.4698,-0.4144,-0.4104,0.1800,1.6200,0.9600,0.0000,0.3322,0.2914,0.0012,996,1502,1527,1502,2008,1000,1505,1000,1000,1002,1005,1000,1017,0.2852,0.2439,0.4214,0.0012,-0.0018,1.0133,0.0421,-0.6249,-0.0396,0.6224,0.8627,0.2400,0.1321,0.8627,0.2400,0.1321,0.3000,0.0600,0.0002,0,-4.9181,-257.7372,-0.4808,-4.9181,-257.7372,-0.4808,-31.1630,-32.8957,0.0300,0.2700,0.0000,0.0000,0.0000,0.0000,0.0000,0.0000
-31.3893,-32.1630,9.4549,-0.2486,-0.1642,0.1200,1.6200,0.6400,0.0000,0.3316,0.2912,0.0017,996,1502,1527,1502,2008,1000,1505,1000,1000,1002,1005,1000,1017,0.1589,0.1595,0.2871,0.0019,-0.0145,1.0016,0.0420,-0.6245,-0.0387,0.6212,0.8627,0.2400,0.1321,0.8627,0.2400,0.1321,0.3000,0.0600,0.0002,0,-4.9181,-257.7372,-0.4808,-4.9181,-257.7372,-0.4808,-31.1287,-32.8656,0.0200,0.2700,0.0000,0.0000,0.0000,0.0000,0.0000,0.0000
-31.3494,-32.1316,9.4375,-0.3315,-0.2462,0.1200,1.6200,0.6400,0.0000,0.3305,0.2903,0.0016,996,1502,1527,1502,2008,1000,1505,1000,1000,1002,1005,1000,1017,0.7441,0.6746,0.3053,0.0007,-0.0226,0.9992,0.0418,-0.6224,-0.0387,0.6192,0.8627,0.2400,0.1321,0.8627,0.2400,0.1321,0.3000,0.0600,0.0002,0,-4.9181,-257.7372,-0.4808,-4.9181,-257.7372,-0.4808,-31.0743,-32.8313,0.0200,0.2700,0.0000,0.0000,0.0000,0.0000,0.0000,0.0000
-31.3102,-32.0990,9.4175,-0.3315,-0.2462,0.1200,1.6200,0.6400,0.0000,0.3306,0.2900,0.0023,996,1502,1527,1502,2008,1000,1505,1000,1000,1002,1005,1000,1017,0.4359,0.7035,0.0763,0.0046,-0.0190,1.0003,0.0429,-0.6228,-0.0383,0.6182,0.8627,0.2400,0.1321,0.8627,0.2400,0.1321,0.3000,0.0600,0.0002,0,-4.9181,-257.7372,-0.4808,-4.9181,-257.7372,-0.4808,-31.0199,-32.7942,0.0200,0.2700,0.0000,0.0000,0.0000,0.0000,0.0000,0.0000
-31.2682,-32.0669,9.3953,-0.3315,-0.2462,0.1200,1.6200,0.6400,0.0000,0.3299,0.2895,0.0027,996,1502,1527,1502,2008,1000,1505,1000,1000,1002,1005,1000,1017,0.6765,0.8105,-0.0514,-0.0026,-0.0153,0.9968,0.0430,-0.6221,-0.0377,0.6168,0.8627,0.2400,0.1321,0.8627,0.2400,0.1321,0.3000,0.0600,0.0002,0,-4.9181,-257.7372,-0.4808,-4.9181,-257.7372,-0.4808,-30.9655,-32.7560,0.0200,0.2700,0.0000,0.0000,0.0000,0.0000,0.0000,0.0000
-31.2284,-32.0367,9.3722,-0.2486,-0.2462,0.1200,1.6200,0.6400,0.0000,0.3304,0.2898,0.0033,996,1502,1527,1502,2008,1000,1505,1000,1000,1002,1005,1000,1017,0.0363,0.4587,-0.2593,0.0042,-0.0100,1.0052,0.0440,-0.6235,-0.0373,0.6168,0.8627,0.2400,0.1321,0.8627,0.2400,0.1321,0.3000,0.0600,0.0002,0,-4.9181,-257.7372,-0.4808,-4.9181,-257.7372,-0.4808,-30.9153,-32.7217,0.0200,0.2700,0.0000,0.0000,0.0000,0.0000,0.0000,0.0000
-31.1917,-32.0099,9.3483,-0.3315,-0.2462,0.1800,1.6200,0.9600,0.0000,0.3305,0.2897,0.0039,996,1502,1527,1502,2008,1000,1505,1000,1000,1002,1005,1000,1017,0.0712,0.2998,-0.4546,0.0069,-0.0243,1.0019,0.0447,-0.6242,-0.0369,0.6164,0.8627,0.2400,0.1321,0.8627,0.2400,0.1321,0.3000,0.0600,0.0002,0,-4.9181,-257.7372,-0.4808,-4.9181,-257.7372,-0.4808,-30.8742,-32.6918,0.0300,0.2700,0.0000,0.0000,0.0000,0.0000,0.0000,0.0000
-31.1578,-31.9869,9.3254,-0.2486,-0.2462,0.1200,1.6200,0.6400,0.0000,0.3304,0.2901,0.0043,996,1502,1527,1502,2008,1000,1505,1000,1000,1002,1005,1000,1017,-0.4301,-0.1446,-0.5849,0.0098,-0.0218,1.0037,0.0446,-0.6248,-0.0360,0.6162,0.8627,0.2400,0.1321,0.8627,0.2400,0.1321,0.3000,0.0600,0.0002,0,-4.9181,-257.7372,-0.4808,-4.9181,-257.7372,-0.4808,-30.8415,-32.6683,0.0200,0.2700,0.0000,0.0000,0.0000,0.0000,0.0000,0.0000
-31.1246,-31.9665,9.3021,-0.3315,-0.2462,0.1200,1.6200,0.6400,0.0000,0.3298,0.2900,0.0047,996,1502,1527,1502,2008,1000,1505,1000,1000,1002,1005,1000,1017,-0.1776,-0.2067,-0.7084,0.0063,-0.0233,1.0018,0.0445,-0.6245,-0.0351,0.6151,0.8627,0.2400,0.1321,0.8627,0.2400,0.1321,0.3000,0.0600,0.0002,0,-4.9181,-257.7372,-0.4808,-4.9181,-257.7372,-0.4808,-30.8132,-32.6452,0.0200,0.2700,0.0000,0.0000,0.0000,0.0000,0.0000,0.0000
-31.0923,-31.9488,9.2806,-0.3315,-0.2462,0.1200,1.6200,0.6400,0.0000,0.3296,0.2903,0.0046,996,1502,1527,1502,2008,1000,1505,1000,1000,1002,1005,1000,1017,-0.2662,-0.5500,-0.6806,0.0013,-0.0121,1.0018,0.0439,-0.6245,-0.0347,0.6154,0.8627,0.2400,0.1321,0.8627,0.2400,0.1321,0.3000,0.0600,0.0002,0,-4.9181,-257.7372,-0.4808,-4.9181,-257.7372,-0.4808,-30.7853,-32.6277,0.0200,0.2700,0.0000,0.0000,0.0000,0.0000,0.0000,0.0000
-31.0584,-31.9303,9.2583,-0.4144,-0.3283,0.1200,1.6200,0.6400,0.0000,0.3293,0.2899,0.0044,996,1502,1527,1502,2008,1000,1505,1000,1000,1002,1005,1000,1017,-0.2313,-0.3245,-0.6072,-0.0006,-0.0074,1.0032,0.0438,-0.6235,-0.0350,0.6148,0.8627,0.2400,0.1321,0.8627,0.2400,0.1321,0.3000,0.0600,0.0002,0,-4.9181,-257.7372,-0.4808,-4.9181,-257.7372,-0.4808,-30.7552,-32.6072,0.0200,0.2700,0.0000,0.0000,0.0000,0.0000,0.0000,0.0000
-31.0257,-31.9116,9.2380,-0.2486,-0.2462,0.1200,1.6200,0.6400,0.0000,0.3287,0.2897,0.0040,996,1502,1527,1502,2008,1000,1505,1000,1000,1002,1005,1000,1017,0.0220,-0.3485,-0.4815,-0.0031,-0.0056,0.9994,0.0430,-0.6224,-0.0349,0.6144,0.8627,0.2400,0.1321,0.8627,0.2400,0.1321,0.3000,0.0600,0.0002,0,-4.9181,-257.7372,-0.4808,-4.9181,-257.7372,-0.4808,-30.7264,-32.5894,0.0200,0.2700,0.0000,0.0000,0.0000,0.0000,0.0000,0.0000
-30.9910,-31.8897,9.2175,-0.3315,-0.2462,0.1800,1.6200,0.9600,0.0000,0.3289,0.2890,0.0033,996,1502,1527,1502,2008,1000,1505,1000,1000,1002,1005,1000,1018,0.0331,0.0479,-0.2703,0.0026,-0.0139,1.0004,0.0432,-0.6212,-0.0365,0.6145,0.8627,0.2400,0.1321,0.8627,0.2400,0.1321,0.3000,0.0600,0.0002,0,-4.9329,-258.5058,-0.4823,-4.9329,-258.5058,-0.4823,-30.6929,-32.5706,0.0300,0.2700,0.0000,0.0000,0.0000,0.0000,0.0000,0.0000
-30.9554,-31.8652,9.1979,-0.3315,-0.2462,0.1200,1.6200,0.6400,0.0000,0.3278,0.2889,0.0028,996,1502,1527,1502,2008,1000,1505,1000,1000,1002,1005,1000,1018,0.1810,-0.0130,-0.0743,0.0025,-0.0158,0.9985,0.0417,-0.6195,-0.0362,0.6140,0.8627,0.2400,0.1321,0.8627,0.2400,0.1321,0.3000,0.0600,0.0002,0,-4.9329,-258.5058,-0.4823,-4.9329,-258.5058,-0.4823,-30.6582,-32.5515,0.0200,0.2700,0.0000,0.0000,0.0000,0.0000,0.0000,0.0000
-30.9199,-31.8391,9.1805,-0.3315,-0.2462,0.1200,1.6200,0.6400,0.0000,0.3274,0.2885,0.0022,996,1502,1527,1502,2008,1000,1505,1000,1000,1001,1005,1000,1018,0.2736,0.1246,0.1263,0.0031,-0.0163,0.9988,0.0411,-0.6181,-0.0368,0.6137,0.8627,0.2400,0.1321,0.8627,0.2400,0.1321,0.3000,0.0600,0.0002,0,-4.9132,-258.5058,-0.4823,-4.9132,-258.5058,-0.4823,-30.6234,-32.5316,0.0200,0.2700,0.0000,0.0000,0.0000,0.0000,0.0000,0.0000
-30.8854,-31.8118,9.1649,-0.2486,-0.2462,0.1200,1.6200,0.6400,0.0000,0.3273,0.2885,0.0017,996,1502,1527,1502,2008,1000,1505,1000,1000,1001,1005,1000,1018,0.1730,-0.0322,0.2654,-0.0007,-0.0180,1.0013,0.0405,-0.6175,-0.0371,0.6140,0.8627,0.2400,0.1321,0.8627,0.2400,0.1321,0.3000,0.0600,0.0002,0,-4.9132,-258.5058,-0.4823,-4.9132,-258.5058,-0.4823,-30.5912,-32.5100,0.0200,0.2700,0.0000,0.0000,0.0000,0.0000,0.0000,0.0000
-30.8542,-31.7859,9.1522,-0.2486,-0.3283,0.1200,1.6200,0.6400,0.0000,0.3273,0.2885,0.0015,996,1502,1527,1502,2008,1000,1505,1000,1000,1002,1005,1000,1017,-0.0458,-0.2063,0.3741,0.0096,-0.0184,0.9968,0.0403,-0.6172,-0.0373,0.6143,0.8627,0.2400,0.1321,0.8627,0.2400,0.1321,0.3000,0.0600,0.0002,0,-4.9181,-257.7372,-0.4808,-4.9181,-257.7372,-0.4808,-30.5633,-32.4879,0.0200,0.2700,0.0000,0.0000,0.0000,0.0000,0.0000,0.0000
-30.8268,-31.7614,9.1420,-0.4144,-0.4104,0.1200,1.6200,0.6400,0.0000,0.3273,0.2886,0.0010,996,1502,1527,1502,2008,1000,1505,1000,1000,1002,1005,1000,1017,-0.2738,-0.4797,0.5155,0.0060,-0.0212,1.0055,0.0398,-0.6170,-0.0377,0.6149,0.8627,0.2400,0.1321,0.8627,0.2400,0.1321,0.3000,0.0600,0.0002,0,-4.9181,-257.7372,-0.4808,-4.9181,-257.7372,-0.4808,-30.5392,-32.4638,0.0200,0.2700,0.0000,0.0000,0.0000,0.0000,0.0000,0.0000
-30.8019,-31.7370,9.1331,-0.3315,-0.2462,0.1800,1.6200,0.9600,0.0000,0.3278,0.2882,0.0009,996,1502,1527,1502,2008,1000,1505,1000,1000,1002,1005,1000,1017,-0.3682,-0.3609,0.5375,0.0019,-0.0205,0.9992,0.0404,-0.6169,-0.0386,0.6151,0.8627,0.2400,0.1321,0.8627,0.2400,0.1321,0.3000,0.0600,0.0002,0,-4.9181,-257.7372,-0.4808,-4.9181,-257.7372,-0.4808,-30.5193,-32.4389,0.0300,0.2700,0.0000,0.0000,0.0000,0.0000,0.0000,0.0000
-30.7776,-31.7115,9.1238,-0.3315,-0.4104,0.1200,1.6200,0.6400,0.0000,0.3271,0.2879,0.0008,996,1502,1527,1502,2008,1000,1505,1000,1000,1002,1005,1000,1017,-0.3804,-0.2596,0.5791,0.0006,-0.0172,1.0092,0.0400,-0.6158,-0.0383,0.6141,0.8627,0.2400,0.1321,0.8627,0.2400,0.1321,0.3000,0.0600,0.0002,0,-4.9181,-257.7372,-0.4808,-4.9181,-257.7372,-0.4808,-30.4995,-32.4122,0.0200,0.2700,0.0000,0.0000,0.0000,0.0000,0.0000,0.0000
-30.7527,-31.6846,9.1137,-0.3315,-0.2462,0.1200,1.6200,0.6400,0.0000,0.3269,0.2874,0.0011,996,1502,1527,1502,2008,1000,1505,1000,1000,1002,1005,1000,1017,-0.4122,-0.0735,0.5231,-0.0027,-0.0065,0.9994,0.0405,-0.6154,-0.0384,0.6132,0.8627,0.2400,0.1321,0.8627,0.2400,0.1321,0.3000,0.0600,0.0002,0,-4.9181,-257.7372,-0.4808,-4.9181,-257.7372,-0.4808,-30.4788,-32.3862,0.0200,0.2700,0.0000,0.0000,0.0000,0.0000,0.0000,0.0000
-30.7259,-31.6561,9.1010,-0.3315,-0.4925,0.1200,1.6200,0.6400,0.0000,0.3264,0.2870,0.0013,996,1502,1527,1502,2008,1000,1505,1000,1000,1002,1005,1000,1017,-0.2522,0.0797,0.4385,-0.0039,-0.0079,1.0043,0.0407,-0.6147,-0.0382,0.6122,0.8627,0.2400,0.1321,0.8627,0.2400,0.1321,0.3000,0.0600,0.0002,0,-4.9181,-257.7372,-0.4808,-4.9181,-257.7372,-0.4808,-30.4543,-32.3599,0.0200,0.2700,0.0000,0.0000,0.0000,0.0000,0.0000,0.0000
-30.6961,-31.6273,9.0870,-0.3315,-0.3283,0.1200,1.6200,0.6400,0.0000,0.3260,0.2866,0.0017,996,1502,1527,1502,2008,1000,1505,1000,1000,1002,1005,1000,1017,-0.0891,0.1631,0.3274,0.0076,-0.0073,1.0014,0.0410,-0.6142,-0.0377,0.6109,0.8627,0.2400,0.1321,0.8627,0.2400,0.1321,0.3000,0.0600,0.0002,0,-4.9181,-257.7372,-0.4808,-4.9181,-257.7372,-0.4808,-30.4272,-32.3342,0.0200,0.2700,0.0000,0.0000,0.0000,0.0000,0.0000,0.0000
-30.6635,-31.5988,9.0715,-0.4144,-0.3283,0.1200,1.6200,0.6400,0.0000,0.3254,0.2863,0.0018,996,1502,1527,1502,2008,1000,1505,1000,1000,1002,1005,1000,1018,0.1622,0.1881,0.2630,0.0067,-0.0135,1.0023,0.0408,-0.6135,-0.0372,0.6099,0.8627,0.2400,0.1321,0.8627,0.2400,0.1321,0.3000,0.0600,0.0002,0,-4.9329,-258.5058,-0.4823,-4.9329,-258.5058,-0.4823,-30.3969,-32.3091,0.0200,0.2700,0.0000,0.0000,0.0000,0.0000,0.0000,0.0000
-30.6290,-31.5713,9.0552,-0.3315,-0.2462,0.1800,1.6200,0.9600,0.0000,0.3255,0.2863,0.0023,996,1502,1527,1502,2008,1000,1505,1000,1000,1001,1005,1000,1017,0.2240,0.0646,0.1160,0.0092,-0.0139,1.0033,0.0415,-0.6140,-0.0370,0.6095,0.8627,0.2400,0.1321,0.8627,0.2400,0.1321,0.3000,0.0600,0.0002,0,-4.8984,-257.7372,-0.4808,-4.8984,-257.7372,-0.4808,-30.3657,-32.2839,0.0300,0.2700,0.0000,0.0000,0.0000,0.0000,0.0000,0.0000
-30.5935,-31.5456,9.0376,-0.3315,-0.2462,0.1200,1.6200,0.6400,0.0000,0.3247,0.2861,0.0030,996,1502,1527,1502,2008,1000,1505,1000,1000,1001,1005,1000,1017,0.1804,-0.0207,-0.1120,0.0056,-0.0148,0.9996,0.0416,-0.6139,-0.0356,0.6079,0.8627,0.2400,0.1321,0.8627,0.2400,0.1321,0.3000,0.0600,0.0002,0,-4.8984,-257.7372,-0.4808,-4.8984,-257.7372,-0.4808,-30.3352,-32.2582,0.0200,0.2700,0.0000,0.0000,0.0000,0.0000,0.0000,0.0000
-30.5586,-31.5219,9.0189,-0.3315,-0.2462,0.1200,1.6200,0.6400,0.0000,0.3247,0.2861,0.0034,996,1502,1527,1502,2008,1000,1505,1000,1000,1002,1005,1000,1017,0.0067,-0.1593,-0.2623,0.0011,-0.0157,1.0033,0.0419,-0.6142,-0.0351,0.6074,0.8627,0.2400,0.1321,0.8627,0.2400,0.1321,0.3000,0.0600,0.0002,0,-4.9181,-257.7372,-0.4808,-4.9181,-257.7372,-0.4808,-30.3050,-32.2306,0.0200,0.2700,0.0000,0.0000,0.0000,0.0000,0.0000,0.0000
-30.5252,-31.4987,8.9986,-0.3315,-0.3283,0.1200,1.6200,0.6400,0.0000,0.3246,0.2857,0.0038,996,1502,1527,1502,2008,1000,1505,1000,1000,1002,1005,1000,1017,-0.1904,0.0220,-0.3757,0.0015,-0.0180,0.9960,0.0427,-0.6141,-0.0351,0.6065,0.8627,0.2400,0.1321,0.8627,0.2400,0.1321,0.3000,0.0600,0.0002,0,-4.9181,-257.7372,-0.4808,-4.9181,-257.7372,-0.4808,-30.2750,-32.2028,0.0200,0.2700,0.0000,0.0000,0.0000,0.0000,0.0000,0.0000
-30.4923,-31.4749,8.9758,-0.2486,-0.3283,0.1200,1.6200,0.6400,0.0000,0.3244,0.2853,0.0042,996,1502,1527,1502,2008,1000,1505,1000,1000,1002,1005,1000,1017,-0.2407,0.1751,-0.5309,0.0013,-0.0172,1.0035,0.0434,-0.6139,-0.0349,0.6055,0.8627,0.2400,0.1321,0.8627,0.2400,0.1321,0.3000,0.0600,0.0002,0,-4.9181,-257.7372,-0.4808,-4.9181,-257.7372,-0.4808,-30.2453,-32.1725,0.0200,0.2700,0.0000,0.0000,0.0000,0.0000,0.0000,0.0000
-30.4591,-31.4499,8.9511,-0.2486,-0.3283,0.1200,1.6200,0.6400,0.0000,0.3243,0.2849,0.0045,996,1502,1527,1502,2008,1000,1505,1000,1000,1002,1005,1000,1017,-0.3394,0.3141,-0.6156,-0.0017,-0.0138,1.0030,0.0438,-0.6136,-0.0349,0.6047,0.8627,0.2400,0.1321,0.8627,0.2400,0.1321,0.3000,0.0600,0.0002,0,-4.9181,-257.7372,-0.4808,-4.9181,-257.7372,-0.4808,-30.2136,-32.1423,0.0200,0.2700,0.0000,0.0000,0.0000,0.0000,0.0000,0.0000
-30.4241,-31.4233,8.9250,-0.3315,-0.2462,0.1800,1.6200,0.9600,0.0000,0.3242,0.2845,0.0044,996,1502,1527,1502,2008,1000,1505,1000,1000,1001,1005,1000,1017,-0.1725,0.4544,-0.5772,0.0034,-0.0109,1.0059,0.0442,-0.6131,-0.0354,0.6043,0.8627,0.2400,0.1321,0.8627,0.2400,0.1321,0.3000,0.0600,0.0002,0,-4.8984,-257.7372,-0.4808,-4.8984,-257.7372,-0.4808,-30.1805,-32.1125,0.0300,0.2700,0.0000,0.0000,0.0000,0.0000,0.0000,0.0000
-30.3868,-31.3967,8.8986,-0.3315,-0.2462,0.1200,1.6200,0.6400,0.0000,0.3231,0.2842,0.0043,996,1502,1527,1502,2008,1000,1505,1000,1000,1002,1005,1000,1017,0.0476,0.4866,-0.5652,0.0017,-0.0094,1.0022,0.0432,-0.6116,-0.0346,0.6030,0.8627,0.2400,0.1321,0.8627,0.2400,0.1321,0.3000,0.0600,0.0002,0,-4.9181,-257.7372,-0.4808,-4.9181,-257.7372,-0.4808,-30.1449,-32.0836,0.0200,0.2700,0.0000,0.0000,0.0000,0.0000,0.0000,0.0000
-30.3488,-31.3701,8.8729,-0.4144,-0.2462,0.1200,1.6200,0.6400,0.0000,0.3228,0.2842,0.0041,996,1502,1527,1502,2008,1000,1505,1000,1000,1002,1005,1000,1017,0.0277,0.3326,-0.4760,0.0074,-0.0110,0.9999,0.0427,-0.6110,-0.0346,0.6029,0.8627,0.2400,0.1321,0.8627,0.2400,0.1321,0.3000,0.0600,0.0002,0,-4.9181,-257.7372,-0.4808,-4.9181,-257.7372,-0.4808,-30.1095,-32.0555,0.0200,0.2700,0.0000,0.0000,0.0000,0.0000,0.0000,0.0000
-30.3116,-31.3447,8.8505,-0.3315,-0.2462,0.1200,1.6200,0.6400,0.0000,0.3223,0.2842,0.0034,996,1502,1527,1502,2008,1000,1505,1000,1000,1002,1005,1000,1017,0.1713,0.1052,-0.2628,0.0121,-0.0119,1.0030,0.0415,-0.6100,-0.0346,0.6031,0.8627,0.2400,0.1321,0.8627,0.2400,0.1321,0.3000,0.0600,0.0002,0,-4.9181,-257.7372,-0.4808,-4.9181,-257.7372,-0.4808,-30.0750,-32.0286,0.0200,0.2700,0.0000,0.0000,0.0000,0.0000,0.0000,0.0000
-30.2754,-31.3210,8.8314,-0.2486,-0.2462,0.1200,1.6200,0.6400,0.0000,0.3219,0.2844,0.0030,996,1502,1527,1502,2008,1000,1505,1000,1000,1002,1005,1000,1017,0.2733,-0.1391,-0.1457,0.0031,-0.0206,1.0024,0.0405,-0.6093,-0.0345,0.6032,0.8627,0.2400,0.1321,0.8627,0.2400,0.1321,0.3000,0.0600,0.0002,0,-4.9181,-257.7372,-0.4808,-4.9181,-257.7372,-0.4808,-30.0408,-32.0021,0.0200,0.2700,0.0000,0.0000,0.0000,0.0000,0.0000,0.0000
-30.2406,-31.2967,8.8145,-0.4144,-0.2462,0.1200,1.6200,0.6400,0.0000,0.3217,0.2843,0.0027,996,1502,1527,1502,2008,1000,1505,1000,1000,1002,1005,1000,1017,0.1383,-0.2146,-0.0156,0.0038,-0.0188,1.0062,0.0402,-0.6087,-0.0347,0.6033,0.8627,0.2400,0.1321,0.8627,0.2400,0.1321,0.3000,0.0600,0.0002,0,-4.9181,-257.7372,-0.4808,-4.9181,-257.7372,-0.4808,-30.0084,-31.9749,0.0200,0.2700,0.0000,0.0000,0.0000,0.0000,0.0000,0.0000
-30.2078,-31.2730,8.7997,-0.4144,-0.3283,0.1800,1.6200,0.9600,0.0000,0.3221,0.2841,0.0023,996,1502,1527,1502,2008,1000,1505,1000,1000,1002,1005,1000,1017,0.0775,-0.2374,0.1270,-0.0040,-0.0159,1.0012,0.0403,-0.6084,-0.0357,0.6039,0.8627,0.2400,0.1321,0.8627,0.2400,0.1321,0.3000,0.0600,0.0002,0,-4.9181,-257.7372,-0.4808,-4.9181,-257.7372,-0.4808,-29.9761,-31.9482,0.0300,0.2700,0.0000,0.0000,0.0000,0.0000,0.0000,0.0000
