roll_imu,pitch_imu,yaw_imu,alpha,beta,roll_des,pitch_des,yaw_des,throttle_des,roll_pid,pitch_pid,yaw_pid,radio_ch1,radio_ch2,radio_ch3,radio_ch4,radio_ch5,radio_ch6,radio_ch7,radio_ch8,radio_ch9,radio_ch10,radio_ch11,radio_ch12,radio_ch13,GyroX,GyroY,GyroZ,AccX,AccY,AccZ,s1_command,s2_command,s3_command,s4_command,kp_roll,ki_roll,kd_roll,kp_pitch,ki_pitch,kd_pitch,kp_yaw,ki_yaw,kd_yaw,failsafeTriggered,kp_alphaRoll,ki_alphaRoll,kd_alphaRoll,kp_betaPitch,ki_betaPitch,kd_betaPitch,ripIMU_roll,ripIMU_pitch,ripRoll_des,ripPitch_des,error_alphaRoll,integral_alphaRoll,derivative_alphaRoll,error_betaPitch,integral_betaPitch,derivative_betaPitch
0.0000,0.0000,0.0000,1.4917,4.8016,0.0000,0.0000,0.0000,0.0000,0.0000,0.0000,0.0000,1000,1500,1500,1500,2000,1000,1000,1000,1500,1500,1500,1500,1500,0.0000,0.0000,0.0000,0.0000,0.0000,0.0000,0.0000,0.0000,0.0000,0.0000,0.8627,0.2400,0.1321,0.8627,0.2400,0.1321,0.3000,0.0600,0.0002,0,-4.9280,-256.2000,-0.5040,-4.9280,-256.2000,-0.5040,0.0000,0.0000,0.0000,0.0000,0.0000,0.0000,0.0000,0.0000,0.0000,0.0000
36.3629,38.4932,12.9310,0.0829,-0.0000,-7.8600,-6.5400,-42.8800,0.0000,-0.4416,-0.3885,-0.1284,910,1369,1391,1366,2008,1000,1505,1000,1000,1004,1005,1000,1014,0.0871,0.0059,-0.0668,-0.0185,0.0125,0.8575,-0.1816,0.9586,-0.0753,-0.7017,0.8627,0.2400,0.1321,0.8627,0.2400,0.1321,0.3000,0.0600,0.0002,0,-4.9132,-255.4314,-0.4764,-4.9132,-255.4314,-0.4764,39.2810,35.3632,-1.3100,-1.0900,0.0000,0.0000,0.0000,0.0000,0.0000,0.0000
36.3294,38.4711,12.9091,-0.0000,-0.0000,-7.8600,-6.5400,-42.8800,0.0000,-0.4413,-0.3883,-0.1288,910,1369,1391,1366,2008,1000,1505,1000,1000,1004,1005,1000,1014,0.0834,0.0007,-0.0328,-0.0191,0.0165,0.9917,-0.1819,0.9585,-0.0758,-0.7008,0.8627,0.2400,0.1321,0.8627,0.2400,0.1321,0.3000,0.0600,0.0002,0,-4.9132,-255.4314,-0.4764,-4.9132,-255.4314,-0.4764,39.2454,35.3422,-1.3100,-1.0900,0.0000,0.0000,0.0000,0.0000,0.0000,0.0000
36.2961,38.4486,12.8876,0.0829,-0.0000,-2.3400,-0.7800,-12.4800,0.0000,-0.3935,-0.3384,-0.0379,991,1491,1516,1490,2008,1000,1505,1000,1000,1004,1005,1000,1014,0.1756,-0.0167,-0.0009,-0.0201,0.0134,0.9980,-0.0930,0.7698,0.0173,-0.6941,0.8627,0.2400,0.1321,0.8627,0.2400,0.1321,0.3000,0.0600,0.0002,0,-4.9132,-255.4314,-0.4764,-4.9132,-255.4314,-0.4764,39.2098,35.3216,-0.3900,-0.1300,0.0000,0.0000,0.0000,0.0000,0.0000,0.0000
36.2629,38.4263,12.8662,0.1657,-0.0000,0.0000,1.3200,-0.9600,0.0000,-0.3730,-0.3202,-0.0041,996,1500,1522,1497,2008,1000,1505,1000,1000,1004,1005,1000,1014,0.1047,0.0553,-0.0516,-0.0219,0.0144,0.9985,-0.0569,0.6973,0.0487,-0.6890,0.8627,0.2400,0.1321,0.8627,0.2400,0.1321,0.3000,0.0600,0.0002,0,-4.9132,-255.4314,-0.4764,-4.9132,-255.4314,-0.4764,39.1748,35.3013,0.0000,0.2200,0.0000,0.0000,0.0000,0.0000,0.0000,0.0000
36.2297,38.4039,12.8446,0.1657,-0.0000,0.1200,1.5000,0.0000,0.0000,-0.3716,-0.3183,-0.0003,996,1502,1525,1500,2008,1000,1505,1000,1000,1004,1005,1000,1014,0.0661,-0.0210,-0.0236,-0.0208,0.0136,0.9953,-0.0536,0.6903,0.0529,-0.6896,0.8627,0.2400,0.1321,0.8627,0.2400,0.1321,0.3000,0.0600,0.0002,0,-4.9132,-255.4314,-0.4764,-4.9132,-255.4314,-0.4764,39.1403,35.2817,0.0200,0.2500,0.0000,0.0000,0.0000,0.0000,0.0000,0.0000
36.1961,38.3814,12.8232,0.0829,-0.0000,0.1200,1.6200,0.6400,0.0000,-0.3713,-0.3171,0.0014,996,1502,1527,1502,2008,1000,1505,1000,1000,1004,1005,1000,1014,0.0554,-0.0260,0.0346,-0.0212,0.0133,1.0001,-0.0528,0.6871,0.0556,-0.6898,0.8627,0.2400,0.1321,0.8627,0.2400,0.1321,0.3000,0.0600,0.0002,0,-4.9132,-255.4314,-0.4764,-4.9132,-255.4314,-0.4764,39.1050,35.2618,0.0200,0.2700,0.0000,0.0000,0.0000,0.0000,0.0000,0.0000
36.1620,38.3585,12.8015,0.0829,-0.0000,0.1200,1.6200,0.6400,0.0000,-0.3710,-0.3169,0.0016,996,1502,1527,1502,2008,1000,1505,1000,1000,1004,1005,1000,1014,0.0607,-0.0341,-0.0185,-0.0231,0.0132,1.0037,-0.0526,0.6864,0.0557,-0.6895,0.8627,0.2400,0.1321,0.8627,0.2400,0.1321,0.3000,0.0600,0.0002,0,-4.9132,-255.4314,-0.4764,-4.9132,-255.4314,-0.4764,39.0691,35.2416,0.0200,0.2700,0.0000,0.0000,0.0000,0.0000,0.0000,0.0000
36.1283,38.3358,12.7797,0.0829,-0.0000,0.1200,1.6200,0.6400,0.0000,-0.3708,-0.3167,0.0016,996,1502,1527,1502,2008,1000,1505,1000,1000,1004,1005,1000,1014,0.0821,-0.0283,-0.0495,-0.0193,0.0136,0.9973,-0.0524,0.6858,0.0557,-0.6891,0.8627,0.2400,0.1321,0.8627,0.2400,0.1321,0.3000,0.0600,0.0002,0,-4.9132,-255.4314,-0.4764,-4.9132,-255.4314,-0.4764,39.0331,35.2213,0.0200,0.2700,0.0000,0.0000,0.0000,0.0000,0.0000,0.0000
36.0945,38.3139,12.7580,0.0829,-0.0000,0.1200,1.6200,0.6400,0.0000,-0.3705,-0.3166,0.0017,998,1504,1528,1502,2008,1000,1505,1000,1000,1004,1005,1000,1014,0.0926,0.0399,-0.0862,-0.0201,0.0102,0.9995,-0.0521,0.6854,0.0556,-0.6888,0.8627,0.2400,0.1321,0.8627,0.2400,0.1321,0.3000,0.0600,0.0002,0,-4.9132,-255.4314,-0.4764,-4.9132,-255.4314,-0.4764,38.9983,35.2008,0.0200,0.2700,0.0000,0.0000,0.0000,0.0000,0.0000,0.0000
36.0612,38.2917,12.7373,0.0829,-0.0000,0.1200,1.6200,0.6400,0.0000,-0.3701,-0.3164,0.0014,996,1502,1527,1502,2008,1000,1505,1000,1000,1004,1005,1000,1014,0.0247,0.0195,0.0458,-0.0198,0.0128,1.0022,-0.0523,0.6851,0.0551,-0.6879,0.8627,0.2400,0.1321,0.8627,0.2400,0.1321,0.3000,0.0600,0.0002,0,-4.9132,-255.4314,-0.4764,-4.9132,-255.4314,-0.4764,38.9632,35.1802,0.0200,0.2700,0.0000,0.0000,0.0000,0.0000,0.0000,0.0000
36.0275,38.2693,12.7159,0.0829,-0.0000,0.1200,1.6200,0.6400,0.0000,-0.3698,-0.3161,0.0018,996,1502,1527,1502,2008,1000,1505,1000,1000,1004,1005,1000,1014,0.0406,-0.0420,-0.0870,-0.0205,0.0155,0.9949,-0.0519,0.6842,0.0555,-0.6877,0.8627,0.2400,0.1321,0.8627,0.2400,0.1321,0.3000,0.0600,0.0002,0,-4.9132,-255.4314,-0.4764,-4.9132,-255.4314,-0.4764,38.9282,35.1593,0.0200,0.2700,0.0000,0.0000,0.0000,0.0000,0.0000,0.0000
35.9935,38.2471,12.6943,0.1657,-0.0000,0.1200,1.6200,0.6400,0.0000,-0.3696,-0.3160,0.0016,996,1502,1527,1502,2008,1000,1505,1000,1000,1004,1005,1000,1014,0.0567,0.0164,-0.0428,-0.0212,0.0147,1.0006,-0.0519,0.6839,0.0552,-0.6872,0.8627,0.2400,0.1321,0.8627,0.2400,0.1321,0.3000,0.0600,0.0002,0,-4.9132,-255.4314,-0.4764,-4.9132,-255.4314,-0.4764,38.8927,35.1382,0.0200,0.2700,0.0000,0.0000,0.0000,0.0000,0.0000,0.0000
35.9604,38.2248,12.6729,0.0829,-0.0000,0.1200,1.6200,0.6400,0.0000,-0.3693,-0.3158,0.0016,996,1502,1527,1502,2008,1000,1505,1000,1000,1004,1005,1000,1014,0.1097,-0.0016,-0.0318,-0.0229,0.0145,1.0004,-0.0519,0.6835,0.0552,-0.6868,0.8627,0.2400,0.1321,0.8627,0.2400,0.1321,0.3000,0.0600,0.0002,0,-4.9132,-255.4314,-0.4764,-4.9132,-255.4314,-0.4764,38.8574,35.1175,0.0200,0.2700,0.0000,0.0000,0.0000,0.0000,0.0000,0.0000
35.9271,38.2021,12.6520,0.0829,-0.0000,0.1200,1.6200,0.6400,0.0000,-0.3690,-0.3157,0.0015,996,1502,1527,1502,2008,1000,1505,1000,1000,1004,1005,1000,1014,0.0854,0.0596,0.0091,-0.0194,0.0140,1.0000,-0.0519,0.6832,0.0548,-0.6862,0.8627,0.2400,0.1321,0.8627,0.2400,0.1321,0.3000,0.0600,0.0002,0,-4.9132,-255.4314,-0.4764,-4.9132,-255.4314,-0.4764,38.8220,35.0975,0.0200,0.2700,0.0000,0.0000,0.0000,0.0000,0.0000,0.0000
35.8942,38.1799,12.6317,-0.0000,-0.0821,0.1200,1.6200,0.6400,0.0000,-0.3688,-0.3155,0.0017,998,1504,1528,1502,2008,1000,1505,1000,1000,1004,1005,1000,1014,0.0961,0.0788,-0.0483,-0.0216,0.0153,0.9941,-0.0516,0.6826,0.0549,-0.6859,0.8627,0.2400,0.1321,0.8627,0.2400,0.1321,0.3000,0.0600,0.0002,0,-4.9132,-255.4314,-0.4764,-4.9132,-255.4314,-0.4764,38.7864,35.0770,0.0200,0.2700,0.0000,0.0000,0.0000,0.0000,0.0000,0.0000
35.8613,38.1581,12.6108,0.0829,-0.0000,0.1200,1.6200,0.6400,0.0000,-0.3685,-0.3153,0.0017,996,1502,1527,1502,2008,1000,1505,1000,1000,1004,1005,1000,1014,0.0996,0.0304,-0.0469,-0.0203,0.0128,0.9947,-0.0515,0.6820,0.0549,-0.6854,0.8627,0.2400,0.1321,0.8627,0.2400,0.1321,0.3000,0.0600,0.0002,0,-4.9132,-255.4314,-0.4764,-4.9132,-255.4314,-0.4764,38.7509,35.0566,0.0200,0.2700,0.0000,0.0000,0.0000,0.0000,0.0000,0.0000
35.8282,38.1356,12.5899,-0.0829,-0.1642,0.1200,1.6200,0.6400,0.0000,-0.3681,-0.3150,0.0016,996,1502,1527,1502,2008,1000,1505,1000,1000,1004,1005,1000,1014,0.0646,-0.0212,-0.0168,-0.0194,0.0130,0.9999,-0.0516,0.6816,0.0547,-0.6847,0.8627,0.2400,0.1321,0.8627,0.2400,0.1321,0.3000,0.0600,0.0002,0,-4.9132,-255.4314,-0.4764,-4.9132,-255.4314,-0.4764,38.7151,35.0362,0.0200,0.2700,0.0000,0.0000,0.0000,0.0000,0.0000,0.0000
35.7941,38.1129,12.5685,0.0829,0.0821,0.1200,1.6200,0.6400,0.0000,-0.3678,-0.3149,0.0016,996,1502,1527,1502,2008,1000,1505,1000,1000,1004,1005,1000,1014,0.0092,0.0216,-0.0364,-0.0222,0.0134,0.9964,-0.0513,0.6810,0.0546,-0.6843,0.8627,0.2400,0.1321,0.8627,0.2400,0.1321,0.3000,0.0600,0.0002,0,-4.9132,-255.4314,-0.4764,-4.9132,-255.4314,-0.4764,38.6797,35.0158,0.0200,0.2700,0.0000,0.0000,0.0000,0.0000,0.0000,0.0000
35.7608,38.0899,12.5477,0.0829,-0.0000,0.1200,1.6200,0.6400,0.0000,-0.3676,-0.3147,0.0013,996,1502,1527,1502,2008,1000,1505,1000,1000,1004,1005,1000,1014,0.0845,0.0263,0.0734,-0.0195,0.0152,0.9985,-0.0516,0.6809,0.0542,-0.6835,0.8627,0.2400,0.1321,0.8627,0.2400,0.1321,0.3000,0.0600,0.0002,0,-4.9132,-255.4314,-0.4764,-4.9132,-255.4314,-0.4764,38.6447,34.9946,0.0200,0.2700,0.0000,0.0000,0.0000,0.0000,0.0000,0.0000
35.7281,38.0674,12.5272,-0.0000,0.0821,0.1200,1.6200,0.6400,0.0000,-0.3673,-0.3145,0.0014,996,1502,1527,1502,2008,1000,1505,1000,1000,1004,1005,1000,1014,0.1169,0.0414,0.0410,-0.0219,0.0121,0.9933,-0.0515,0.6805,0.0542,-0.6832,0.8627,0.2400,0.1321,0.8627,0.2400,0.1321,0.3000,0.0600,0.0002,0,-4.9132,-255.4314,-0.4764,-4.9132,-255.4314,-0.4764,38.6095,34.9740,0.0200,0.2700,0.0000,0.0000,0.0000,0.0000,0.0000,0.0000
35.6954,38.0448,12.5068,0.0829,-0.0000,0.1200,1.6200,0.6400,0.0000,-0.3671,-0.3143,0.0016,998,1504,1528,1502,2008,1000,1505,1000,1000,1004,1005,1000,1014,0.1069,0.0412,-0.0220,-0.0197,0.0131,0.9984,-0.0512,0.6798,0.0543,-0.6829,0.8627,0.2400,0.1321,0.8627,0.2400,0.1321,0.3000,0.0600,0.0002,0,-4.9132,-255.4314,-0.4764,-4.9132,-255.4314,-0.4764,38.5744,34.9530,0.0200,0.2700,0.0000,0.0000,0.0000,0.0000,0.0000,0.0000
35.6621,38.0224,12.4860,0.1657,-0.0000,0.1200,1.6200,0.6400,0.0000,-0.3667,-0.3140,0.0017,996,1502,1527,1502,2008,1000,1505,1000,1000,1004,1005,1000,1014,0.0704,-0.0427,-0.0310,-0.0203,0.0122,0.9987,-0.0511,0.6790,0.0544,-0.6824,0.8627,0.2400,0.1321,0.8627,0.2400,0.1321,0.3000,0.0600,0.0002,0,-4.9132,-255.4314,-0.4764,-4.9132,-255.4314,-0.4764,38.5388,34.9326,0.0200,0.2700,0.0000,0.0000,0.0000,0.0000,0.0000,0.0000
35.6287,37.9993,12.4647,0.1657,-0.0000,0.1200,1.6200,0.6400,0.0000,-0.3664,-0.3139,0.0015,996,1502,1527,1502,2008,1000,1505,1000,1000,1004,1005,1000,1014,0.0638,0.0070,0.0249,-0.0216,0.0125,0.9991,-0.0511,0.6788,0.0540,-0.6817,0.8627,0.2400,0.1321,0.8627,0.2400,0.1321,0.3000,0.0600,0.0002,0,-4.9132,-255.4314,-0.4764,-4.9132,-255.4314,-0.4764,38.5040,34.9116,0.0200,0.2700,0.0000,0.0000,0.0000,0.0000,0.0000,0.0000
35.5949,37.9761,12.4435,0.0829,0.0821,0.1200,1.6200,0.6400,0.0000,-0.3661,-0.3136,0.0017,996,1502,1527,1502,2008,1000,1505,1000,1000,1004,1005,1000,1014,0.0287,-0.0295,-0.0471,-0.0206,0.0106,0.9964,-0.0508,0.6780,0.0542,-0.6814,0.8627,0.2400,0.1321,0.8627,0.2400,0.1321,0.3000,0.0600,0.0002,0,-4.9132,-255.4314,-0.4764,-4.9132,-255.4314,-0.4764,38.4685,34.8909,0.0200,0.2700,0.0000,0.0000,0.0000,0.0000,0.0000,0.0000
35.5619,37.9532,12.4224,0.0829,-0.0000,0.1200,1.6200,0.6400,0.0000,-0.3659,-0.3134,0.0019,996,1502,1527,1502,2008,1000,1505,1000,1000,1004,1005,1000,1014,0.0857,-0.0575,-0.0982,-0.0210,0.0138,0.9972,-0.0506,0.6774,0.0544,-0.6811,0.8627,0.2400,0.1321,0.8627,0.2400,0.1321,0.3000,0.0600,0.0002,0,-4.9132,-255.4314,-0.4764,-4.9132,-255.4314,-0.4764,38.4333,34.8702,0.0200,0.2700,0.0000,0.0000,0.0000,0.0000,0.0000,0.0000
35.5284,37.9303,12.4009,0.0829,-0.0000,0.1200,1.6200,0.6400,0.0000,-0.3656,-0.3132,0.0018,996,1502,1527,1502,2008,1000,1505,1000,1000,1004,1005,1000,1014,0.1177,-0.0209,-0.0551,-0.0202,0.0120,1.0009,-0.0506,0.6771,0.0542,-0.6806,0.8627,0.2400,0.1321,0.8627,0.2400,0.1321,0.3000,0.0600,0.0002,0,-4.9132,-255.4314,-0.4764,-4.9132,-255.4314,-0.4764,38.3976,34.8493,0.0200,0.2700,0.0000,0.0000,0.0000,0.0000,0.0000,0.0000
35.4953,37.9071,12.3797,0.0829,-0.0000,0.1200,1.6200,0.6400,0.0000,-0.3653,-0.3130,0.0013,998,1504,1528,1502,2008,1000,1505,1000,1000,1004,1005,1000,1014,0.0601,-0.0162,0.0543,-0.0184,0.0129,0.9960,-0.0509,0.6770,0.0536,-0.6796,0.8627,0.2400,0.1321,0.8627,0.2400,0.1321,0.3000,0.0600,0.0002,0,-4.9132,-255.4314,-0.4764,-4.9132,-255.4314,-0.4764,38.3627,34.8286,0.0200,0.2700,0.0000,0.0000,0.0000,0.0000,0.0000,0.0000
35.4624,37.8837,12.3591,0.0829,0.0821,0.1200,1.6200,0.6400,0.0000,-0.3651,-0.3128,0.0016,996,1502,1527,1502,2008,1000,1505,1000,1000,1004,1005,1000,1014,0.1285,-0.0158,-0.0159,-0.0237,0.0142,0.9933,-0.0506,0.6763,0.0539,-0.6795,0.8627,0.2400,0.1321,0.8627,0.2400,0.1321,0.3000,0.0600,0.0002,0,-4.9132,-255.4314,-0.4764,-4.9132,-255.4314,-0.4764,38.3271,34.8082,0.0200,0.2700,0.0000,0.0000,0.0000,0.0000,0.0000,0.0000
35.4293,37.8612,12.3380,0.0829,0.0821,0.1200,1.6200,0.6400,0.0000,-0.3647,-0.3126,0.0017,996,1502,1527,1502,2008,1000,1505,1000,1000,1004,1005,1000,1014,0.0943,-0.0146,-0.0262,-0.0213,0.0158,0.9998,-0.0505,0.6757,0.0538,-0.6790,0.8627,0.2400,0.1321,0.8627,0.2400,0.1321,0.3000,0.0600,0.0002,0,-4.9132,-255.4314,-0.4764,-4.9132,-255.4314,-0.4764,38.2922,34.7876,0.0200,0.2700,0.0000,0.0000,0.0000,0.0000,0.0000,0.0000
35.3965,37.8384,12.3174,0.0829,-0.0000,0.1200,1.6200,0.6400,0.0000,-0.3645,-0.3125,0.0018,996,1502,1527,1502,2008,1000,1505,1000,1000,1004,1005,1000,1014,0.1007,0.0131,-0.0552,-0.0211,0.0124,1.0000,-0.0502,0.6752,0.0538,-0.6787,0.8627,0.2400,0.1321,0.8627,0.2400,0.1321,0.3000,0.0600,0.0002,0,-4.9132,-255.4314,-0.4764,-4.9132,-255.4314,-0.4764,38.2571,34.7668,0.0200,0.2700,0.0000,0.0000,0.0000,0.0000,0.0000,0.0000
35.3630,37.8158,12.2961,-0.0000,-0.0000,0.1200,1.6200,0.6400,0.0000,-0.3642,-0.3122,0.0017,996,1502,1527,1502,2008,1000,1505,1000,1000,1004,1005,1000,1014,0.0890,-0.0185,-0.0601,-0.0246,0.0147,0.9941,-0.0502,0.6747,0.0537,-0.6781,0.8627,0.2400,0.1321,0.8627,0.2400,0.1321,0.3000,0.0600,0.0002,0,-4.9132,-255.4314,-0.4764,-4.9132,-255.4314,-0.4764,38.2217,34.7460,0.0200,0.2700,0.0000,0.0000,0.0000,0.0000,0.0000,0.0000
35.3297,37.7930,12.2744,-0.0000,0.0821,0.1200,1.6200,0.6400,0.0000,-0.3639,-0.3120,0.0018,996,1502,1527,1502,2008,1000,1505,1000,1000,1004,1005,1000,1014,0.1100,-0.0267,-0.0883,-0.0186,0.0140,0.9959,-0.0500,0.6741,0.0537,-0.6778,0.8627,0.2400,0.1321,0.8627,0.2400,0.1321,0.3000,0.0600,0.0002,0,-4.9132,-255.4314,-0.4764,-4.9132,-255.4314,-0.4764,38.1866,34.7249,0.0200,0.2700,0.0000,0.0000,0.0000,0.0000,0.0000,0.0000
35.2962,37.7702,12.2527,0.1657,-0.0000,0.1200,1.6200,0.6400,0.0000,-0.3635,-0.3118,0.0016,998,1504,1528,1502,2008,1000,1505,1000,1000,1004,1005,1000,1014,0.0515,-0.0361,0.0023,-0.0204,0.0110,1.0063,-0.0501,0.6738,0.0533,-0.6769,0.8627,0.2400,0.1321,0.8627,0.2400,0.1321,0.3000,0.0600,0.0002,0,-4.9132,-255.4314,-0.4764,-4.9132,-255.4314,-0.4764,38.1513,34.7039,0.0200,0.2700,0.0000,0.0000,0.0000,0.0000,0.0000,0.0000
35.2630,37.7468,12.2324,-0.0000,-0.0000,0.1200,1.6200,0.6400,0.0000,-0.3632,-0.3117,0.0014,996,1502,1527,1502,2008,1000,1505,1000,1000,1004,1005,1000,1014,0.0427,0.0221,0.0723,-0.0225,0.0151,1.0003,-0.0502,0.6736,0.0529,-0.6763,0.8627,0.2400,0.1321,0.8627,0.2400,0.1321,0.3000,0.0600,0.0002,0,-4.9132,-255.4314,-0.4764,-4.9132,-255.4314,-0.4764,38.1155,34.6828,0.0200,0.2700,0.0000,0.0000,0.0000,0.0000,0.0000,0.0000
35.2293,37.7241,12.2116,0.0829,-0.0000,0.1200,1.6200,0.6400,0.0000,-0.3630,-0.3115,0.0017,996,1502,1527,1502,2008,1000,1505,1000,1000,1004,1005,1000,1014,0.0476,0.0085,-0.0448,-0.0201,0.0131,1.0029,-0.0497,0.6727,0.0532,-0.6762,0.8627,0.2400,0.1321,0.8627,0.2400,0.1321,0.3000,0.0600,0.0002,0,-4.9132,-255.4314,-0.4764,-4.9132,-255.4314,-0.4764,38.0806,34.6616,0.0200,0.2700,0.0000,0.0000,0.0000,0.0000,0.0000,0.0000
35.1961,37.7009,12.1903,-0.0000,-0.0821,0.1200,1.6200,0.6400,0.0000,-0.3627,-0.3112,0.0017,996,1502,1527,1502,2008,1000,1505,1000,1000,1004,1005,1000,1014,0.0669,-0.0605,-0.0238,-0.0228,0.0143,1.0009,-0.0498,0.6722,0.0532,-0.6756,0.8627,0.2400,0.1321,0.8627,0.2400,0.1321,0.3000,0.0600,0.0002,0,-4.9132,-255.4314,-0.4764,-4.9132,-255.4314,-0.4764,38.0454,34.6408,0.0200,0.2700,0.0000,0.0000,0.0000,0.0000,0.0000,0.0000
35.1629,37.6780,12.1695,0.0829,0.0821,0.1200,1.6200,0.6400,0.0000,-0.3624,-0.3112,0.0017,996,1502,1527,1502,2008,1000,1505,1000,1000,1004,1005,1000,1014,0.0717,0.0664,-0.0480,-0.0195,0.0145,0.9964,-0.0495,0.6718,0.0530,-0.6753,0.8627,0.2400,0.1321,0.8627,0.2400,0.1321,0.3000,0.0600,0.0002,0,-4.9132,-255.4314,-0.4764,-4.9132,-255.4314,-0.4764,38.0100,34.6200,0.0200,0.2700,0.0000,0.0000,0.0000,0.0000,0.0000,0.0000
35.1302,37.6556,12.1490,-0.0000,-0.0821,0.1200,1.6200,0.6400,0.0000,-0.3622,-0.3110,0.0017,996,1502,1527,1502,2008,1000,1505,1000,1000,1004,1005,1000,1014,0.1412,0.0651,-0.0348,-0.0210,0.0137,1.0004,-0.0495,0.6714,0.0530,-0.6749,0.8627,0.2400,0.1321,0.8627,0.2400,0.1321,0.3000,0.0600,0.0002,0,-4.9132,-255.4314,-0.4764,-4.9132,-255.4314,-0.4764,37.9745,34.5989,0.0200,0.2700,0.0000,0.0000,0.0000,0.0000,0.0000,0.0000
35.0972,37.6326,12.1280,0.1657,-0.0000,0.1200,1.6200,0.6400,0.0000,-0.3618,-0.3107,0.0018,998,1504,1528,1502,2008,1000,1505,1000,1000,1004,1005,1000,1014,0.0736,-0.0131,-0.0690,-0.0201,0.0142,0.9989,-0.0493,0.6707,0.0530,-0.6744,0.8627,0.2400,0.1321,0.8627,0.2400,0.1321,0.3000,0.0600,0.0002,0,-4.9132,-255.4314,-0.4764,-4.9132,-255.4314,-0.4764,37.9393,34.5776,0.0200,0.2700,0.0000,0.0000,0.0000,0.0000,0.0000,0.0000
35.0638,37.6093,12.1068,0.0829,-0.0000,0.1200,1.6200,0.6400,0.0000,-0.3616,-0.3105,0.0015,996,1502,1527,1502,2008,1000,1505,1000,1000,1004,1005,1000,1014,0.0960,0.0282,0.0402,-0.0208,0.0143,1.0002,-0.0495,0.6706,0.0526,-0.6736,0.8627,0.2400,0.1321,0.8627,0.2400,0.1321,0.3000,0.0600,0.0002,0,-4.9132,-255.4314,-0.4764,-4.9132,-255.4314,-0.4764,37.9048,34.5563,0.0200,0.2700,0.0000,0.0000,0.0000,0.0000,0.0000,0.0000
35.0306,37.5866,12.0857,0.0829,-0.0821,0.1200,1.6200,0.6400,0.0000,-0.3613,-0.3102,0.0019,996,1502,1527,1502,2008,1000,1505,1000,1000,1004,1005,1000,1014,0.0918,-0.0340,-0.0889,-0.0209,0.0153,0.9998,-0.0492,0.6697,0.0529,-0.6734,0.8627,0.2400,0.1321,0.8627,0.2400,0.1321,0.3000,0.0600,0.0002,0,-4.9132,-255.4314,-0.4764,-4.9132,-255.4314,-0.4764,37.8695,34.5350,0.0200,0.2700,0.0000,0.0000,0.0000,0.0000,0.0000,0.0000
34.9976,37.5633,12.0648,0.0829,0.0821,0.1200,1.6200,0.6400,0.0000,-0.3610,-0.3100,0.0017,996,1502,1527,1502,2008,1000,1505,1000,1000,1004,1005,1000,1014,0.0981,-0.0256,-0.0110,-0.0206,0.0139,0.9989,-0.0493,0.6694,0.0526,-0.6727,0.8627,0.2400,0.1321,0.8627,0.2400,0.1321,0.3000,0.0600,0.0002,0,-4.9132,-255.4314,-0.4764,-4.9132,-255.4314,-0.4764,37.8343,34.5137,0.0200,0.2700,0.0000,0.0000,0.0000,0.0000,0.0000,0.0000
34.9645,37.5395,12.0441,0.0829,-0.0821,0.1200,1.6200,0.6400,0.0000,-0.3607,-0.3098,0.0016,996,1502,1527,1502,2008,1000,1505,1000,1000,1004,1005,1000,1014,0.0369,-0.0286,0.0090,-0.0194,0.0151,1.0006,-0.0492,0.6689,0.0524,-0.6721,0.8627,0.2400,0.1321,0.8627,0.2400,0.1321,0.3000,0.0600,0.0002,0,-4.9132,-255.4314,-0.4764,-4.9132,-255.4314,-0.4764,37.7986,34.4923,0.0200,0.2700,0.0000,0.0000,0.0000,0.0000,0.0000,0.0000
34.9315,37.5164,12.0233,0.0829,-0.0000,0.1200,1.6200,0.6400,0.0000,-0.3605,-0.3097,0.0017,996,1502,1527,1502,2008,1000,1505,1000,1000,1004,1005,1000,1014,0.1089,0.0047,-0.0127,-0.0190,0.0139,1.0015,-0.0491,0.6685,0.0525,-0.6718,0.8627,0.2400,0.1321,0.8627,0.2400,0.1321,0.3000,0.0600,0.0002,0,-4.9132,-255.4314,-0.4764,-4.9132,-255.4314,-0.4764,37.7638,34.4715,0.0200,0.2700,0.0000,0.0000,0.0000,0.0000,0.0000,0.0000
34.8986,37.4929,12.0028,0.0829,-0.0000,0.1200,1.6200,0.6400,0.0000,-0.3601,-0.3094,0.0016,998,1504,1528,1502,2008,1000,1505,1000,1000,1004,1005,1000,1014,0.0763,-0.0237,0.0151,-0.0181,0.0134,1.0005,-0.0491,0.6680,0.0523,-0.6711,0.8627,0.2400,0.1321,0.8627,0.2400,0.1321,0.3000,0.0600,0.0002,0,-4.9132,-255.4314,-0.4764,-4.9132,-255.4314,-0.4764,37.7284,34.4505,0.0200,0.2700,0.0000,0.0000,0.0000,0.0000,0.0000,0.0000
34.8655,37.4698,11.9819,0.0829,-0.0000,0.1200,1.6200,0.6400,0.0000,-0.3598,-0.3092,0.0019,996,1502,1527,1502,2008,1000,1505,1000,1000,1004,1005,1000,1014,0.0714,-0.0238,-0.0864,-0.0187,0.0132,0.9960,-0.0487,0.6672,0.0525,-0.6710,0.8627,0.2400,0.1321,0.8627,0.2400,0.1321,0.3000,0.0600,0.0002,0,-4.9132,-255.4314,-0.4764,-4.9132,-255.4314,-0.4764,37.6930,34.4292,0.0200,0.2700,0.0000,0.0000,0.0000,0.0000,0.0000,0.0000
34.8321,37.4468,11.9604,0.1657,0.1642,0.1200,1.6200,0.6400,0.0000,-0.3596,-0.3091,0.0018,996,1502,1527,1502,2008,1000,1505,1000,1000,1004,1005,1000,1014,0.1032,-0.0142,-0.0556,-0.0201,0.0144,0.9984,-0.0487,0.6669,0.0523,-0.6705,0.8627,0.2400,0.1321,0.8627,0.2400,0.1321,0.3000,0.0600,0.0002,0,-4.9132,-255.4314,-0.4764,-4.9132,-255.4314,-0.4764,37.6576,34.4083,0.0200,0.2700,0.0000,0.0000,0.0000,0.0000,0.0000,0.0000
34.7988,37.4236,11.9393,0.0829,-0.0000,0.1200,1.6200,0.6400,0.0000,-0.3592,-0.3088,0.0020,996,1502,1527,1502,2008,1000,1505,1000,1000,1004,1005,1000,1014,0.0325,-0.0473,-0.1068,-0.0190,0.0134,0.9987,-0.0484,0.6661,0.0524,-0.6700,0.8627,0.2400,0.1321,0.8627,0.2400,0.1321,0.3000,0.0600,0.0002,0,-4.9132,-255.4314,-0.4764,-4.9132,-255.4314,-0.4764,37.6220,34.3876,0.0200,0.2700,0.0000,0.0000,0.0000,0.0000,0.0000,0.0000
34.7655,37.4005,11.9183,0.0829,-0.0000,0.1200,1.6200,0.6400,0.0000,-0.3591,-0.3086,0.0017,996,1502,1527,1502,2008,1000,1505,1000,1000,1004,1005,1000,1014,0.1257,-0.0237,-0.0286,-0.0194,0.0095,1.0000,-0.0487,0.6660,0.0521,-0.6694,0.8627,0.2400,0.1321,0.8627,0.2400,0.1321,0.3000,0.0600,0.0002,0,-4.9132,-255.4314,-0.4764,-4.9132,-255.4314,-0.4764,37.5868,34.3668,0.0200,0.2700,0.0000,0.0000,0.0000,0.0000,0.0000,0.0000
34.7331,37.3775,11.8979,0.0829,0.0821,0.1200,1.6200,0.6400,0.0000,-0.3587,-0.3085,0.0017,996,1502,1527,1502,2008,1000,1505,1000,1000,1004,1005,1000,1014,0.1022,0.0486,0.0129,-0.0201,0.0115,0.9995,-0.0485,0.6656,0.0519,-0.6689,0.8627,0.2400,0.1321,0.8627,0.2400,0.1321,0.3000,0.0600,0.0002,0,-4.9132,-255.4314,-0.4764,-4.9132,-255.4314,-0.4764,37.5519,34.3458,0.0200,0.2700,0.0000,0.0000,0.0000,0.0000,0.0000,0.0000
34.7005,37.3547,11.8782,0.0829,-0.0000,0.1200,1.6200,0.6400,0.0000,-0.3584,-0.3083,0.0014,998,1504,1528,1502,2008,1000,1505,1000,1000,1003,1005,1000,1014,0.0195,0.0255,0.0630,-0.0178,0.0124,0.9977,-0.0486,0.6652,0.0515,-0.6681,0.8627,0.2400,0.1321,0.8627,0.2400,0.1321,0.3000,0.0600,0.0002,0,-4.9132,-255.4314,-0.4764,-4.9132,-255.4314,-0.4764,37.5167,34.3243,0.0200,0.2700,0.0000,0.0000,0.0000,0.0000,0.0000,0.0000
34.6671,37.3313,11.8577,-0.0000,0.0821,0.1200,1.6200,0.6400,0.0000,-0.3581,-0.3081,0.0018,996,1502,1527,1502,2008,1000,1505,1000,1000,1003,1005,1000,1014,0.0807,0.0026,-0.0605,-0.0188,0.0129,1.0010,-0.0482,0.6644,0.0519,-0.6680,0.8627,0.2400,0.1321,0.8627,0.2400,0.1321,0.3000,0.0600,0.0002,0,-4.8936,-255.4314,-0.4764,-4.8936,-255.4314,-0.4764,37.4819,34.3034,0.0200,0.2700,0.0000,0.0000,0.0000,0.0000,0.0000,0.0000
34.6347,37.3079,11.8377,0.0829,-0.0000,0.1200,1.6200,0.6400,0.0000,-0.3579,-0.3079,0.0017,996,1502,1527,1502,2008,1000,1505,1000,1000,1004,1005,1000,1014,0.1210,-0.0104,0.0040,-0.0188,0.0146,0.9977,-0.0484,0.6641,0.0518,-0.6675,0.8627,0.2400,0.1321,0.8627,0.2400,0.1321,0.3000,0.0600,0.0002,0,-4.9132,-255.4314,-0.4764,-4.9132,-255.4314,-0.4764,37.4463,34.2830,0.0200,0.2700,0.0000,0.0000,0.0000,0.0000,0.0000,0.0000
34.6019,37.2850,11.8169,0.1657,-0.0000,0.1200,1.6200,0.6400,0.0000,-0.3576,-0.3078,0.0018,996,1502,1527,1502,2008,1000,1505,1000,1000,1004,1005,1000,1014,0.1220,0.0981,-0.0466,-0.0221,0.0120,1.0011,-0.0480,0.6636,0.0517,-0.6673,0.8627,0.2400,0.1321,0.8627,0.2400,0.1321,0.3000,0.0600,0.0002,0,-4.9132,-255.4314,-0.4764,-4.9132,-255.4314,-0.4764,37.4119,34.2624,0.0200,0.2700,0.0000,0.0000,0.0000,0.0000,0.0000,0.0000
34.5686,37.2623,11.7959,-0.0000,-0.0821,0.1200,1.6200,0.6400,0.0000,-0.3573,-0.3075,0.0018,996,1502,1527,1502,2008,1000,1505,1000,1000,1004,1005,1000,1014,0.0832,0.0463,-0.0416,-0.0226,0.0124,0.9992,-0.0480,0.6631,0.0515,-0.6666,0.8627,0.2400,0.1321,0.8627,0.2400,0.1321,0.3000,0.0600,0.0002,0,-4.9132,-255.4314,-0.4764,-4.9132,-255.4314,-0.4764,37.3772,34.2412,0.0200,0.2700,0.0000,0.0000,0.0000,0.0000,0.0000,0.0000
34.5361,37.2389,11.7760,0.0829,-0.0000,0.1200,1.6200,0.6400,0.0000,-0.3570,-0.3073,0.0016,996,1502,1527,1502,2008,1000,1505,1000,1000,1004,1005,1000,1014,0.0639,0.0032,0.0362,-0.0203,0.0110,0.9981,-0.0481,0.6627,0.0513,-0.6659,0.8627,0.2400,0.1321,0.8627,0.2400,0.1321,0.3000,0.0600,0.0002,0,-4.9132,-255.4314,-0.4764,-4.9132,-255.4314,-0.4764,37.3419,34.2198,0.0200,0.2700,0.0000,0.0000,0.0000,0.0000,0.0000,0.0000
34.5033,37.2159,11.7558,-0.0000,-0.0000,0.1200,1.6200,0.6400,0.0000,-0.3567,-0.3071,0.0018,998,1504,1528,1502,2008,1000,1505,1000,1000,1004,1005,1000,1014,0.0890,0.0385,-0.0365,-0.0242,0.0099,1.0000,-0.0478,0.6621,0.0514,-0.6657,0.8627,0.2400,0.1321,0.8627,0.2400,0.1321,0.3000,0.0600,0.0002,0,-4.9132,-255.4314,-0.4764,-4.9132,-255.4314,-0.4764,37.3066,34.1984,0.0200,0.2700,0.0000,0.0000,0.0000,0.0000,0.0000,0.0000
34.4707,37.1926,11.7357,0.0829,-0.0000,0.1200,1.6200,0.6400,0.0000,-0.3565,-0.3070,0.0017,996,1502,1527,1502,2008,1000,1505,1000,1000,1003,1005,1000,1014,0.1084,0.0697,-0.0046,-0.0204,0.0152,0.9988,-0.0478,0.6618,0.0512,-0.6652,0.8627,0.2400,0.1321,0.8627,0.2400,0.1321,0.3000,0.0600,0.0002,0,-4.8936,-255.4314,-0.4764,-4.8936,-255.4314,-0.4764,37.2711,34.1766,0.0200,0.2700,0.0000,0.0000,0.0000,0.0000,0.0000,0.0000
34.4382,37.1691,11.7156,0.0829,0.0821,0.1200,1.6200,0.6400,0.0000,-0.3562,-0.3066,0.0018,996,1502,1527,1502,2008,1000,1505,1000,1000,1003,1005,1000,1014,0.0700,-0.0281,-0.0259,-0.0213,0.0136,1.0031,-0.0477,0.6610,0.0513,-0.6646,0.8627,0.2400,0.1321,0.8627,0.2400,0.1321,0.3000,0.0600,0.0002,0,-4.8936,-255.4314,-0.4764,-4.8936,-255.4314,-0.4764,37.2357,34.1549,0.0200,0.2700,0.0000,0.0000,0.0000,0.0000,0.0000,0.0000
34.4054,37.1457,11.6950,0.0829,-0.0000,0.1200,1.6200,0.6400,0.0000,-0.3559,-0.3065,0.0017,996,1502,1527,1502,2008,1000,1505,1000,1000,1004,1005,1000,1014,0.1051,0.0284,0.0058,-0.0198,0.0150,1.0006,-0.0477,0.6608,0.0511,-0.6641,0.8627,0.2400,0.1321,0.8627,0.2400,0.1321,0.3000,0.0600,0.0002,0,-4.9132,-255.4314,-0.4764,-4.9132,-255.4314,-0.4764,37.2007,34.1343,0.0200,0.2700,0.0000,0.0000,0.0000,0.0000,0.0000,0.0000
34.3725,37.1225,11.6745,-0.0000,-0.0000,0.1200,1.6200,0.6400,0.0000,-0.3556,-0.3064,0.0019,996,1502,1527,1502,2008,1000,1505,1000,1000,1004,1005,1000,1014,0.0429,0.0935,-0.0532,-0.0200,0.0155,0.9973,-0.0473,0.6601,0.0510,-0.6638,0.8627,0.2400,0.1321,0.8627,0.2400,0.1321,0.3000,0.0600,0.0002,0,-4.9132,-255.4314,-0.4764,-4.9132,-255.4314,-0.4764,37.1657,34.1137,0.0200,0.2700,0.0000,0.0000,0.0000,0.0000,0.0000,0.0000
34.3396,37.0996,11.6542,0.0829,0.0821,0.1200,1.6200,0.6400,0.0000,-0.3553,-0.3061,0.0017,996,1502,1527,1502,2008,1000,1505,1000,1000,1004,1005,1000,1014,0.0839,0.0392,0.0059,-0.0216,0.0140,0.9982,-0.0475,0.6598,0.0509,-0.6631,0.8627,0.2400,0.1321,0.8627,0.2400,0.1321,0.3000,0.0600,0.0002,0,-4.9132,-255.4314,-0.4764,-4.9132,-255.4314,-0.4764,37.1309,34.0927,0.0200,0.2700,0.0000,0.0000,0.0000,0.0000,0.0000,0.0000
34.3065,37.0761,11.6333,-0.0000,-0.0000,0.1200,1.6200,0.6400,0.0000,-0.3550,-0.3059,0.0018,998,1504,1528,1502,2008,1000,1505,1000,1000,1004,1005,1000,1014,0.0541,0.0011,-0.0406,-0.0214,0.0118,1.0005,-0.0473,0.6590,0.0510,-0.6627,0.8627,0.2400,0.1321,0.8627,0.2400,0.1321,0.3000,0.0600,0.0002,0,-4.9132,-255.4314,-0.4764,-4.9132,-255.4314,-0.4764,37.0964,34.0713,0.0200,0.2700,0.0000,0.0000,0.0000,0.0000,0.0000,0.0000
34.2739,37.0525,11.6131,0.0829,0.0821,0.1200,1.6200,0.6400,0.0000,-0.3547,-0.3056,0.0016,996,1502,1527,1502,2008,1000,1505,1000,1000,1004,1005,1000,1014,0.0702,-0.0262,0.0314,-0.0182,0.0162,1.0045,-0.0475,0.6588,0.0507,-0.6620,0.8627,0.2400,0.1321,0.8627,0.2400,0.1321,0.3000,0.0600,0.0002,0,-4.9132,-255.4314,-0.4764,-4.9132,-255.4314,-0.4764,37.0617,34.0498,0.0200,0.2700,0.0000,0.0000,0.0000,0.0000,0.0000,0.0000
34.2415,37.0292,11.5932,0.1657,-0.0000,0.1200,1.6200,0.6400,0.0000,-0.3545,-0.3054,0.0018,996,1502,1527,1502,2008,1000,1505,1000,1000,1004,1005,1000,1014,0.1000,-0.0192,-0.0356,-0.0215,0.0149,1.0008,-0.0472,0.6581,0.0509,-0.6618,0.8627,0.2400,0.1321,0.8627,0.2400,0.1321,0.3000,0.0600,0.0002,0,-4.9132,-255.4314,-0.4764,-4.9132,-255.4314,-0.4764,37.0273,34.0282,0.0200,0.2700,0.0000,0.0000,0.0000,0.0000,0.0000,0.0000
34.2090,37.0059,11.5732,0.0829,-0.0000,0.1200,1.6200,0.6400,0.0000,-0.3542,-0.3053,0.0018,996,1502,1527,1502,2008,1000,1505,1000,1000,1004,1005,1000,1014,0.1079,0.0120,-0.0272,-0.0221,0.0147,0.9937,-0.0471,0.6577,0.0508,-0.6613,0.8627,0.2400,0.1321,0.8627,0.2400,0.1321,0.3000,0.0600,0.0002,0,-4.9132,-255.4314,-0.4764,-4.9132,-255.4314,-0.4764,36.9925,34.0075,0.0200,0.2700,0.0000,0.0000,0.0000,0.0000,0.0000,0.0000
34.1765,36.9826,11.5526,0.0829,-0.0000,0.1200,1.6200,0.6400,0.0000,-0.3539,-0.3051,0.0018,996,1502,1527,1502,2008,1000,1505,1000,1000,1004,1005,1000,1014,0.0698,0.0264,-0.0223,-0.0203,0.0138,1.0006,-0.0470,0.6572,0.0506,-0.6608,0.8627,0.2400,0.1321,0.8627,0.2400,0.1321,0.3000,0.0600,0.0002,0,-4.9132,-255.4314,-0.4764,-4.9132,-255.4314,-0.4764,36.9574,33.9861,0.0200,0.2700,0.0000,0.0000,0.0000,0.0000,0.0000,0.0000
34.1438,36.9596,11.5323,-0.0000,-0.0000,0.1200,1.6200,0.6400,0.0000,-0.3536,-0.3050,0.0017,996,1502,1527,1502,2008,1000,1505,1000,1000,1004,1005,1000,1014,0.0714,0.0924,-0.0075,-0.0187,0.0138,1.0002,-0.0469,0.6569,0.0503,-0.6603,0.8627,0.2400,0.1321,0.8627,0.2400,0.1321,0.3000,0.0600,0.0002,0,-4.9132,-255.4314,-0.4764,-4.9132,-255.4314,-0.4764,36.9220,33.9645,0.0200,0.2700,0.0000,0.0000,0.0000,0.0000,0.0000,0.0000
34.1116,36.9360,11.5124,0.0829,-0.0000,0.1200,1.6200,0.6400,0.0000,-0.3534,-0.3046,0.0018,998,1504,1528,1502,2008,1000,1505,1000,1000,1004,1005,1000,1014,0.0838,-0.0417,-0.0015,-0.0201,0.0141,0.9992,-0.0470,0.6562,0.0505,-0.6598,0.8627,0.2400,0.1321,0.8627,0.2400,0.1321,0.3000,0.0600,0.0002,0,-4.9132,-255.4314,-0.4764,-4.9132,-255.4314,-0.4764,36.8869,33.9431,0.0200,0.2700,0.0000,0.0000,0.0000,0.0000,0.0000,0.0000
34.0787,36.9126,11.4922,0.0829,0.0821,0.1200,1.6200,0.6400,0.0000,-0.3531,-0.3045,0.0019,996,1502,1527,1502,2008,1000,1505,1000,1000,1004,1005,1000,1014,0.0909,0.0345,-0.0227,-0.0178,0.0143,0.9978,-0.0467,0.6557,0.0504,-0.6594,0.8627,0.2400,0.1321,0.8627,0.2400,0.1321,0.3000,0.0600,0.0002,0,-4.9132,-255.4314,-0.4764,-4.9132,-255.4314,-0.4764,36.8512,33.9217,0.0200,0.2700,0.0000,0.0000,0.0000,0.0000,0.0000,0.0000
34.0460,36.8892,11.4717,0.0829,-0.0000,0.1200,1.6200,0.6400,0.0000,-0.3528,-0.3043,0.0019,996,1502,1527,1502,2008,1000,1505,1000,1000,1004,1005,1000,1014,0.0865,-0.0098,-0.0439,-0.0236,0.0127,1.0000,-0.0466,0.6551,0.0504,-0.6590,0.8627,0.2400,0.1321,0.8627,0.2400,0.1321,0.3000,0.0600,0.0002,0,-4.9132,-255.4314,-0.4764,-4.9132,-255.4314,-0.4764,36.8156,33.8997,0.0200,0.2700,0.0000,0.0000,0.0000,0.0000,0.0000,0.0000
34.0130,36.8655,11.4509,0.0829,0.0821,0.1200,1.6200,0.6400,0.0000,-0.3525,-0.3040,0.0018,996,1502,1527,1502,2008,1000,1505,1000,1000,1004,1005,1000,1014,0.0885,-0.0216,-0.0264,-0.0196,0.0130,0.9994,-0.0467,0.6548,0.0503,-0.6583,0.8627,0.2400,0.1321,0.8627,0.2400,0.1321,0.3000,0.0600,0.0002,0,-4.9132,-255.4314,-0.4764,-4.9132,-255.4314,-0.4764,36.7807,33.8782,0.0200,0.2700,0.0000,0.0000,0.0000,0.0000,0.0000,0.0000
33.9802,36.8410,11.4307,0.0829,-0.0000,0.1200,1.6200,0.6400,0.0000,-0.3522,-0.3039,0.0016,996,1502,1527,1502,2008,1000,1505,1000,1000,1004,1005,1000,1014,0.0912,0.0369,0.0586,-0.0232,0.0144,0.9999,-0.0468,0.6546,0.0499,-0.6577,0.8627,0.2400,0.1321,0.8627,0.2400,0.1321,0.3000,0.0600,0.0002,0,-4.9132,-255.4314,-0.4764,-4.9132,-255.4314,-0.4764,36.7459,33.8568,0.0200,0.2700,0.0000,0.0000,0.0000,0.0000,0.0000,0.0000
33.9478,36.8170,11.4110,-0.0000,-0.0821,0.1200,1.6200,0.6400,0.0000,-0.3519,-0.3037,0.0016,996,1502,1527,1502,2008,1000,1505,1000,1000,1004,1005,1000,1014,0.0845,0.0082,0.0628,-0.0194,0.0160,0.9971,-0.0467,0.6540,0.0499,-0.6572,0.8627,0.2400,0.1321,0.8627,0.2400,0.1321,0.3000,0.0600,0.0002,0,-4.9132,-255.4314,-0.4764,-4.9132,-255.4314,-0.4764,36.7112,33.8354,0.0200,0.2700,0.0000,0.0000,0.0000,0.0000,0.0000,0.0000
33.9157,36.7931,11.3918,0.0829,0.0821,0.1200,1.6200,0.6400,0.0000,-0.3517,-0.3035,0.0017,998,1504,1528,1502,2008,1000,1505,1000,1000,1003,1005,1000,1014,0.0995,0.0213,0.0402,-0.0190,0.0136,1.0018,-0.0466,0.6535,0.0499,-0.6568,0.8627,0.2400,0.1321,0.8627,0.2400,0.1321,0.3000,0.0600,0.0002,0,-4.9132,-255.4314,-0.4764,-4.9132,-255.4314,-0.4764,36.6762,33.8140,0.0200,0.2700,0.0000,0.0000,0.0000,0.0000,0.0000,0.0000
33.8833,36.7694,11.3718,-0.0829,-0.0821,0.1200,1.6200,0.6400,0.0000,-0.3514,-0.3033,0.0019,996,1502,1527,1502,2008,1000,1505,1000,1000,1003,1005,1000,1014,0.0665,0.0126,-0.0329,-0.0208,0.0121,0.9989,-0.0462,0.6527,0.0500,-0.6565,0.8627,0.2400,0.1321,0.8627,0.2400,0.1321,0.3000,0.0600,0.0002,0,-4.8936,-255.4314,-0.4764,-4.8936,-255.4314,-0.4764,36.6411,33.7921,0.0200,0.2700,0.0000,0.0000,0.0000,0.0000,0.0000,0.0000
33.8508,36.7459,11.3522,0.1657,0.0821,0.1200,1.6200,0.6400,0.0000,-0.3511,-0.3031,0.0018,996,1502,1527,1502,2008,1000,1505,1000,1000,1004,1005,1000,1014,0.0856,0.0180,-0.0123,-0.0211,0.0116,0.9985,-0.0462,0.6523,0.0499,-0.6560,0.8627,0.2400,0.1321,0.8627,0.2400,0.1321,0.3000,0.0600,0.0002,0,-4.9132,-255.4314,-0.4764,-4.9132,-255.4314,-0.4764,36.6069,33.7710,0.0200,0.2700,0.0000,0.0000,0.0000,0.0000,0.0000,0.0000
33.8180,36.7221,11.3318,0.0829,-0.0000,0.1200,1.6200,0.6400,0.0000,-0.3508,-0.3028,0.0018,996,1502,1527,1502,2008,1000,1505,1000,1000,1004,1005,1000,1014,0.0923,-0.0403,-0.0064,-0.0178,0.0156,1.0001,-0.0463,0.6518,0.0499,-0.6554,0.8627,0.2400,0.1321,0.8627,0.2400,0.1321,0.3000,0.0600,0.0002,0,-4.9132,-255.4314,-0.4764,-4.9132,-255.4314,-0.4764,36.5725,33.7500,0.0200,0.2700,0.0000,0.0000,0.0000,0.0000,0.0000,0.0000
33.7852,36.6982,11.3115,0.0829,-0.0000,0.1200,1.6200,0.6400,0.0000,-0.3505,-0.3026,0.0019,996,1502,1527,1502,2008,1000,1505,1000,1000,1003,1005,1000,1014,0.0811,-0.0249,-0.0343,-0.0179,0.0148,0.9986,-0.0460,0.6512,0.0499,-0.6550,0.8627,0.2400,0.1321,0.8627,0.2400,0.1321,0.3000,0.0600,0.0002,0,-4.8936,-255.4314,-0.4764,-4.8936,-255.4314,-0.4764,36.5382,33.7282,0.0200,0.2700,0.0000,0.0000,0.0000,0.0000,0.0000,0.0000
33.7535,36.6751,11.2922,-0.0000,0.0821,0.1200,1.6200,0.6400,0.0000,-0.3502,-0.3025,0.0018,996,1502,1527,1502,2008,1000,1505,1000,1000,1003,1005,1000,1014,0.0630,0.0230,0.0089,-0.0184,0.0137,0.9997,-0.0460,0.6509,0.0496,-0.6545,0.8627,0.2400,0.1321,0.8627,0.2400,0.1321,0.3000,0.0600,0.0002,0,-4.8936,-255.4314,-0.4764,-4.8936,-255.4314,-0.4764,36.5047,33.7071,0.0200,0.2700,0.0000,0.0000,0.0000,0.0000,0.0000,0.0000
33.7207,36.6518,11.2723,0.1657,-0.0000,0.1200,1.6200,0.6400,0.0000,-0.3500,-0.3023,0.0017,996,1502,1527,1502,2008,1000,1505,1000,1000,1004,1005,1000,1014,0.0647,0.0308,0.0080,-0.0189,0.0161,1.0002,-0.0460,0.6505,0.0494,-0.6539,0.8627,0.2400,0.1321,0.8627,0.2400,0.1321,0.3000,0.0600,0.0002,0,-4.9132,-255.4314,-0.4764,-4.9132,-255.4314,-0.4764,36.4697,33.6851,0.0200,0.2700,0.0000,0.0000,0.0000,0.0000,0.0000,0.0000
33.6882,36.6280,11.2523,-0.0000,-0.0000,0.1800,1.6200,0.6400,0.0000,-0.3492,-0.3020,0.0017,996,1502,1527,1502,2008,1000,1505,1000,1000,1004,1005,1000,1014,0.1068,0.0125,0.0170,-0.0223,0.0138,0.9992,-0.0454,0.6495,0.0489,-0.6530,0.8627,0.2400,0.1321,0.8627,0.2400,0.1321,0.3000,0.0600,0.0002,0,-4.9132,-255.4314,-0.4764,-4.9132,-255.4314,-0.4764,36.4343,33.6633,0.0300,0.2700,0.0000,0.0000,0.0000,0.0000,0.0000,0.0000
33.6559,36.6041,11.2326,0.0829,-0.0000,0.1200,1.6200,0.6400,0.0000,-0.3494,-0.3019,0.0017,996,1502,1527,1502,2008,1000,1505,1000,1000,1004,1005,1000,1014,0.0916,0.0612,0.0171,-0.0205,0.0111,1.0015,-0.0458,0.6496,0.0493,-0.6531,0.8627,0.2400,0.1321,0.8627,0.2400,0.1321,0.3000,0.0600,0.0002,0,-4.9132,-255.4314,-0.4764,-4.9132,-255.4314,-0.4764,36.3989,33.6421,0.0200,0.2700,0.0000,0.0000,0.0000,0.0000,0.0000,0.0000
33.6239,36.5807,11.2132,0.1657,-0.0000,0.1200,1.6200,0.6400,0.0000,-0.3492,-0.3016,0.0018,996,1502,1527,1502,2008,1000,1505,1000,1000,1004,1005,1000,1014,0.1186,0.0199,0.0092,-0.0229,0.0106,1.0003,-0.0458,0.6490,0.0493,-0.6526,0.8627,0.2400,0.1321,0.8627,0.2400,0.1321,0.3000,0.0600,0.0002,0,-4.9132,-255.4314,-0.4764,-4.9132,-255.4314,-0.4764,36.3639,33.6202,0.0200,0.2700,0.0000,0.0000,0.0000,0.0000,0.0000,0.0000
33.5917,36.5571,11.1934,0.0829,-0.0000,0.1200,1.6200,0.6400,0.0000,-0.3490,-0.3015,0.0018,996,1502,1527,1502,2008,1000,1505,1000,1000,1004,1005,1000,1014,0.1517,0.0722,0.0071,-0.0184,0.0158,0.9982,-0.0457,0.6487,0.0493,-0.6522,0.8627,0.2400,0.1321,0.8627,0.2400,0.1321,0.3000,0.0600,0.0002,0,-4.9132,-255.4314,-0.4764,-4.9132,-255.4314,-0.4764,36.3296,33.5984,0.0200,0.2700,0.0000,0.0000,0.0000,0.0000,0.0000,0.0000
33.5601,36.5337,11.1738,-0.0000,-0.0000,0.1200,1.6200,0.6400,0.0000,-0.3487,-0.3013,0.0019,996,1502,1527,1502,2008,1000,1505,1000,1000,1004,1005,1000,1014,0.1254,0.0873,-0.0359,-0.0191,0.0128,0.9998,-0.0454,0.6481,0.0492,-0.6519,0.8627,0.2400,0.1321,0.8627,0.2400,0.1321,0.3000,0.0600,0.0002,0,-4.9132,-255.4314,-0.4764,-4.9132,-255.4314,-0.4764,36.2948,33.5762,0.0200,0.2700,0.0000,0.0000,0.0000,0.0000,0.0000,0.0000
33.5276,36.5099,11.1536,0.1657,-0.0000,0.1200,1.6200,0.6400,0.0000,-0.3483,-0.3010,0.0019,996,1502,1527,1502,2008,1000,1505,1000,1000,1004,1005,1000,1014,0.0737,-0.0259,-0.0400,-0.0203,0.0114,0.9979,-0.0454,0.6474,0.0493,-0.6512,0.8627,0.2400,0.1321,0.8627,0.2400,0.1321,0.3000,0.0600,0.0002,0,-4.9132,-255.4314,-0.4764,-4.9132,-255.4314,-0.4764,36.2598,33.5539,0.0200,0.2700,0.0000,0.0000,0.0000,0.0000,0.0000,0.0000
33.4949,36.4858,11.1331,0.0829,-0.0821,0.1800,1.6200,0.6400,0.0000,-0.3475,-0.3007,0.0018,996,1502,1527,1502,2008,1000,1505,1000,1000,1004,1005,1000,1014,0.0829,-0.0947,-0.0020,-0.0221,0.0121,0.9969,-0.0450,0.6463,0.0487,-0.6500,0.8627,0.2400,0.1321,0.8627,0.2400,0.1321,0.3000,0.0600,0.0002,0,-4.9132,-255.4314,-0.4764,-4.9132,-255.4314,-0.4764,36.2243,33.5318,0.0300,0.2700,0.0000,0.0000,0.0000,0.0000,0.0000,0.0000
33.4618,36.4616,11.1126,0.0829,-0.0000,0.1200,1.6200,0.6400,0.0000,-0.3478,-0.3006,0.0022,996,1502,1527,1502,2008,1000,1505,1000,1000,1004,1005,1000,1014,0.1116,-0.0163,-0.1163,-0.0234,0.0140,0.9987,-0.0450,0.6462,0.0494,-0.6505,0.8627,0.2400,0.1321,0.8627,0.2400,0.1321,0.3000,0.0600,0.0002,0,-4.9132,-255.4314,-0.4764,-4.9132,-255.4314,-0.4764,36.1895,33.5100,0.0200,0.2700,0.0000,0.0000,0.0000,0.0000,0.0000,0.0000
33.4285,36.4374,11.0917,0.0829,0.0821,0.1200,1.6200,0.6400,0.0000,-0.3474,-0.3002,0.0018,996,1502,1527,1502,2008,1000,1505,1000,1000,1004,1005,1000,1014,0.0663,-0.1013,0.0101,-0.0205,0.0155,0.9981,-0.0454,0.6459,0.0490,-0.6494,0.8627,0.2400,0.1321,0.8627,0.2400,0.1321,0.3000,0.0600,0.0002,0,-4.9132,-255.4314,-0.4764,-4.9132,-255.4314,-0.4764,36.1547,33.4884,0.0200,0.2700,0.0000,0.0000,0.0000,0.0000,0.0000,0.0000
33.3960,36.4134,11.0719,0.0829,-0.0821,0.1200,1.6200,0.6400,0.0000,-0.3471,-0.3002,0.0021,996,1502,1527,1502,2008,1000,1505,1000,1000,1004,1005,1000,1014,0.0422,0.0348,-0.0866,-0.0230,0.0125,0.9957,-0.0449,0.6453,0.0490,-0.6494,0.8627,0.2400,0.1321,0.8627,0.2400,0.1321,0.3000,0.0600,0.0002,0,-4.9132,-255.4314,-0.4764,-4.9132,-255.4314,-0.4764,36.1198,33.4672,0.0200,0.2700,0.0000,0.0000,0.0000,0.0000,0.0000,0.0000
33.3632,36.3900,11.0522,-0.0000,-0.0000,0.1200,1.6200,0.6400,0.0000,-0.3469,-0.3000,0.0019,996,1502,1527,1502,2008,1000,1505,1000,1000,1004,1005,1000,1014,0.0732,0.0324,-0.0264,-0.0195,0.0135,0.9983,-0.0450,0.6450,0.0488,-0.6488,0.8627,0.2400,0.1321,0.8627,0.2400,0.1321,0.3000,0.0600,0.0002,0,-4.9132,-255.4314,-0.4764,-4.9132,-255.4314,-0.4764,36.0851,33.4454,0.0200,0.2700,0.0000,0.0000,0.0000,0.0000,0.0000,0.0000
33.3298,36.3660,11.0315,0.0829,-0.0000,0.1200,1.6200,0.6400,0.0000,-0.3467,-0.2997,0.0021,996,1502,1527,1502,2008,1000,1505,1000,1000,1004,1005,1000,1014,0.1278,-0.0305,-0.0782,-0.0197,0.0134,0.9981,-0.0449,0.6443,0.0491,-0.6485,0.8627,0.2400,0.1321,0.8627,0.2400,0.1321,0.3000,0.0600,0.0002,0,-4.9132,-255.4314,-0.4764,-4.9132,-255.4314,-0.4764,36.0506,33.4235,0.0200,0.2700,0.0000,0.0000,0.0000,0.0000,0.0000,0.0000
33.2974,36.3422,11.0118,0.0829,-0.0000,0.1800,1.6200,0.6400,0.0000,-0.3458,-0.2996,0.0018,996,1502,1527,1502,2008,1000,1505,1000,1000,1004,1005,1000,1014,0.1030,0.0546,0.0013,-0.0232,0.0142,0.9952,-0.0444,0.6436,0.0480,-0.6473,0.8627,0.2400,0.1321,0.8627,0.2400,0.1321,0.3000,0.0600,0.0002,0,-4.9132,-255.4314,-0.4764,-4.9132,-255.4314,-0.4764,36.0155,33.4016,0.0300,0.2700,0.0000,0.0000,0.0000,0.0000,0.0000,0.0000
33.2648,36.3180,10.9920,-0.0000,-0.0821,0.1200,1.6200,0.6400,0.0000,-0.3460,-0.2993,0.0016,996,1502,1527,1502,2008,1000,1505,1000,1000,1004,1005,1000,1014,0.0786,-0.0137,0.0734,-0.0212,0.0138,0.9979,-0.0451,0.6438,0.0483,-0.6470,0.8627,0.2400,0.1321,0.8627,0.2400,0.1321,0.3000,0.0600,0.0002,0,-4.9132,-255.4314,-0.4764,-4.9132,-255.4314,-0.4764,35.9807,33.3797,0.0200,0.2700,0.0000,0.0000,0.0000,0.0000,0.0000,0.0000
33.2320,36.2937,10.9719,0.0829,-0.0000,0.1200,1.6200,0.6400,0.0000,-0.3457,-0.2992,0.0020,996,1502,1527,1502,2008,1000,1505,1000,1000,1004,1005,1000,1014,0.0586,0.0277,-0.0440,-0.0206,0.0139,0.9973,-0.0446,0.6429,0.0486,-0.6469,0.8627,0.2400,0.1321,0.8627,0.2400,0.1321,0.3000,0.0600,0.0002,0,-4.9132,-255.4314,-0.4764,-4.9132,-255.4314,-0.4764,35.9456,33.3574,0.0200,0.2700,0.0000,0.0000,0.0000,0.0000,0.0000,0.0000
33.1997,36.2700,10.9519,-0.0829,-0.0821,0.1200,1.6200,0.6400,0.0000,-0.3455,-0.2990,0.0020,996,1502,1527,1502,2008,1000,1505,1000,1000,1004,1005,1000,1014,0.1062,0.0803,-0.0302,-0.0217,0.0144,0.9971,-0.0445,0.6426,0.0485,-0.6465,0.8627,0.2400,0.1321,0.8627,0.2400,0.1321,0.3000,0.0600,0.0002,0,-4.9132,-255.4314,-0.4764,-4.9132,-255.4314,-0.4764,35.9103,33.3352,0.0200,0.2700,0.0000,0.0000,0.0000,0.0000,0.0000,0.0000
33.1670,36.2462,10.9318,0.1657,-0.0000,0.1200,1.6200,0.6400,0.0000,-0.3452,-0.2987,0.0020,996,1502,1527,1502,2008,1000,1505,1000,1000,1004,1005,1000,1014,0.0566,0.0131,-0.0304,-0.0205,0.0134,1.0008,-0.0445,0.6419,0.0484,-0.6459,0.8627,0.2400,0.1321,0.8627,0.2400,0.1321,0.3000,0.0600,0.0002,0,-4.9132,-255.4314,-0.4764,-4.9132,-255.4314,-0.4764,35.8751,33.3130,0.0200,0.2700,0.0000,0.0000,0.0000,0.0000,0.0000,0.0000
33.1342,36.2222,10.9115,-0.0000,-0.0000,0.1200,1.6200,0.6400,0.0000,-0.3449,-0.2985,0.0020,996,1502,1527,1502,2008,1000,1505,1000,1000,1004,1005,1000,1014,0.0941,-0.0252,-0.0515,-0.0207,0.0126,0.9999,-0.0445,0.6414,0.0484,-0.6454,0.8627,0.2400,0.1321,0.8627,0.2400,0.1321,0.3000,0.0600,0.0002,0,-4.9132,-255.4314,-0.4764,-4.9132,-255.4314,-0.4764,35.8403,33.2911,0.0200,0.2700,0.0000,0.0000,0.0000,0.0000,0.0000,0.0000
33.1015,36.1978,10.8917,0.1657,0.0821,0.1800,1.6200,0.6400,0.0000,-0.3441,-0.2983,0.0019,996,1502,1527,1502,2008,1000,1505,1000,1000,1004,1005,1000,1014,0.0752,-0.0206,-0.0076,-0.0202,0.0136,0.9979,-0.0439,0.6405,0.0477,-0.6443,0.8627,0.2400,0.1321,0.8627,0.2400,0.1321,0.3000,0.0600,0.0002,0,-4.9132,-255.4314,-0.4764,-4.9132,-255.4314,-0.4764,35.8057,33.2694,0.0300,0.2700,0.0000,0.0000,0.0000,0.0000,0.0000,0.0000
33.0692,36.1738,10.8718,0.1657,-0.0000,0.1200,1.6200,0.6400,0.0000,-0.3444,-0.2982,0.0020,996,1502,1527,1502,2008,1000,1505,1000,1000,1004,1005,1000,1014,0.0997,0.0498,-0.0321,-0.0170,0.0131,0.9986,-0.0442,0.6406,0.0482,-0.6445,0.8627,0.2400,0.1321,0.8627,0.2400,0.1321,0.3000,0.0600,0.0002,0,-4.9132,-255.4314,-0.4764,-4.9132,-255.4314,-0.4764,35.7707,33.2477,0.0200,0.2700,0.0000,0.0000,0.0000,0.0000,0.0000,0.0000
33.0367,36.1494,10.8519,0.0829,0.0821,0.1200,1.6200,0.6400,0.0000,-0.3441,-0.2978,0.0020,996,1502,1527,1502,2008,1000,1505,1000,1000,1004,1005,1000,1014,0.0936,-0.0655,-0.0432,-0.0225,0.0126,0.9976,-0.0443,0.6399,0.0483,-0.6439,0.8627,0.2400,0.1321,0.8627,0.2400,0.1321,0.3000,0.0600,0.0002,0,-4.9132,-255.4314,-0.4764,-4.9132,-255.4314,-0.4764,35.7352,33.2260,0.0200,0.2700,0.0000,0.0000,0.0000,0.0000,0.0000,0.0000
33.0044,36.1251,10.8325,0.0829,-0.0821,0.1200,1.6200,0.6400,0.0000,-0.3439,-0.2977,0.0017,996,1502,1527,1502,2008,1000,1505,1000,1000,1004,1005,1000,1014,0.1283,0.0035,0.0609,-0.0255,0.0097,1.0012,-0.0445,0.6398,0.0479,-0.6433,0.8627,0.2400,0.1321,0.8627,0.2400,0.1321,0.3000,0.0600,0.0002,0,-4.9132,-255.4314,-0.4764,-4.9132,-255.4314,-0.4764,35.6997,33.2042,0.0200,0.2700,0.0000,0.0000,0.0000,0.0000,0.0000,0.0000
32.9722,36.1013,10.8132,0.0829,0.0821,0.1200,1.6200,0.6400,0.0000,-0.3436,-0.2975,0.0019,996,1502,1527,1502,2008,1000,1505,1000,1000,1004,1005,1000,1014,0.1016,0.0328,-0.0025,-0.0209,0.0120,1.0030,-0.0442,0.6392,0.0479,-0.6429,0.8627,0.2400,0.1321,0.8627,0.2400,0.1321,0.3000,0.0600,0.0002,0,-4.9132,-255.4314,-0.4764,-4.9132,-255.4314,-0.4764,35.6652,33.1829,0.0200,0.2700,0.0000,0.0000,0.0000,0.0000,0.0000,0.0000
32.9402,36.0766,10.7939,0.1657,-0.0000,0.1200,1.6200,0.6400,0.0000,-0.3433,-0.2973,0.0018,996,1502,1527,1502,2008,1000,1505,1000,1000,1004,1005,1000,1014,0.0889,-0.0053,0.0531,-0.0226,0.0157,0.9980,-0.0443,0.6388,0.0478,-0.6423,0.8627,0.2400,0.1321,0.8627,0.2400,0.1321,0.3000,0.0600,0.0002,0,-4.9132,-255.4314,-0.4764,-4.9132,-255.4314,-0.4764,35.6302,33.1608,0.0200,0.2700,0.0000,0.0000,0.0000,0.0000,0.0000,0.0000
32.9078,36.0521,10.7743,0.1657,-0.0000,0.1800,1.6200,0.6400,0.0000,-0.3425,-0.2971,0.0020,996,1502,1527,1502,2008,1000,1505,1000,1000,1003,1005,1000,1014,0.0934,0.0266,-0.0464,-0.0208,0.0130,0.9959,-0.0434,0.6375,0.0474,-0.6416,0.8627,0.2400,0.1321,0.8627,0.2400,0.1321,0.3000,0.0600,0.0002,0,-4.8936,-255.4314,-0.4764,-4.8936,-255.4314,-0.4764,35.5953,33.1391,0.0300,0.2700,0.0000,0.0000,0.0000,0.0000,0.0000,0.0000
32.8754,36.0278,10.7545,0.0829,-0.0000,0.1200,1.6200,0.6400,0.0000,-0.3427,-0.2968,0.0020,996,1502,1527,1502,2008,1000,1505,1000,1000,1003,1005,1000,1014,0.1091,-0.0202,-0.0375,-0.0200,0.0133,0.9992,-0.0439,0.6375,0.0479,-0.6415,0.8627,0.2400,0.1321,0.8627,0.2400,0.1321,0.3000,0.0600,0.0002,0,-4.8936,-255.4314,-0.4764,-4.8936,-255.4314,-0.4764,35.5601,33.1170,0.0200,0.2700,0.0000,0.0000,0.0000,0.0000,0.0000,0.0000
32.8431,36.0037,10.7344,0.0829,-0.0000,0.1200,1.6200,0.6400,0.0000,-0.3425,-0.2966,0.0020,996,1502,1527,1502,2008,1000,1505,1000,1000,1004,1005,1000,1014,0.1164,-0.0317,-0.0549,-0.0212,0.0139,0.9991,-0.0438,0.6370,0.0479,-0.6411,0.8627,0.2400,0.1321,0.8627,0.2400,0.1321,0.3000,0.0600,0.0002,0,-4.9132,-255.4314,-0.4764,-4.9132,-255.4314,-0.4764,35.5258,33.0949,0.0200,0.2700,0.0000,0.0000,0.0000,0.0000,0.0000,0.0000
32.8107,35.9795,10.7147,-0.0000,-0.0000,0.1200,1.6200,0.6400,0.0000,-0.3421,-0.2964,0.0018,996,1502,1527,1502,2008,1000,1505,1000,1000,1004,1005,1000,1014,0.0688,-0.0344,0.0169,-0.0219,0.0116,0.9993,-0.0439,0.6366,0.0476,-0.6403,0.8627,0.2400,0.1321,0.8627,0.2400,0.1321,0.3000,0.0600,0.0002,0,-4.9132,-255.4314,-0.4764,-4.9132,-255.4314,-0.4764,35.4913,33.0730,0.0200,0.2700,0.0000,0.0000,0.0000,0.0000,0.0000,0.0000
32.7786,35.9549,10.6950,0.0829,0.0821,0.1200,1.6200,0.6400,0.0000,-0.3419,-0.2962,0.0018,996,1502,1527,1502,2008,1000,1505,1000,1000,1004,1005,1000,1014,0.1402,-0.0186,0.0309,-0.0225,0.0137,0.9991,-0.0439,0.6363,0.0476,-0.6399,0.8627,0.2400,0.1321,0.8627,0.2400,0.1321,0.3000,0.0600,0.0002,0,-4.9132,-255.4314,-0.4764,-4.9132,-255.4314,-0.4764,35.4566,33.0509,0.0200,0.2700,0.0000,0.0000,0.0000,0.0000,0.0000,0.0000
32.7467,35.9304,10.6760,0.1657,0.0821,0.1200,1.6200,0.6400,0.0000,-0.3416,-0.2961,0.0019,996,1502,1527,1502,2008,1000,1505,1000,1000,1004,1005,1000,1014,0.0633,0.0571,0.0159,-0.0234,0.0130,0.9995,-0.0436,0.6358,0.0474,-0.6395,0.8627,0.2400,0.1321,0.8627,0.2400,0.1321,0.3000,0.0600,0.0002,0,-4.9132,-255.4314,-0.4764,-4.9132,-255.4314,-0.4764,35.4214,33.0288,0.0200,0.2700,0.0000,0.0000,0.0000,0.0000,0.0000,0.0000
32.7145,35.9060,10.6573,0.0829,-0.0000,0.1800,1.6200,0.6400,0.0000,-0.3408,-0.2959,0.0019,996,1502,1527,1502,2008,1000,1505,1000,1000,1004,1005,1000,1014,0.0984,0.0551,0.0217,-0.0211,0.0148,0.9998,-0.0431,0.6348,0.0468,-0.6385,0.8627,0.2400,0.1321,0.8627,0.2400,0.1321,0.3000,0.0600,0.0002,0,-4.9132,-255.4314,-0.4764,-4.9132,-255.4314,-0.4764,35.3868,33.0067,0.0300,0.2700,0.0000,0.0000,0.0000,0.0000,0.0000,0.0000
32.6824,35.8813,10.6380,0.0829,-0.0000,0.1200,1.6200,0.6400,0.0000,-0.3410,-0.2955,0.0017,996,1502,1527,1502,2008,1000,1505,1000,1000,1004,1005,1000,1014,0.0578,-0.0265,0.0644,-0.0206,0.0124,1.0029,-0.0438,0.6349,0.0471,-0.6382,0.8627,0.2400,0.1321,0.8627,0.2400,0.1321,0.3000,0.0600,0.0002,0,-4.9132,-255.4314,-0.4764,-4.9132,-255.4314,-0.4764,35.3525,32.9844,0.0200,0.2700,0.0000,0.0000,0.0000,0.0000,0.0000,0.0000
32.6497,35.8567,10.6181,-0.0000,-0.0000,0.1200,1.6200,0.6400,0.0000,-0.3407,-0.2953,0.0020,996,1502,1527,1502,2008,1000,1505,1000,1000,1004,1005,1000,1014,0.0720,-0.0350,-0.0452,-0.0203,0.0138,1.0033,-0.0434,0.6340,0.0474,-0.6381,0.8627,0.2400,0.1321,0.8627,0.2400,0.1321,0.3000,0.0600,0.0002,0,-4.9132,-255.4314,-0.4764,-4.9132,-255.4314,-0.4764,35.3179,32.9625,0.0200,0.2700,0.0000,0.0000,0.0000,0.0000,0.0000,0.0000
32.6173,35.8319,10.5983,-0.0000,-0.0000,0.1200,1.6200,0.6400,0.0000,-0.3405,-0.2951,0.0019,996,1502,1527,1502,2008,1000,1505,1000,1000,1004,1005,1000,1014,0.0972,-0.0460,-0.0011,-0.0212,0.0134,1.0019,-0.0435,0.6337,0.0473,-0.6375,0.8627,0.2400,0.1321,0.8627,0.2400,0.1321,0.3000,0.0600,0.0002,0,-4.9132,-255.4314,-0.4764,-4.9132,-255.4314,-0.4764,35.2833,32.9401,0.0200,0.2700,0.0000,0.0000,0.0000,0.0000,0.0000,0.0000
32.5853,35.8075,10.5789,-0.0829,-0.0821,0.1200,1.6200,0.6400,0.0000,-0.3402,-0.2950,0.0019,996,1502,1527,1502,2008,1000,1505,1000,1000,1004,1005,1000,1014,0.0941,0.0602,0.0075,-0.0227,0.0155,1.0027,-0.0433,0.6333,0.0471,-0.6371,0.8627,0.2400,0.1321,0.8627,0.2400,0.1321,0.3000,0.0600,0.0002,0,-4.9132,-255.4314,-0.4764,-4.9132,-255.4314,-0.4764,35.2490,32.9179,0.0200,0.2700,0.0000,0.0000,0.0000,0.0000,0.0000,0.0000
32.5529,35.7829,10.5596,0.0829,0.0821,0.1200,1.6200,0.6400,0.0000,-0.3399,-0.2947,0.0019,996,1502,1527,1502,2008,1000,1505,1000,1000,1004,1005,1000,1014,0.0787,-0.0161,0.0095,-0.0212,0.0152,0.9994,-0.0433,0.6327,0.0471,-0.6365,0.8627,0.2400,0.1321,0.8627,0.2400,0.1321,0.3000,0.0600,0.0002,0,-4.9132,-255.4314,-0.4764,-4.9132,-255.4314,-0.4764,35.2143,32.8950,0.0200,0.2700,0.0000,0.0000,0.0000,0.0000,0.0000,0.0000
32.5206,35.7582,10.5404,-0.0829,-0.0821,0.1800,1.6200,0.6400,0.0000,-0.3391,-0.2945,0.0020,996,1502,1527,1502,2008,1000,1505,1000,1000,1004,1005,1000,1014,0.1103,-0.0045,-0.0148,-0.0187,0.0138,1.0030,-0.0427,0.6317,0.0466,-0.6356,0.8627,0.2400,0.1321,0.8627,0.2400,0.1321,0.3000,0.0600,0.0002,0,-4.9132,-255.4314,-0.4764,-4.9132,-255.4314,-0.4764,35.1797,32.8722,0.0300,0.2700,0.0000,0.0000,0.0000,0.0000,0.0000,0.0000
32.4887,35.7334,10.5212,0.1657,0.0821,0.1200,1.6200,0.6400,0.0000,-0.3394,-0.2943,0.0020,996,1502,1527,1502,2008,1000,1505,1000,1000,1004,1005,1000,1014,0.0863,-0.0028,0.0031,-0.0217,0.0145,0.9967,-0.0431,0.6317,0.0470,-0.6356,0.8627,0.2400,0.1321,0.8627,0.2400,0.1321,0.3000,0.0600,0.0002,0,-4.9132,-255.4314,-0.4764,-4.9132,-255.4314,-0.4764,35.1450,32.8496,0.0200,0.2700,0.0000,0.0000,0.0000,0.0000,0.0000,0.0000
32.4566,35.7084,10.5016,0.0829,-0.0000,0.1200,1.6200,0.6400,0.0000,-0.3392,-0.2940,0.0019,996,1502,1527,1502,2008,1000,1505,1000,1000,1004,1005,1000,1014,0.1488,-0.0665,0.0130,-0.0203,0.0160,0.9993,-0.0433,0.6313,0.0470,-0.6350,0.8627,0.2400,0.1321,0.8627,0.2400,0.1321,0.3000,0.0600,0.0002,0,-4.9132,-255.4314,-0.4764,-4.9132,-255.4314,-0.4764,35.1105,32.8269,0.0200,0.2700,0.0000,0.0000,0.0000,0.0000,0.0000,0.0000
32.4240,35.6834,10.4814,0.0829,-0.0000,0.1200,1.6200,0.6400,0.0000,-0.3389,-0.2939,0.0021,996,1502,1527,1502,2008,1000,1505,1000,1000,1004,1005,1000,1014,0.1319,0.0288,-0.0417,-0.0232,0.0164,0.9945,-0.0429,0.6307,0.0470,-0.6348,0.8627,0.2400,0.1321,0.8627,0.2400,0.1321,0.3000,0.0600,0.0002,0,-4.9132,-255.4314,-0.4764,-4.9132,-255.4314,-0.4764,35.0754,32.8044,0.0200,0.2700,0.0000,0.0000,0.0000,0.0000,0.0000,0.0000
32.3920,35.6592,10.4619,0.0829,-0.0000,0.1200,1.6200,0.6400,0.0000,-0.3385,-0.2937,0.0023,996,1502,1527,1502,2008,1000,1505,1000,1000,1004,1005,1000,1014,0.0945,0.0056,-0.0928,-0.0218,0.0138,0.9975,-0.0426,0.6299,0.0471,-0.6345,0.8627,0.2400,0.1321,0.8627,0.2400,0.1321,0.3000,0.0600,0.0002,0,-4.9132,-255.4314,-0.4764,-4.9132,-255.4314,-0.4764,35.0400,32.7813,0.0200,0.2700,0.0000,0.0000,0.0000,0.0000,0.0000,0.0000
32.3595,35.6344,10.4420,0.0829,-0.0000,0.1200,1.6200,0.6400,0.0000,-0.3382,-0.2934,0.0021,996,1502,1527,1502,2008,1000,1505,1000,1000,1004,1005,1000,1014,0.0810,-0.0517,-0.0539,-0.0211,0.0142,0.9967,-0.0427,0.6295,0.0470,-0.6338,0.8627,0.2400,0.1321,0.8627,0.2400,0.1321,0.3000,0.0600,0.0002,0,-4.9132,-255.4314,-0.4764,-4.9132,-255.4314,-0.4764,35.0047,32.7589,0.0200,0.2700,0.0000,0.0000,0.0000,0.0000,0.0000,0.0000
32.3268,35.6102,10.4223,-0.0000,0.0821,0.1800,1.6200,0.6400,0.0000,-0.3374,-0.2933,0.0022,996,1502,1527,1502,2008,1000,1505,1000,1000,1004,1005,1000,1014,0.0359,0.0220,-0.0669,-0.0198,0.0139,0.9982,-0.0419,0.6284,0.0463,-0.6328,0.8627,0.2400,0.1321,0.8627,0.2400,0.1321,0.3000,0.0600,0.0002,0,-4.9132,-255.4314,-0.4764,-4.9132,-255.4314,-0.4764,34.9699,32.7369,0.0300,0.2700,0.0000,0.0000,0.0000,0.0000,0.0000,0.0000
32.2941,35.5858,10.4027,0.0829,-0.0000,0.1200,1.6200,0.6400,0.0000,-0.3377,-0.2930,0.0020,996,1502,1527,1502,2008,1000,1505,1000,1000,1004,1005,1000,1014,0.1216,0.0132,-0.0088,-0.0195,0.0148,0.9979,-0.0427,0.6288,0.0467,-0.6327,0.8627,0.2400,0.1321,0.8627,0.2400,0.1321,0.3000,0.0600,0.0002,0,-4.9132,-255.4314,-0.4764,-4.9132,-255.4314,-0.4764,34.9355,32.7144,0.0200,0.2700,0.0000,0.0000,0.0000,0.0000,0.0000,0.0000
32.2626,35.5613,10.3839,0.0829,-0.0000,0.1200,1.6200,0.6400,0.0000,-0.3374,-0.2929,0.0019,996,1502,1527,1502,2008,1000,1505,1000,1000,1004,1005,1000,1014,0.0905,0.0941,0.0106,-0.0215,0.0168,0.9969,-0.0425,0.6284,0.0464,-0.6323,0.8627,0.2400,0.1321,0.8627,0.2400,0.1321,0.3000,0.0600,0.0002,0,-4.9132,-255.4314,-0.4764,-4.9132,-255.4314,-0.4764,34.9013,32.6919,0.0200,0.2700,0.0000,0.0000,0.0000,0.0000,0.0000,0.0000
32.2306,35.5369,10.3652,0.0829,-0.0000,0.1200,1.6200,0.6400,0.0000,-0.3371,-0.2926,0.0021,996,1502,1527,1502,2008,1000,1505,1000,1000,1003,1005,1000,1014,0.0805,-0.0157,-0.0173,-0.0202,0.0139,0.9978,-0.0425,0.6276,0.0466,-0.6318,0.8627,0.2400,0.1321,0.8627,0.2400,0.1321,0.3000,0.0600,0.0002,0,-4.8936,-255.4314,-0.4764,-4.8936,-255.4314,-0.4764,34.8669,32.6701,0.0200,0.2700,0.0000,0.0000,0.0000,0.0000,0.0000,0.0000
32.1981,35.5125,10.3454,0.0829,-0.0000,0.1200,1.6200,0.6400,0.0000,-0.3368,-0.2924,0.0021,996,1502,1527,1502,2008,1000,1505,1000,1000,1003,1005,1000,1014,0.0628,-0.0207,-0.0367,-0.0202,0.0147,1.0013,-0.0424,0.6271,0.0465,-0.6313,0.8627,0.2400,0.1321,0.8627,0.2400,0.1321,0.3000,0.0600,0.0002,0,-4.8936,-255.4314,-0.4764,-4.8936,-255.4314,-0.4764,34.8323,32.6473,0.0200,0.2700,0.0000,0.0000,0.0000,0.0000,0.0000,0.0000
32.1657,35.4876,10.3256,0.0829,-0.0000,0.1200,1.6200,0.6400,0.0000,-0.3366,-0.2921,0.0020,996,1502,1527,1502,2008,1000,1505,1000,1000,1004,1005,1000,1014,0.1006,-0.0611,-0.0109,-0.0199,0.0110,1.0008,-0.0425,0.6267,0.0465,-0.6307,0.8627,0.2400,0.1321,0.8627,0.2400,0.1321,0.3000,0.0600,0.0002,0,-4.9132,-255.4314,-0.4764,-4.9132,-255.4314,-0.4764,34.7973,32.6248,0.0200,0.2700,0.0000,0.0000,0.0000,0.0000,0.0000,0.0000
32.1332,35.4623,10.3056,0.0829,-0.0000,0.1800,1.6200,0.6400,0.0000,-0.3358,-0.2918,0.0022,996,1502,1527,1502,2008,1000,1505,1000,1000,1004,1005,1000,1014,0.0786,-0.1091,-0.0420,-0.0182,0.0114,1.0016,-0.0418,0.6254,0.0461,-0.6298,0.8627,0.2400,0.1321,0.8627,0.2400,0.1321,0.3000,0.0600,0.0002,0,-4.9132,-255.4314,-0.4764,-4.9132,-255.4314,-0.4764,34.7624,32.6021,0.0300,0.2700,0.0000,0.0000,0.0000,0.0000,0.0000,0.0000
32.1010,35.4373,10.2860,0.0829,-0.0000,0.1200,1.6200,0.6400,0.0000,-0.3361,-0.2917,0.0019,996,1502,1527,1502,2008,1000,1505,1000,1000,1004,1005,1000,1014,0.1463,-0.0473,0.0149,-0.0194,0.0122,1.0027,-0.0425,0.6258,0.0464,-0.6297,0.8627,0.2400,0.1321,0.8627,0.2400,0.1321,0.3000,0.0600,0.0002,0,-4.9132,-255.4314,-0.4764,-4.9132,-255.4314,-0.4764,34.7273,32.5793,0.0200,0.2700,0.0000,0.0000,0.0000,0.0000,0.0000,0.0000
32.0690,35.4122,10.2664,0.0829,-0.0000,0.1200,1.6200,0.6400,0.0000,-0.3358,-0.2915,0.0021,996,1502,1527,1502,2008,1000,1505,1000,1000,1004,1005,1000,1014,0.1151,-0.0035,-0.0357,-0.0182,0.0132,0.9961,-0.0421,0.6252,0.0464,-0.6294,0.8627,0.2400,0.1321,0.8627,0.2400,0.1321,0.3000,0.0600,0.0002,0,-4.9132,-255.4314,-0.4764,-4.9132,-255.4314,-0.4764,34.6924,32.5563,0.0200,0.2700,0.0000,0.0000,0.0000,0.0000,0.0000,0.0000
32.0360,35.3873,10.2466,0.0829,-0.0000,0.1200,1.6200,0.6400,0.0000,-0.3354,-0.2912,0.0022,996,1502,1527,1502,2008,1000,1505,1000,1000,1004,1005,1000,1014,0.0528,-0.0604,-0.0592,-0.0217,0.0146,1.0020,-0.0420,0.6245,0.0463,-0.6288,0.8627,0.2400,0.1321,0.8627,0.2400,0.1321,0.3000,0.0600,0.0002,0,-4.9132,-255.4314,-0.4764,-4.9132,-255.4314,-0.4764,34.6575,32.5334,0.0200,0.2700,0.0000,0.0000,0.0000,0.0000,0.0000,0.0000
32.0036,35.3626,10.2270,0.0829,-0.0000,0.1200,1.6200,0.6400,0.0000,-0.3351,-0.2911,0.0022,996,1502,1527,1502,2008,1000,1505,1000,1000,1004,1005,1000,1014,0.0446,-0.0237,-0.0437,-0.0189,0.0121,1.0000,-0.0419,0.6240,0.0462,-0.6283,0.8627,0.2400,0.1321,0.8627,0.2400,0.1321,0.3000,0.0600,0.0002,0,-4.9132,-255.4314,-0.4764,-4.9132,-255.4314,-0.4764,34.6227,32.5105,0.0200,0.2700,0.0000,0.0000,0.0000,0.0000,0.0000,0.0000
31.9707,35.3379,10.2071,-0.0829,-0.0000,0.1200,1.6200,0.6400,0.0000,-0.3349,-0.2908,0.0023,996,1502,1527,1502,2008,1000,1505,1000,1000,1004,1005,1000,1014,0.0645,-0.0756,-0.0872,-0.0203,0.0152,1.0012,-0.0418,0.6233,0.0464,-0.6280,0.8627,0.2400,0.1321,0.8627,0.2400,0.1321,0.3000,0.0600,0.0002,0,-4.9132,-255.4314,-0.4764,-4.9132,-255.4314,-0.4764,34.5886,32.4879,0.0200,0.2700,0.0000,0.0000,0.0000,0.0000,0.0000,0.0000
31.9378,35.3131,10.1873,0.0829,-0.0000,0.1800,1.6200,0.6400,0.0000,-0.3340,-0.2907,0.0022,996,1502,1527,1502,2008,1000,1505,1000,1000,1004,1005,1000,1014,0.0490,0.0064,-0.0532,-0.0212,0.0151,0.9999,-0.0412,0.6226,0.0455,-0.6269,0.8627,0.2400,0.1321,0.8627,0.2400,0.1321,0.3000,0.0600,0.0002,0,-4.9132,-255.4314,-0.4764,-4.9132,-255.4314,-0.4764,34.5539,32.4660,0.0300,0.2700,0.0000,0.0000,0.0000,0.0000,0.0000,0.0000
31.9057,35.2888,10.1679,-0.0000,-0.0821,0.1200,1.6200,0.6400,0.0000,-0.3344,-0.2905,0.0020,996,1502,1527,1502,2008,1000,1505,1000,1000,1004,1005,1000,1014,0.1230,0.0506,-0.0294,-0.0198,0.0150,1.0036,-0.0418,0.6229,0.0459,-0.6270,0.8627,0.2400,0.1321,0.8627,0.2400,0.1321,0.3000,0.0600,0.0002,0,-4.9132,-255.4314,-0.4764,-4.9132,-255.4314,-0.4764,34.5193,32.4439,0.0200,0.2700,0.0000,0.0000,0.0000,0.0000,0.0000,0.0000
31.8740,35.2641,10.1491,0.1657,0.0821,0.1200,1.6200,0.6400,0.0000,-0.3341,-0.2903,0.0018,996,1502,1527,1502,2008,1000,1505,1000,1000,1004,1005,1000,1014,0.0903,0.0474,0.0705,-0.0206,0.0131,1.0025,-0.0420,0.6226,0.0455,-0.6262,0.8627,0.2400,0.1321,0.8627,0.2400,0.1321,0.3000,0.0600,0.0002,0,-4.9132,-255.4314,-0.4764,-4.9132,-255.4314,-0.4764,34.4844,32.4212,0.0200,0.2700,0.0000,0.0000,0.0000,0.0000,0.0000,0.0000
31.8423,35.2397,10.1306,-0.0000,-0.0000,0.1200,1.6200,0.6400,0.0000,-0.3338,-0.2901,0.0019,996,1502,1527,1502,2008,1000,1505,1000,1000,1004,1005,1000,1014,0.0633,0.0146,0.0412,-0.0187,0.0126,1.0001,-0.0418,0.6219,0.0456,-0.6257,0.8627,0.2400,0.1321,0.8627,0.2400,0.1321,0.3000,0.0600,0.0002,0,-4.9132,-255.4314,-0.4764,-4.9132,-255.4314,-0.4764,34.4495,32.3981,0.0200,0.2700,0.0000,0.0000,0.0000,0.0000,0.0000,0.0000
31.8095,35.2148,10.1116,0.1657,-0.0000,0.1200,1.6200,0.6400,0.0000,-0.3334,-0.2899,0.0019,996,1502,1527,1502,2008,1000,1505,1000,1000,1004,1005,1000,1014,-0.0235,0.0245,0.0405,-0.0210,0.0150,1.0015,-0.0416,0.6213,0.0454,-0.6251,0.8627,0.2400,0.1321,0.8627,0.2400,0.1321,0.3000,0.0600,0.0002,0,-4.9132,-255.4314,-0.4764,-4.9132,-255.4314,-0.4764,34.4147,32.3758,0.0200,0.2700,0.0000,0.0000,0.0000,0.0000,0.0000,0.0000
31.7771,35.1901,10.0923,-0.0000,-0.0000,0.1200,1.6200,0.6400,0.0000,-0.3332,-0.2896,0.0021,996,1502,1527,1502,2008,1000,1505,1000,1000,1004,1005,1000,1014,0.0442,0.0009,-0.0395,-0.0223,0.0139,0.9954,-0.0414,0.6206,0.0457,-0.6249,0.8627,0.2400,0.1321,0.8627,0.2400,0.1321,0.3000,0.0600,0.0002,0,-4.9132,-255.4314,-0.4764,-4.9132,-255.4314,-0.4764,34.3795,32.3525,0.0200,0.2700,0.0000,0.0000,0.0000,0.0000,0.0000,0.0000
31.7449,35.1651,10.0733,0.1657,-0.0000,0.1800,1.6200,0.6400,0.0000,-0.3324,-0.2894,0.0020,996,1502,1527,1502,2008,1000,1505,1000,1000,1004,1005,1000,1014,0.0960,0.0269,0.0043,-0.0194,0.0127,1.0014,-0.0410,0.6198,0.0450,-0.6239,0.8627,0.2400,0.1321,0.8627,0.2400,0.1321,0.3000,0.0600,0.0002,0,-4.9132,-255.4314,-0.4764,-4.9132,-255.4314,-0.4764,34.3442,32.3300,0.0300,0.2700,0.0000,0.0000,0.0000,0.0000,0.0000,0.0000
31.7130,35.1406,10.0544,0.0829,-0.0000,0.1200,1.6200,0.6400,0.0000,-0.3327,-0.2892,0.0022,996,1502,1527,1502,2008,1000,1505,1000,1000,1004,1005,1000,1014,0.1169,0.0059,-0.0208,-0.0195,0.0103,1.0011,-0.0414,0.6197,0.0457,-0.6241,0.8627,0.2400,0.1321,0.8627,0.2400,0.1321,0.3000,0.0600,0.0002,0,-4.9132,-255.4314,-0.4764,-4.9132,-255.4314,-0.4764,34.3094,32.3074,0.0200,0.2700,0.0000,0.0000,0.0000,0.0000,0.0000,0.0000
31.6803,35.1159,10.0344,0.0829,-0.0000,0.1200,1.6200,0.6400,0.0000,-0.3324,-0.2889,0.0022,996,1502,1527,1502,2008,1000,1505,1000,1000,1004,1005,1000,1014,0.1155,-0.0312,-0.0479,-0.0217,0.0151,1.0008,-0.0413,0.6192,0.0457,-0.6235,0.8627,0.2400,0.1321,0.8627,0.2400,0.1321,0.3000,0.0600,0.0002,0,-4.9132,-255.4314,-0.4764,-4.9132,-255.4314,-0.4764,34.2748,32.2850,0.0200,0.2700,0.0000,0.0000,0.0000,0.0000,0.0000,0.0000
31.6480,35.0905,10.0154,0.0829,-0.0000,0.1200,1.6200,0.6400,0.0000,-0.3321,-0.2888,0.0019,996,1502,1527,1502,2008,1000,1505,1000,1000,1004,1005,1000,1014,0.0553,0.0349,0.0550,-0.0194,0.0142,1.0029,-0.0414,0.6190,0.0452,-0.6228,0.8627,0.2400,0.1321,0.8627,0.2400,0.1321,0.3000,0.0600,0.0002,0,-4.9132,-255.4314,-0.4764,-4.9132,-255.4314,-0.4764,34.2401,32.2626,0.0200,0.2700,0.0000,0.0000,0.0000,0.0000,0.0000,0.0000
31.6163,35.0655,9.9969,-0.0000,-0.0000,0.1200,1.6200,0.6400,0.0000,-0.3319,-0.2885,0.0022,996,1502,1527,1502,2008,1000,1505,1000,1000,1004,1005,1000,1014,0.1154,-0.0357,-0.0228,-0.0197,0.0127,1.0027,-0.0412,0.6182,0.0455,-0.6225,0.8627,0.2400,0.1321,0.8627,0.2400,0.1321,0.3000,0.0600,0.0002,0,-4.9132,-255.4314,-0.4764,-4.9132,-255.4314,-0.4764,34.2052,32.2398,0.0200,0.2700,0.0000,0.0000,0.0000,0.0000,0.0000,0.0000
31.5846,35.0415,9.9778,0.0829,0.0821,0.1200,1.6200,0.6400,0.0000,-0.3316,-0.2885,0.0023,996,1502,1527,1502,2008,1000,1505,1000,1000,1004,1005,1000,1014,0.0880,0.0942,-0.0977,-0.0207,0.0129,1.0029,-0.0408,0.6177,0.0454,-0.6223,0.8627,0.2400,0.1321,0.8627,0.2400,0.1321,0.3000,0.0600,0.0002,0,-4.9132,-255.4314,-0.4764,-4.9132,-255.4314,-0.4764,34.1706,32.2170,0.0200,0.2700,0.0000,0.0000,0.0000,0.0000,0.0000,0.0000
31.5524,35.0165,9.9584,0.0829,-0.0000,0.1800,1.6200,0.6400,0.0000,-0.3308,-0.2880,0.0020,996,1502,1527,1502,2008,1000,1505,1000,1000,1004,1005,1000,1014,0.1419,-0.0611,0.0309,-0.0194,0.0126,1.0005,-0.0408,0.6169,0.0448,-0.6208,0.8627,0.2400,0.1321,0.8627,0.2400,0.1321,0.3000,0.0600,0.0002,0,-4.9132,-255.4314,-0.4764,-4.9132,-255.4314,-0.4764,34.1359,32.1945,0.0300,0.2700,0.0000,0.0000,0.0000,0.0000,0.0000,0.0000
31.5204,34.9913,9.9392,0.1657,0.0821,0.1200,1.6200,0.6400,0.0000,-0.3310,-0.2880,0.0021,996,1502,1527,1502,2008,1000,1505,1000,1000,1004,1005,1000,1014,0.0529,0.0505,-0.0254,-0.0212,0.0127,1.0017,-0.0409,0.6168,0.0451,-0.6211,0.8627,0.2400,0.1321,0.8627,0.2400,0.1321,0.3000,0.0600,0.0002,0,-4.9132,-255.4314,-0.4764,-4.9132,-255.4314,-0.4764,34.1014,32.1722,0.0200,0.2700,0.0000,0.0000,0.0000,0.0000,0.0000,0.0000
31.4876,34.9660,9.9202,0.0829,0.0821,0.1200,1.6200,0.6400,0.0000,-0.3307,-0.2876,0.0022,996,1502,1527,1502,2008,1000,1505,1000,1000,1004,1005,1000,1014,0.0579,-0.0656,-0.0355,-0.0215,0.0128,1.0011,-0.0409,0.6161,0.0453,-0.6205,0.8627,0.2400,0.1321,0.8627,0.2400,0.1321,0.3000,0.0600,0.0002,0,-4.9132,-255.4314,-0.4764,-4.9132,-255.4314,-0.4764,34.0667,32.1495,0.0200,0.2700,0.0000,0.0000,0.0000,0.0000,0.0000,0.0000
31.4553,34.9405,9.9013,0.0829,-0.0000,0.1200,1.6200,0.6400,0.0000,-0.3304,-0.2875,0.0020,996,1502,1527,1502,2008,1000,1505,1000,1000,1004,1005,1000,1014,0.0254,0.0598,0.0335,-0.0198,0.0119,1.0006,-0.0408,0.6159,0.0448,-0.6199,0.8627,0.2400,0.1321,0.8627,0.2400,0.1321,0.3000,0.0600,0.0002,0,-4.9132,-255.4314,-0.4764,-4.9132,-255.4314,-0.4764,34.0323,32.1266,0.0200,0.2700,0.0000,0.0000,0.0000,0.0000,0.0000,0.0000
31.4232,34.9156,9.8824,0.1657,-0.0000,0.1200,1.6200,0.6400,0.0000,-0.3302,-0.2872,0.0021,996,1502,1527,1502,2008,1000,1505,1000,1000,1004,1005,1000,1014,0.1408,-0.0010,-0.0078,-0.0230,0.0086,0.9932,-0.0409,0.6154,0.0451,-0.6196,0.8627,0.2400,0.1321,0.8627,0.2400,0.1321,0.3000,0.0600,0.0002,0,-4.9132,-255.4314,-0.4764,-4.9132,-255.4314,-0.4764,33.9982,32.1038,0.0200,0.2700,0.0000,0.0000,0.0000,0.0000,0.0000,0.0000
31.3907,34.8905,9.8635,0.0829,-0.0000,0.1200,1.6200,0.6400,0.0000,-0.3298,-0.2870,0.0021,996,1502,1527,1502,2008,1000,1505,1000,1000,1004,1005,1000,1014,0.0135,0.0036,0.0027,-0.0242,0.0140,1.0002,-0.0407,0.6147,0.0449,-0.6189,0.8627,0.2400,0.1321,0.8627,0.2400,0.1321,0.3000,0.0600,0.0002,0,-4.9132,-255.4314,-0.4764,-4.9132,-255.4314,-0.4764,33.9641,32.0808,0.0200,0.2700,0.0000,0.0000,0.0000,0.0000,0.0000,0.0000
31.3583,34.8658,9.8448,-0.0000,-0.0000,0.1800,1.6200,0.6400,0.0000,-0.3291,-0.2868,0.0022,996,1502,1527,1502,2008,1000,1505,1000,1000,1004,1005,1000,1014,0.0634,0.0030,-0.0533,-0.0219,0.0135,0.9995,-0.0400,0.6136,0.0445,-0.6181,0.8627,0.2400,0.1321,0.8627,0.2400,0.1321,0.3000,0.0600,0.0002,0,-4.9132,-255.4314,-0.4764,-4.9132,-255.4314,-0.4764,33.9296,32.0577,0.0300,0.2700,0.0000,0.0000,0.0000,0.0000,0.0000,0.0000
31.3261,34.8405,9.8262,0.0829,-0.0000,0.1200,1.6200,0.6400,0.0000,-0.3293,-0.2866,0.0022,996,1502,1527,1502,2008,1000,1505,1000,1000,1004,1005,1000,1014,0.0527,-0.0215,-0.0153,-0.0193,0.0151,0.9990,-0.0406,0.6137,0.0449,-0.6180,0.8627,0.2400,0.1321,0.8627,0.2400,0.1321,0.3000,0.0600,0.0002,0,-4.9132,-255.4314,-0.4764,-4.9132,-255.4314,-0.4764,33.8942,32.0346,0.0200,0.2700,0.0000,0.0000,0.0000,0.0000,0.0000,0.0000
31.2938,34.8155,9.8074,-0.0000,-0.0821,0.1200,1.6200,0.6400,0.0000,-0.3291,-0.2865,0.0022,996,1502,1527,1502,2008,1000,1505,1000,1000,1004,1005,1000,1014,0.0994,0.0791,-0.0311,-0.0220,0.0118,1.0028,-0.0404,0.6134,0.0448,-0.6177,0.8627,0.2400,0.1321,0.8627,0.2400,0.1321,0.3000,0.0600,0.0002,0,-4.9132,-255.4314,-0.4764,-4.9132,-255.4314,-0.4764,33.8587,32.0111,0.0200,0.2700,0.0000,0.0000,0.0000,0.0000,0.0000,0.0000
31.2626,34.7907,9.7888,0.0829,-0.0000,0.1200,1.6200,0.6400,0.0000,-0.3289,-0.2862,0.0022,996,1502,1527,1502,2008,1000,1505,1000,1000,1004,1005,1000,1014,0.1518,0.0397,-0.0404,-0.0218,0.0142,1.0004,-0.0404,0.6128,0.0449,-0.6173,0.8627,0.2400,0.1321,0.8627,0.2400,0.1321,0.3000,0.0600,0.0002,0,-4.9132,-255.4314,-0.4764,-4.9132,-255.4314,-0.4764,33.8235,31.9883,0.0200,0.2700,0.0000,0.0000,0.0000,0.0000,0.0000,0.0000
31.2323,34.7670,9.7708,-0.0829,-0.0000,0.1200,1.6200,0.6400,0.0000,-0.3285,-0.2860,0.0021,996,1502,1527,1502,2008,1000,1505,1000,1000,1004,1005,1000,1014,0.0820,0.0323,0.0093,-0.0217,0.0137,0.9972,-0.0404,0.6124,0.0446,-0.6166,0.8627,0.2400,0.1321,0.8627,0.2400,0.1321,0.3000,0.0600,0.0002,0,-4.9132,-255.4314,-0.4764,-4.9132,-255.4314,-0.4764,33.7905,31.9660,0.0200,0.2700,0.0000,0.0000,0.0000,0.0000,0.0000,0.0000
31.1999,34.7416,9.7521,0.0829,-0.0000,0.1200,1.6200,0.6400,0.0000,-0.3282,-0.2857,0.0021,996,1502,1527,1502,2008,1000,1505,1000,1000,1004,1005,1000,1014,0.0881,-0.0322,-0.0052,-0.0189,0.0163,1.0024,-0.0404,0.6118,0.0447,-0.6161,0.8627,0.2400,0.1321,0.8627,0.2400,0.1321,0.3000,0.0600,0.0002,0,-4.9132,-255.4314,-0.4764,-4.9132,-255.4314,-0.4764,33.7559,31.9434,0.0200,0.2700,0.0000,0.0000,0.0000,0.0000,0.0000,0.0000
31.1676,34.7158,9.7331,-0.0000,-0.0000,0.2400,1.6800,0.6400,0.0000,-0.3269,-0.2849,0.0020,997,1503,1527,1502,1000,1000,1505,1000,1000,1004,1005,1000,1014,0.0652,-0.0386,0.0343,-0.0193,0.0167,0.9973,-0.0400,0.6099,0.0439,-0.6138,0.8627,0.2400,0.1321,0.8627,0.2400,0.1321,0.3000,0.0600,0.0002,0,-4.9132,-255.4314,-0.4764,-4.9132,-255.4314,-0.4764,33.7212,31.9206,0.0400,0.2800,0.0000,0.0000,0.0000,0.0000,0.0000,0.0000
31.1359,34.6900,9.7147,0.0829,-0.0000,0.1200,1.6200,0.6400,0.0000,-0.3277,-0.2852,0.0022,996,1502,1527,1502,1000,1000,1505,1000,1000,1004,1005,1000,1014,0.0936,-0.0512,-0.0142,-0.0198,0.0131,1.0040,-0.0403,0.6107,0.0447,-0.6151,0.8627,0.2400,0.1321,0.8627,0.2400,0.1321,0.3000,0.0600,0.0002,0,-4.9132,-255.4314,-0.4764,-4.9132,-255.4314,-0.4764,33.6862,31.8977,0.0200,0.2700,0.0000,0.0000,0.0000,0.0000,0.0000,0.0000
31.1039,34.6646,9.6955,0.0829,0.0821,0.1200,1.6200,0.6400,0.0000,-0.3274,-0.2850,0.0021,996,1502,1527,1502,1000,1000,1505,1000,1000,1004,1005,1000,1014,0.0672,-0.0394,-0.0071,-0.0198,0.0134,0.9998,-0.0402,0.6103,0.0445,-0.6145,0.8627,0.2400,0.1321,0.8627,0.2400,0.1321,0.3000,0.0600,0.0002,0,-4.9132,-255.4314,-0.4764,-4.9132,-255.4314,-0.4764,33.6512,31.8748,0.0200,0.2700,0.0000,0.0000,0.0000,0.0000,0.0000,0.0000
31.0713,34.6389,9.6764,0.0829,-0.0000,0.1200,1.6200,0.6400,0.0000,-0.3271,-0.2849,0.0019,996,1502,1527,1502,1000,1000,1505,1000,1000,1004,1005,1000,1014,0.0646,0.0181,0.0503,-0.0201,0.0159,0.9976,-0.0403,0.6101,0.0441,-0.6139,0.8627,0.2400,0.1321,0.8627,0.2400,0.1321,0.3000,0.0600,0.0002,0,-4.9132,-255.4314,-0.4764,-4.9132,-255.4314,-0.4764,33.6170,31.8517,0.0200,0.2700,0.0000,0.0000,0.0000,0.0000,0.0000,0.0000
31.0400,34.6136,9.6581,0.1657,-0.0000,0.1200,1.6200,0.6400,0.0000,-0.3269,-0.2846,0.0023,996,1502,1527,1502,1000,1000,1505,1000,1000,1004,1005,1000,1014,0.1052,-0.0004,-0.0603,-0.0226,0.0127,0.9962,-0.0399,0.6092,0.0446,-0.6139,0.8627,0.2400,0.1321,0.8627,0.2400,0.1321,0.3000,0.0600,0.0002,0,-4.9132,-255.4314,-0.4764,-4.9132,-255.4314,-0.4764,33.5830,31.8282,0.0200,0.2700,0.0000,0.0000,0.0000,0.0000,0.0000,0.0000
31.0078,34.5881,9.6391,0.0829,-0.0000,0.1200,1.6200,0.6400,0.0000,-0.3266,-0.2844,0.0021,996,1502,1527,1502,1000,1000,1505,1000,1000,1004,1005,1000,1014,0.1094,0.0023,0.0068,-0.0206,0.0144,1.0018,-0.0401,0.6089,0.0443,-0.6131,0.8627,0.2400,0.1321,0.8627,0.2400,0.1321,0.3000,0.0600,0.0002,0,-4.9132,-255.4314,-0.4764,-4.9132,-255.4314,-0.4764,33.5484,31.8050,0.0200,0.2700,0.0000,0.0000,0.0000,0.0000,0.0000,0.0000
30.9757,34.5631,9.6202,-0.0000,-0.0000,0.2400,1.6800,0.6400,0.0000,-0.3253,-0.2837,0.0020,997,1503,1527,1502,1000,1000,1505,1000,1000,1004,1005,1000,1014,0.0824,0.0340,0.0277,-0.0214,0.0159,1.0018,-0.0395,0.6069,0.0436,-0.6110,0.8627,0.2400,0.1321,0.8627,0.2400,0.1321,0.3000,0.0600,0.0002,0,-4.9132,-255.4314,-0.4764,-4.9132,-255.4314,-0.4764,33.5137,31.7819,0.0400,0.2800,0.0000,0.0000,0.0000,0.0000,0.0000,0.0000
30.9437,34.5378,9.6017,0.0829,-0.0000,0.1200,1.6200,0.6400,0.0000,-0.3260,-0.2840,0.0021,996,1502,1527,1502,1000,1000,1505,1000,1000,1004,1005,1000,1014,0.0826,0.0188,0.0176,-0.0203,0.0127,1.0024,-0.0399,0.6080,0.0441,-0.6121,0.8627,0.2400,0.1321,0.8627,0.2400,0.1321,0.3000,0.0600,0.0002,0,-4.9132,-255.4314,-0.4764,-4.9132,-255.4314,-0.4764,33.4789,31.7583,0.0200,0.2700,0.0000,0.0000,0.0000,0.0000,0.0000,0.0000
30.9118,34.5123,9.5829,0.0829,-0.0000,0.1200,1.6200,0.6400,0.0000,-0.3258,-0.2837,0.0021,996,1502,1527,1502,1000,1000,1505,1000,1000,1004,1005,1000,1014,0.1311,-0.0381,-0.0044,-0.0182,0.0155,0.9968,-0.0400,0.6074,0.0442,-0.6117,0.8627,0.2400,0.1321,0.8627,0.2400,0.1321,0.3000,0.0600,0.0002,0,-4.9132,-255.4314,-0.4764,-4.9132,-255.4314,-0.4764,33.4445,31.7351,0.0200,0.2700,0.0000,0.0000,0.0000,0.0000,0.0000,0.0000
30.8799,34.4868,9.5642,-0.0000,-0.0000,0.1200,1.6200,0.6400,0.0000,-0.3255,-0.2835,0.0022,996,1502,1527,1502,1000,1000,1505,1000,1000,1004,1005,1000,1014,0.1139,-0.0190,-0.0161,-0.0199,0.0139,0.9961,-0.0398,0.6069,0.0442,-0.6112,0.8627,0.2400,0.1321,0.8627,0.2400,0.1321,0.3000,0.0600,0.0002,0,-4.9132,-255.4314,-0.4764,-4.9132,-255.4314,-0.4764,33.4098,31.7117,0.0200,0.2700,0.0000,0.0000,0.0000,0.0000,0.0000,0.0000
30.8477,34.4616,9.5451,0.0829,-0.0000,0.1200,1.6200,0.6400,0.0000,-0.3252,-0.2833,0.0022,996,1502,1527,1502,1000,1000,1505,1000,1000,1004,1005,1000,1014,0.0708,-0.0309,-0.0345,-0.0170,0.0126,0.9998,-0.0397,0.6063,0.0441,-0.6107,0.8627,0.2400,0.1321,0.8627,0.2400,0.1321,0.3000,0.0600,0.0002,0,-4.9132,-255.4314,-0.4764,-4.9132,-255.4314,-0.4764,33.3750,31.6884,0.0200,0.2700,0.0000,0.0000,0.0000,0.0000,0.0000,0.0000
30.8158,34.4364,9.5263,0.1657,0.0821,0.1200,1.6200,0.6400,0.0000,-0.3250,-0.2831,0.0023,996,1502,1527,1502,1000,1000,1505,1000,1000,1004,1005,1000,1014,0.1236,-0.0338,-0.0509,-0.0226,0.0161,0.9978,-0.0396,0.6057,0.0442,-0.6104,0.8627,0.2400,0.1321,0.8627,0.2400,0.1321,0.3000,0.0600,0.0002,0,-4.9132,-255.4314,-0.4764,-4.9132,-255.4314,-0.4764,33.3409,31.6656,0.0200,0.2700,0.0000,0.0000,0.0000,0.0000,0.0000,0.0000
30.7836,34.4111,9.5070,0.1657,-0.0000,0.2400,1.6800,0.6400,0.0000,-0.3236,-0.2823,0.0025,997,1503,1527,1502,1000,1000,1505,1000,1000,1004,1005,1000,1014,0.0872,-0.0393,-0.0907,-0.0237,0.0142,0.9975,-0.0388,0.6035,0.0438,-0.6084,0.8627,0.2400,0.1321,0.8627,0.2400,0.1321,0.3000,0.0600,0.0002,0,-4.9132,-255.4314,-0.4764,-4.9132,-255.4314,-0.4764,33.3063,31.6429,0.0400,0.2800,0.0000,0.0000,0.0000,0.0000,0.0000,0.0000
30.7513,34.3853,9.4876,0.0829,-0.0000,0.1200,1.6200,0.6400,0.0000,-0.3244,-0.2826,0.0022,996,1502,1527,1502,1000,1000,1505,1000,1000,1004,1005,1000,1014,0.1360,-0.0249,-0.0282,-0.0218,0.0146,0.9994,-0.0396,0.6048,0.0440,-0.6093,0.8627,0.2400,0.1321,0.8627,0.2400,0.1321,0.3000,0.0600,0.0002,0,-4.9132,-255.4314,-0.4764,-4.9132,-255.4314,-0.4764,33.2716,31.6197,0.0200,0.2700,0.0000,0.0000,0.0000,0.0000,0.0000,0.0000
30.7193,34.3602,9.4688,0.0829,0.0821,0.1200,1.6200,0.6400,0.0000,-0.3240,-0.2824,0.0022,996,1502,1527,1502,1000,1000,1505,1000,1000,1004,1005,1000,1014,0.0437,-0.0681,-0.0122,-0.0220,0.0150,0.9998,-0.0395,0.6042,0.0439,-0.6086,0.8627,0.2400,0.1321,0.8627,0.2400,0.1321,0.3000,0.0600,0.0002,0,-4.9132,-255.4314,-0.4764,-4.9132,-255.4314,-0.4764,33.2371,31.5961,0.0200,0.2700,0.0000,0.0000,0.0000,0.0000,0.0000,0.0000
30.6868,34.3348,9.4503,-0.0000,-0.0000,0.1200,1.6200,0.6400,0.0000,-0.3238,-0.2823,0.0022,996,1502,1527,1502,1000,1000,1505,1000,1000,1004,1005,1000,1014,0.0454,0.0459,0.0020,-0.0208,0.0145,0.9969,-0.0393,0.6039,0.0437,-0.6082,0.8627,0.2400,0.1321,0.8627,0.2400,0.1321,0.3000,0.0600,0.0002,0,-4.9132,-255.4314,-0.4764,-4.9132,-255.4314,-0.4764,33.2027,31.5730,0.0200,0.2700,0.0000,0.0000,0.0000,0.0000,0.0000,0.0000
30.6548,34.3097,9.4316,-0.0000,0.0821,0.1200,1.6200,0.6400,0.0000,-0.3235,-0.2821,0.0022,996,1502,1527,1502,1000,1000,1505,1000,1000,1004,1005,1000,1014,0.0720,0.0369,-0.0164,-0.0168,0.0139,0.9996,-0.0393,0.6034,0.0436,-0.6078,0.8627,0.2400,0.1321,0.8627,0.2400,0.1321,0.3000,0.0600,0.0002,0,-4.9132,-255.4314,-0.4764,-4.9132,-255.4314,-0.4764,33.1682,31.5493,0.0200,0.2700,0.0000,0.0000,0.0000,0.0000,0.0000,0.0000
30.6231,34.2840,9.4134,-0.0829,-0.0821,0.1200,1.6200,0.6400,0.0000,-0.3233,-0.2817,0.0023,996,1502,1527,1502,1000,1000,1505,1000,1000,1004,1005,1000,1014,0.0892,-0.0471,-0.0355,-0.0201,0.0144,1.0012,-0.0392,0.6027,0.0438,-0.6073,0.8627,0.2400,0.1321,0.8627,0.2400,0.1321,0.3000,0.0600,0.0002,0,-4.9132,-255.4314,-0.4764,-4.9132,-255.4314,-0.4764,33.1335,31.5262,0.0200,0.2700,0.0000,0.0000,0.0000,0.0000,0.0000,0.0000
30.5910,34.2581,9.3941,0.1657,-0.0000,0.2400,1.6800,0.6400,0.0000,-0.3220,-0.2810,0.0022,997,1503,1527,1502,1000,1000,1505,1000,1000,1004,1005,1000,1014,0.1094,-0.0679,0.0126,-0.0178,0.0146,1.0040,-0.0389,0.6008,0.0432,-0.6051,0.8627,0.2400,0.1321,0.8627,0.2400,0.1321,0.3000,0.0600,0.0002,0,-4.9132,-255.4314,-0.4764,-4.9132,-255.4314,-0.4764,33.0990,31.5032,0.0400,0.2800,0.0000,0.0000,0.0000,0.0000,0.0000,0.0000
30.5589,34.2321,9.3751,-0.0000,-0.0000,0.1200,1.6200,0.6400,0.0000,-0.3227,-0.2813,0.0022,996,1502,1527,1502,1000,1000,1505,1000,1000,1004,1005,1000,1014,0.0970,-0.0251,-0.0065,-0.0184,0.0124,1.0009,-0.0392,0.6018,0.0436,-0.6062,0.8627,0.2400,0.1321,0.8627,0.2400,0.1321,0.3000,0.0600,0.0002,0,-4.9132,-255.4314,-0.4764,-4.9132,-255.4314,-0.4764,33.0642,31.4799,0.0200,0.2700,0.0000,0.0000,0.0000,0.0000,0.0000,0.0000
30.5268,34.2066,9.3563,0.1657,-0.0000,0.1200,1.6200,0.6400,0.0000,-0.3224,-0.2811,0.0023,996,1502,1527,1502,1000,1000,1505,1000,1000,1004,1005,1000,1014,0.0787,0.0000,-0.0243,-0.0213,0.0126,0.9998,-0.0390,0.6013,0.0435,-0.6058,0.8627,0.2400,0.1321,0.8627,0.2400,0.1321,0.3000,0.0600,0.0002,0,-4.9132,-255.4314,-0.4764,-4.9132,-255.4314,-0.4764,33.0295,31.4570,0.0200,0.2700,0.0000,0.0000,0.0000,0.0000,0.0000,0.0000
30.4952,34.1813,9.3376,-0.0000,-0.0000,0.1200,1.6200,0.6400,0.0000,-0.3222,-0.2809,0.0023,996,1502,1527,1502,1000,1000,1505,1000,1000,1004,1005,1000,1014,0.1254,0.0147,-0.0179,-0.0197,0.0134,1.0005,-0.0390,0.6009,0.0435,-0.6054,0.8627,0.2400,0.1321,0.8627,0.2400,0.1321,0.3000,0.0600,0.0002,0,-4.9132,-255.4314,-0.4764,-4.9132,-255.4314,-0.4764,32.9950,31.4338,0.0200,0.2700,0.0000,0.0000,0.0000,0.0000,0.0000,0.0000
30.4629,34.1559,9.3183,-0.0000,-0.0000,0.1200,1.6200,0.6400,0.0000,-0.3219,-0.2807,0.0023,996,1502,1527,1502,1000,1000,1505,1000,1000,1004,1005,1000,1014,0.0634,-0.0091,-0.0390,-0.0210,0.0146,0.9996,-0.0389,0.6002,0.0435,-0.6048,0.8627,0.2400,0.1321,0.8627,0.2400,0.1321,0.3000,0.0600,0.0002,0,-4.9132,-255.4314,-0.4764,-4.9132,-255.4314,-0.4764,32.9607,31.4102,0.0200,0.2700,0.0000,0.0000,0.0000,0.0000,0.0000,0.0000
30.4303,34.1302,9.2991,-0.0000,-0.0000,0.1200,1.6200,0.6400,0.0000,-0.3216,-0.2804,0.0024,996,1502,1527,1502,1000,1000,1505,1000,1000,1004,1005,1000,1014,0.0701,-0.0209,-0.0598,-0.0225,0.0116,0.9998,-0.0388,0.5996,0.0435,-0.6044,0.8627,0.2400,0.1321,0.8627,0.2400,0.1321,0.3000,0.0600,0.0002,0,-4.9132,-255.4314,-0.4764,-4.9132,-255.4314,-0.4764,32.9262,31.3866,0.0200,0.2700,0.0000,0.0000,0.0000,0.0000,0.0000,0.0000
30.3980,34.1047,9.2806,0.0829,-0.0000,0.2400,1.6800,0.6400,0.0000,-0.3202,-0.2797,0.0023,997,1503,1527,1502,1000,1000,1505,1000,1000,1004,1005,1000,1014,-0.0060,-0.0202,-0.0447,-0.0191,0.0137,1.0021,-0.0381,0.5975,0.0428,-0.6022,0.8627,0.2400,0.1321,0.8627,0.2400,0.1321,0.3000,0.0600,0.0002,0,-4.9132,-255.4314,-0.4764,-4.9132,-255.4314,-0.4764,32.8914,31.3625,0.0400,0.2800,0.0000,0.0000,0.0000,0.0000,0.0000,0.0000
30.3658,34.0790,9.2619,0.0829,-0.0000,0.1200,1.6200,0.6400,0.0000,-0.3210,-0.2801,0.0021,996,1502,1527,1502,1000,1000,1505,1000,1000,1004,1005,1000,1014,0.0363,0.0235,0.0135,-0.0176,0.0139,1.0008,-0.0388,0.5989,0.0431,-0.6032,0.8627,0.2400,0.1321,0.8627,0.2400,0.1321,0.3000,0.0600,0.0002,0,-4.9132,-255.4314,-0.4764,-4.9132,-255.4314,-0.4764,32.8567,31.3385,0.0200,0.2700,0.0000,0.0000,0.0000,0.0000,0.0000,0.0000
30.3341,34.0535,9.2437,0.0829,-0.0000,0.1200,1.6200,0.6400,0.0000,-0.3208,-0.2799,0.0025,996,1502,1527,1502,1000,1000,1505,1000,1000,1004,1005,1000,1014,0.0818,0.0495,-0.0863,-0.0202,0.0128,0.9998,-0.0384,0.5981,0.0434,-0.6031,0.8627,0.2400,0.1321,0.8627,0.2400,0.1321,0.3000,0.0600,0.0002,0,-4.9132,-255.4314,-0.4764,-4.9132,-255.4314,-0.4764,32.8222,31.3150,0.0200,0.2700,0.0000,0.0000,0.0000,0.0000,0.0000,0.0000
30.3021,34.0281,9.2245,0.0829,-0.0000,0.1200,1.6200,0.6400,0.0000,-0.3205,-0.2796,0.0023,996,1502,1527,1502,1000,1000,1505,1000,1000,1004,1005,1000,1014,0.1029,-0.0086,-0.0522,-0.0226,0.0134,0.9981,-0.0386,0.5977,0.0433,-0.6024,0.8627,0.2400,0.1321,0.8627,0.2400,0.1321,0.3000,0.0600,0.0002,0,-4.9132,-255.4314,-0.4764,-4.9132,-255.4314,-0.4764,32.7873,31.2914,0.0200,0.2700,0.0000,0.0000,0.0000,0.0000,0.0000,0.0000
30.2705,34.0025,9.2059,-0.0000,-0.0000,0.1200,1.6200,0.6400,0.0000,-0.3202,-0.2793,0.0024,996,1502,1527,1502,1000,1000,1505,1000,1000,1004,1005,1000,1014,0.1053,-0.0460,-0.0666,-0.0197,0.0133,0.9983,-0.0385,0.5971,0.0434,-0.6020,0.8627,0.2400,0.1321,0.8627,0.2400,0.1321,0.3000,0.0600,0.0002,0,-4.9132,-255.4314,-0.4764,-4.9132,-255.4314,-0.4764,32.7530,31.2683,0.0200,0.2700,0.0000,0.0000,0.0000,0.0000,0.0000,0.0000
30.2388,33.9762,9.1871,0.0829,-0.0000,0.1200,1.6200,0.6400,0.0000,-0.3199,-0.2791,0.0023,996,1502,1527,1502,1000,1000,1505,1000,1000,1004,1005,1000,1014,0.0386,-0.0514,-0.0258,-0.0192,0.0145,1.0020,-0.0385,0.5966,0.0432,-0.6013,0.8627,0.2400,0.1321,0.8627,0.2400,0.1321,0.3000,0.0600,0.0002,0,-4.9132,-255.4314,-0.4764,-4.9132,-255.4314,-0.4764,32.7183,31.2452,0.0200,0.2700,0.0000,0.0000,0.0000,0.0000,0.0000,0.0000
30.2068,33.9498,9.1685,0.0829,-0.0000,0.2400,1.6800,0.6400,0.0000,-0.3187,-0.2783,0.0022,997,1503,1527,1502,1000,1000,1505,1000,1000,1004,1005,1000,1014,0.1141,-0.0473,0.0212,-0.0193,0.0103,1.0012,-0.0381,0.5948,0.0426,-0.5992,0.8627,0.2400,0.1321,0.8627,0.2400,0.1321,0.3000,0.0600,0.0002,0,-4.9132,-255.4314,-0.4764,-4.9132,-255.4314,-0.4764,32.6843,31.2218,0.0400,0.2800,0.0000,0.0000,0.0000,0.0000,0.0000,0.0000
30.1746,33.9232,9.1500,0.0829,-0.0000,0.1200,1.6200,0.6400,0.0000,-0.3193,-0.2786,0.0023,996,1502,1527,1502,1000,1000,1505,1000,1000,1004,1005,1000,1014,0.0331,-0.0522,-0.0160,-0.0212,0.0140,1.0001,-0.0384,0.5956,0.0430,-0.6002,0.8627,0.2400,0.1321,0.8627,0.2400,0.1321,0.3000,0.0600,0.0002,0,-4.9132,-255.4314,-0.4764,-4.9132,-255.4314,-0.4764,32.6501,31.1984,0.0200,0.2700,0.0000,0.0000,0.0000,0.0000,0.0000,0.0000
30.1423,33.8977,9.1313,0.0829,0.0821,0.1200,1.6200,0.6400,0.0000,-0.3192,-0.2785,0.0023,996,1502,1527,1502,1000,1000,1505,1000,1000,1004,1005,1000,1014,0.1149,0.0526,-0.0348,-0.0200,0.0119,1.0013,-0.0383,0.5953,0.0430,-0.6000,0.8627,0.2400,0.1321,0.8627,0.2400,0.1321,0.3000,0.0600,0.0002,0,-4.9132,-255.4314,-0.4764,-4.9132,-255.4314,-0.4764,32.6156,31.1750,0.0200,0.2700,0.0000,0.0000,0.0000,0.0000,0.0000,0.0000
30.1108,33.8719,9.1132,0.1657,-0.0000,0.1200,1.6200,0.6400,0.0000,-0.3188,-0.2783,0.0024,996,1502,1527,1502,1000,1000,1505,1000,1000,1004,1005,1000,1014,0.0611,0.0103,-0.0339,-0.0186,0.0112,1.0018,-0.0382,0.5947,0.0429,-0.5994,0.8627,0.2400,0.1321,0.8627,0.2400,0.1321,0.3000,0.0600,0.0002,0,-4.9132,-255.4314,-0.4764,-4.9132,-255.4314,-0.4764,32.5808,31.1512,0.0200,0.2700,0.0000,0.0000,0.0000,0.0000,0.0000,0.0000
30.0786,33.8462,9.0947,-0.0000,0.0821,0.1200,1.6200,0.6400,0.0000,-0.3186,-0.2780,0.0023,996,1502,1527,1502,1000,1000,1505,1000,1000,1004,1005,1000,1014,0.0966,-0.0276,-0.0315,-0.0194,0.0149,1.0024,-0.0383,0.5942,0.0429,-0.5989,0.8627,0.2400,0.1321,0.8627,0.2400,0.1321,0.3000,0.0600,0.0002,0,-4.9132,-255.4314,-0.4764,-4.9132,-255.4314,-0.4764,32.5464,31.1274,0.0200,0.2700,0.0000,0.0000,0.0000,0.0000,0.0000,0.0000
30.0472,33.8204,9.0765,0.0829,-0.0000,0.1200,1.6200,0.6400,0.0000,-0.3183,-0.2779,0.0024,996,1502,1527,1502,1000,1000,1505,1000,1000,1004,1005,1000,1014,0.1106,0.0458,-0.0429,-0.0189,0.0152,0.9977,-0.0381,0.5938,0.0429,-0.5986,0.8627,0.2400,0.1321,0.8627,0.2400,0.1321,0.3000,0.0600,0.0002,0,-4.9132,-255.4314,-0.4764,-4.9132,-255.4314,-0.4764,32.5121,31.1032,0.0200,0.2700,0.0000,0.0000,0.0000,0.0000,0.0000,0.0000
30.0156,33.7952,9.0585,-0.0000,-0.1642,0.2400,1.6800,0.6400,0.0000,-0.3170,-0.2771,0.0025,997,1503,1527,1502,1000,1000,1505,1000,1000,1004,1005,1000,1014,0.1040,0.0518,-0.0640,-0.0222,0.0104,1.0009,-0.0374,0.5917,0.0424,-0.5966,0.8627,0.2400,0.1321,0.8627,0.2400,0.1321,0.3000,0.0600,0.0002,0,-4.9132,-255.4314,-0.4764,-4.9132,-255.4314,-0.4764,32.4779,31.0792,0.0400,0.2800,0.0000,0.0000,0.0000,0.0000,0.0000,0.0000
29.9838,33.7692,9.0398,0.0829,-0.0000,0.1200,1.6200,0.6400,0.0000,-0.3178,-0.2773,0.0025,996,1502,1527,1502,1000,1000,1505,1000,1000,1004,1005,1000,1014,0.1203,-0.0018,-0.0646,-0.0220,0.0131,1.0044,-0.0380,0.5926,0.0429,-0.5976,0.8627,0.2400,0.1321,0.8627,0.2400,0.1321,0.3000,0.0600,0.0002,0,-4.9132,-255.4314,-0.4764,-4.9132,-255.4314,-0.4764,32.4435,31.0551,0.0200,0.2700,0.0000,0.0000,0.0000,0.0000,0.0000,0.0000
29.9520,33.7437,9.0210,-0.0000,-0.0821,0.1200,1.6200,0.6400,0.0000,-0.3175,-0.2772,0.0024,996,1502,1527,1502,1000,1000,1505,1000,1000,1004,1005,1000,1014,0.1123,0.0485,-0.0490,-0.0198,0.0160,0.9999,-0.0379,0.5923,0.0427,-0.5971,0.8627,0.2400,0.1321,0.8627,0.2400,0.1321,0.3000,0.0600,0.0002,0,-4.9132,-255.4314,-0.4764,-4.9132,-255.4314,-0.4764,32.4093,31.0313,0.0200,0.2700,0.0000,0.0000,0.0000,0.0000,0.0000,0.0000
29.9200,33.7184,9.0026,0.0829,-0.0000,0.1200,1.6200,0.6400,0.0000,-0.3171,-0.2769,0.0024,996,1502,1527,1502,1000,1000,1505,1000,1000,1004,1005,1000,1014,0.0399,0.0175,-0.0295,-0.0200,0.0129,0.9980,-0.0378,0.5917,0.0426,-0.5965,0.8627,0.2400,0.1321,0.8627,0.2400,0.1321,0.3000,0.0600,0.0002,0,-4.9132,-255.4314,-0.4764,-4.9132,-255.4314,-0.4764,32.3746,31.0075,0.0200,0.2700,0.0000,0.0000,0.0000,0.0000,0.0000,0.0000
29.8882,33.6924,8.9843,-0.0000,-0.0821,0.1200,1.6200,0.6400,0.0000,-0.3170,-0.2767,0.0024,996,1502,1527,1502,1000,1000,1505,1000,1000,1004,1005,1000,1014,0.1470,0.0247,-0.0269,-0.0203,0.0156,0.9999,-0.0379,0.5914,0.0427,-0.5961,0.8627,0.2400,0.1321,0.8627,0.2400,0.1321,0.3000,0.0600,0.0002,0,-4.9132,-255.4314,-0.4764,-4.9132,-255.4314,-0.4764,32.3405,30.9833,0.0200,0.2700,0.0000,0.0000,0.0000,0.0000,0.0000,0.0000
29.8566,33.6666,8.9662,-0.0000,-0.0000,0.1200,1.6200,0.6400,0.0000,-0.3166,-0.2765,0.0024,996,1502,1527,1502,1000,1000,1505,1000,1000,1004,1005,1000,1014,0.0497,0.0065,-0.0317,-0.0215,0.0135,0.9957,-0.0377,0.5906,0.0426,-0.5955,0.8627,0.2400,0.1321,0.8627,0.2400,0.1321,0.3000,0.0600,0.0002,0,-4.9132,-255.4314,-0.4764,-4.9132,-255.4314,-0.4764,32.3066,30.9596,0.0200,0.2700,0.0000,0.0000,0.0000,0.0000,0.0000,0.0000
29.8246,33.6403,8.9477,0.1657,0.0821,0.2400,1.6800,0.6400,0.0000,-0.3154,-0.2757,0.0024,997,1503,1527,1502,1000,1000,1505,1000,1000,1004,1005,1000,1014,0.1173,-0.0132,-0.0384,-0.0210,0.0159,0.9969,-0.0373,0.5887,0.0421,-0.5935,0.8627,0.2400,0.1321,0.8627,0.2400,0.1321,0.3000,0.0600,0.0002,0,-4.9132,-255.4314,-0.4764,-4.9132,-255.4314,-0.4764,32.2726,30.9353,0.0400,0.2800,0.0000,0.0000,0.0000,0.0000,0.0000,0.0000
29.7932,33.6144,8.9298,0.1657,-0.0000,0.1200,1.6200,0.6400,0.0000,-0.3161,-0.2760,0.0022,996,1502,1527,1502,1000,1000,1505,1000,1000,1004,1005,1000,1014,0.0734,0.0226,0.0216,-0.0203,0.0156,0.9978,-0.0378,0.5899,0.0423,-0.5943,0.8627,0.2400,0.1321,0.8627,0.2400,0.1321,0.3000,0.0600,0.0002,0,-4.9132,-255.4314,-0.4764,-4.9132,-255.4314,-0.4764,32.2385,30.9111,0.0200,0.2700,0.0000,0.0000,0.0000,0.0000,0.0000,0.0000
29.7622,33.5886,8.9125,-0.0000,0.0821,0.1200,1.6200,0.6400,0.0000,-0.3159,-0.2759,0.0022,996,1502,1527,1502,1000,1000,1505,1000,1000,1004,1005,1000,1014,0.1281,0.0777,0.0342,-0.0212,0.0123,1.0034,-0.0378,0.5896,0.0422,-0.5940,0.8627,0.2400,0.1321,0.8627,0.2400,0.1321,0.3000,0.0600,0.0002,0,-4.9132,-255.4314,-0.4764,-4.9132,-255.4314,-0.4764,32.2043,30.8873,0.0200,0.2700,0.0000,0.0000,0.0000,0.0000,0.0000,0.0000
29.7312,33.5630,8.8948,0.1657,0.0821,0.1200,1.6200,0.6400,0.0000,-0.3156,-0.2757,0.0024,996,1502,1527,1502,1000,1000,1505,1000,1000,1004,1005,1000,1014,0.1246,0.0681,-0.0565,-0.0206,0.0149,0.9960,-0.0375,0.5889,0.0424,-0.5937,0.8627,0.2400,0.1321,0.8627,0.2400,0.1321,0.3000,0.0600,0.0002,0,-4.9132,-255.4314,-0.4764,-4.9132,-255.4314,-0.4764,32.1697,30.8641,0.0200,0.2700,0.0000,0.0000,0.0000,0.0000,0.0000,0.0000
29.6996,33.5374,8.8767,0.0829,-0.0000,0.1200,1.6200,0.6400,0.0000,-0.3153,-0.2754,0.0023,996,1502,1527,1502,1000,1000,1505,1000,1000,1004,1005,1000,1014,0.0858,0.0184,-0.0099,-0.0186,0.0141,1.0013,-0.0376,0.5883,0.0422,-0.5930,0.8627,0.2400,0.1321,0.8627,0.2400,0.1321,0.3000,0.0600,0.0002,0,-4.9132,-255.4314,-0.4764,-4.9132,-255.4314,-0.4764,32.1355,30.8403,0.0200,0.2700,0.0000,0.0000,0.0000,0.0000,0.0000,0.0000
29.6676,33.5113,8.8587,0.0829,-0.0000,0.1200,1.6200,0.6400,0.0000,-0.3150,-0.2751,0.0023,996,1502,1527,1502,1000,1000,1505,1000,1000,1004,1005,1000,1014,0.0491,-0.0197,0.0027,-0.0177,0.0143,0.9990,-0.0376,0.5878,0.0421,-0.5923,0.8627,0.2400,0.1321,0.8627,0.2400,0.1321,0.3000,0.0600,0.0002,0,-4.9132,-255.4314,-0.4764,-4.9132,-255.4314,-0.4764,32.1009,30.8167,0.0200,0.2700,0.0000,0.0000,0.0000,0.0000,0.0000,0.0000
29.6361,33.4850,8.8409,0.0829,-0.0000,0.2400,1.6800,0.6400,0.0000,-0.3137,-0.2744,0.0024,997,1503,1527,1502,1000,1000,1505,1000,1000,1004,1005,1000,1014,0.0529,0.0211,-0.0067,-0.0210,0.0126,1.0015,-0.0369,0.5857,0.0416,-0.5905,0.8627,0.2400,0.1321,0.8627,0.2400,0.1321,0.3000,0.0600,0.0002,0,-4.9132,-255.4314,-0.4764,-4.9132,-255.4314,-0.4764,32.0662,30.7929,0.0400,0.2800,0.0000,0.0000,0.0000,0.0000,0.0000,0.0000
29.6041,33.4591,8.8228,0.0829,0.0821,0.1200,1.6200,0.6400,0.0000,-0.3144,-0.2747,0.0025,996,1502,1527,1502,1000,1000,1505,1000,1000,1004,1005,1000,1014,0.0506,-0.0083,-0.0454,-0.0225,0.0150,1.0000,-0.0373,0.5866,0.0422,-0.5916,0.8627,0.2400,0.1321,0.8627,0.2400,0.1321,0.3000,0.0600,0.0002,0,-4.9132,-255.4314,-0.4764,-4.9132,-255.4314,-0.4764,32.0320,30.7697,0.0200,0.2700,0.0000,0.0000,0.0000,0.0000,0.0000,0.0000
29.5726,33.4329,8.8044,0.1657,-0.0000,0.1200,1.6200,0.6400,0.0000,-0.3142,-0.2745,0.0025,996,1502,1527,1502,1000,1000,1505,1000,1000,1004,1005,1000,1014,0.1084,0.0217,-0.0541,-0.0214,0.0160,0.9997,-0.0373,0.5862,0.0422,-0.5912,0.8627,0.2400,0.1321,0.8627,0.2400,0.1321,0.3000,0.0600,0.0002,0,-4.9132,-255.4314,-0.4764,-4.9132,-255.4314,-0.4764,31.9982,30.7468,0.0200,0.2700,0.0000,0.0000,0.0000,0.0000,0.0000,0.0000
29.5410,33.4073,8.7867,0.1657,-0.0000,0.1200,1.6200,0.6400,0.0000,-0.3139,-0.2743,0.0024,996,1502,1527,1502,1000,1000,1505,1000,1000,1004,1005,1000,1014,0.0446,0.0830,-0.0295,-0.0211,0.0139,0.9994,-0.0371,0.5858,0.0419,-0.5906,0.8627,0.2400,0.1321,0.8627,0.2400,0.1321,0.3000,0.0600,0.0002,0,-4.9132,-255.4314,-0.4764,-4.9132,-255.4314,-0.4764,31.9641,30.7227,0.0200,0.2700,0.0000,0.0000,0.0000,0.0000,0.0000,0.0000
29.5093,33.3816,8.7689,0.1657,-0.0000,0.1200,1.6200,0.6400,0.0000,-0.3137,-0.2740,0.0025,996,1502,1527,1502,1000,1000,1505,1000,1000,1004,1005,1000,1014,0.0879,-0.0368,-0.0584,-0.0223,0.0140,1.0001,-0.0372,0.5851,0.0422,-0.5901,0.8627,0.2400,0.1321,0.8627,0.2400,0.1321,0.3000,0.0600,0.0002,0,-4.9132,-255.4314,-0.4764,-4.9132,-255.4314,-0.4764,31.9299,30.6981,0.0200,0.2700,0.0000,0.0000,0.0000,0.0000,0.0000,0.0000
29.4770,33.3554,8.7503,-0.0000,0.0821,0.1200,1.6200,0.6400,0.0000,-0.3134,-0.2738,0.0024,996,1502,1527,1502,1000,1000,1505,1000,1000,1004,1005,1000,1014,0.0704,0.0124,-0.0339,-0.0180,0.0134,0.9951,-0.0371,0.5847,0.0420,-0.5896,0.8627,0.2400,0.1321,0.8627,0.2400,0.1321,0.3000,0.0600,0.0002,0,-4.9132,-255.4314,-0.4764,-4.9132,-255.4314,-0.4764,31.8951,30.6739,0.0200,0.2700,0.0000,0.0000,0.0000,0.0000,0.0000,0.0000
29.4452,33.3294,8.7319,0.0829,0.0821,0.2400,1.6800,0.6400,0.0000,-0.3121,-0.2730,0.0025,997,1503,1527,1502,1000,1000,1505,1000,1000,1004,1005,1000,1014,0.1426,-0.0345,-0.0319,-0.0204,0.0140,1.0011,-0.0367,0.5827,0.0416,-0.5876,0.8627,0.2400,0.1321,0.8627,0.2400,0.1321,0.3000,0.0600,0.0002,0,-4.9132,-255.4314,-0.4764,-4.9132,-255.4314,-0.4764,31.8601,30.6501,0.0400,0.2800,0.0000,0.0000,0.0000,0.0000,0.0000,0.0000
29.4138,33.3030,8.7139,-0.0000,-0.0000,0.1200,1.6200,0.6400,0.0000,-0.3128,-0.2733,0.0024,996,1502,1527,1502,1000,1000,1505,1000,1000,1004,1005,1000,1014,0.0860,-0.0064,-0.0126,-0.0164,0.0141,1.0008,-0.0371,0.5837,0.0420,-0.5886,0.8627,0.2400,0.1321,0.8627,0.2400,0.1321,0.3000,0.0600,0.0002,0,-4.9132,-255.4314,-0.4764,-4.9132,-255.4314,-0.4764,31.8257,30.6258,0.0200,0.2700,0.0000,0.0000,0.0000,0.0000,0.0000,0.0000
29.3821,33.2767,8.6959,0.0829,-0.0000,0.1200,1.6200,0.6400,0.0000,-0.3125,-0.2730,0.0021,996,1502,1527,1502,1000,1000,1505,1000,1000,1004,1005,1000,1014,0.0761,-0.0482,0.0510,-0.0197,0.0169,0.9995,-0.0374,0.5834,0.0417,-0.5877,0.8627,0.2400,0.1321,0.8627,0.2400,0.1321,0.3000,0.0600,0.0002,0,-4.9132,-255.4314,-0.4764,-4.9132,-255.4314,-0.4764,31.7918,30.6017,0.0200,0.2700,0.0000,0.0000,0.0000,0.0000,0.0000,0.0000
29.3505,33.2502,8.6779,-0.0000,-0.0000,0.1200,1.6200,0.6400,0.0000,-0.3122,-0.2729,0.0024,996,1502,1527,1502,1000,1000,1505,1000,1000,1004,1005,1000,1014,0.0480,-0.0008,-0.0074,-0.0192,0.0131,0.9984,-0.0370,0.5827,0.0417,-0.5875,0.8627,0.2400,0.1321,0.8627,0.2400,0.1321,0.3000,0.0600,0.0002,0,-4.9132,-255.4314,-0.4764,-4.9132,-255.4314,-0.4764,31.7577,30.5775,0.0200,0.2700,0.0000,0.0000,0.0000,0.0000,0.0000,0.0000
29.3188,33.2240,8.6598,-0.0000,-0.0000,0.1200,1.6200,0.6400,0.0000,-0.3120,-0.2727,0.0025,996,1502,1527,1502,1000,1000,1505,1000,1000,1004,1005,1000,1014,0.1129,0.0339,-0.0244,-0.0213,0.0156,0.9972,-0.0369,0.5823,0.0418,-0.5872,0.8627,0.2400,0.1321,0.8627,0.2400,0.1321,0.3000,0.0600,0.0002,0,-4.9132,-255.4314,-0.4764,-4.9132,-255.4314,-0.4764,31.7235,30.5534,0.0200,0.2700,0.0000,0.0000,0.0000,0.0000,0.0000,0.0000
29.2873,33.1976,8.6424,-0.0829,-0.0821,0.1200,1.6200,0.6400,0.0000,-0.3116,-0.2724,0.0022,996,1502,1527,1502,1000,1000,1505,1000,1000,1004,1005,1000,1014,0.0056,-0.0342,0.0564,-0.0241,0.0120,0.9986,-0.0371,0.5818,0.0415,-0.5862,0.8627,0.2400,0.1321,0.8627,0.2400,0.1321,0.3000,0.0600,0.0002,0,-4.9132,-255.4314,-0.4764,-4.9132,-255.4314,-0.4764,31.6889,30.5299,0.0200,0.2700,0.0000,0.0000,0.0000,0.0000,0.0000,0.0000
29.2559,33.1708,8.6251,0.0829,-0.0000,0.2400,1.6800,0.6400,0.0000,-0.3104,-0.2716,0.0022,997,1503,1527,1502,1000,1000,1505,1000,1000,1004,1005,1000,1014,0.0972,-0.0200,0.0563,-0.0188,0.0131,0.9984,-0.0366,0.5799,0.0410,-0.5843,0.8627,0.2400,0.1321,0.8627,0.2400,0.1321,0.3000,0.0600,0.0002,0,-4.9132,-255.4314,-0.4764,-4.9132,-255.4314,-0.4764,31.6539,30.5060,0.0400,0.2800,0.0000,0.0000,0.0000,0.0000,0.0000,0.0000
29.2245,33.1439,8.6078,0.0829,-0.0000,0.1200,1.6200,0.6400,0.0000,-0.3112,-0.2719,0.0022,996,1502,1527,1502,1000,1000,1505,1000,1000,1004,1005,1000,1014,0.1175,-0.0682,0.0461,-0.0194,0.0148,0.9997,-0.0372,0.5809,0.0416,-0.5853,0.8627,0.2400,0.1321,0.8627,0.2400,0.1321,0.3000,0.0600,0.0002,0,-4.9132,-255.4314,-0.4764,-4.9132,-255.4314,-0.4764,31.6190,30.4811,0.0200,0.2700,0.0000,0.0000,0.0000,0.0000,0.0000,0.0000
29.1929,33.1170,8.5901,-0.0000,-0.0000,0.1200,1.6200,0.6400,0.0000,-0.3109,-0.2717,0.0022,996,1502,1527,1502,1000,1000,1505,1000,1000,1004,1005,1000,1014,0.0806,-0.0078,0.0424,-0.0230,0.0137,0.9970,-0.0370,0.5804,0.0414,-0.5849,0.8627,0.2400,0.1321,0.8627,0.2400,0.1321,0.3000,0.0600,0.0002,0,-4.9132,-255.4314,-0.4764,-4.9132,-255.4314,-0.4764,31.5847,30.4571,0.0200,0.2700,0.0000,0.0000,0.0000,0.0000,0.0000,0.0000
29.1610,33.0906,8.5722,0.0829,-0.0000,0.1200,1.6200,0.6400,0.0000,-0.3106,-0.2715,0.0027,996,1502,1527,1502,1000,1000,1505,1000,1000,1004,1005,1000,1014,0.0472,0.0187,-0.1025,-0.0198,0.0144,0.9989,-0.0364,0.5794,0.0418,-0.5848,0.8627,0.2400,0.1321,0.8627,0.2400,0.1321,0.3000,0.0600,0.0002,0,-4.9132,-255.4314,-0.4764,-4.9132,-255.4314,-0.4764,31.5504,30.4325,0.0200,0.2700,0.0000,0.0000,0.0000,0.0000,0.0000,0.0000
29.1289,33.0645,8.5537,0.0829,-0.0000,0.1200,1.6200,0.6400,0.0000,-0.3104,-0.2713,0.0026,996,1502,1527,1502,1000,1000,1505,1000,1000,1004,1005,1000,1014,0.1038,0.0169,-0.0674,-0.0203,0.0156,1.0001,-0.0365,0.5791,0.0417,-0.5843,0.8627,0.2400,0.1321,0.8627,0.2400,0.1321,0.3000,0.0600,0.0002,0,-4.9132,-255.4314,-0.4764,-4.9132,-255.4314,-0.4764,31.5161,30.4088,0.0200,0.2700,0.0000,0.0000,0.0000,0.0000,0.0000,0.0000
29.0979,33.0384,8.5358,0.1657,0.0821,0.1200,1.6200,0.6400,0.0000,-0.3102,-0.2711,0.0024,996,1502,1527,1502,1000,1000,1505,1000,1000,1004,1005,1000,1014,0.1769,0.0637,0.0010,-0.0210,0.0155,1.0014,-0.0367,0.5790,0.0415,-0.5837,0.8627,0.2400,0.1321,0.8627,0.2400,0.1321,0.3000,0.0600,0.0002,0,-4.9132,-255.4314,-0.4764,-4.9132,-255.4314,-0.4764,31.4816,30.3847,0.0200,0.2700,0.0000,0.0000,0.0000,0.0000,0.0000,0.0000
29.0668,33.0122,8.5188,-0.0000,0.0821,0.2400,1.6800,0.6400,0.0000,-0.3088,-0.2704,0.0024,997,1503,1527,1502,1000,1000,1505,1000,1000,1004,1005,1000,1014,0.0917,0.0433,0.0122,-0.0189,0.0139,1.0016,-0.0361,0.5768,0.0408,-0.5815,0.8627,0.2400,0.1321,0.8627,0.2400,0.1321,0.3000,0.0600,0.0002,0,-4.9132,-255.4314,-0.4764,-4.9132,-255.4314,-0.4764,31.4477,30.3612,0.0400,0.2800,0.0000,0.0000,0.0000,0.0000,0.0000,0.0000
29.0357,32.9857,8.5015,0.0829,-0.0821,0.1200,1.6200,0.6400,0.0000,-0.3096,-0.2706,0.0023,996,1502,1527,1502,1000,1000,1505,1000,1000,1004,1005,1000,1014,0.1089,0.0258,0.0221,-0.0212,0.0136,1.0011,-0.0366,0.5779,0.0413,-0.5826,0.8627,0.2400,0.1321,0.8627,0.2400,0.1321,0.3000,0.0600,0.0002,0,-4.9132,-255.4314,-0.4764,-4.9132,-255.4314,-0.4764,31.4140,30.3373,0.0200,0.2700,0.0000,0.0000,0.0000,0.0000,0.0000,0.0000
29.0038,32.9592,8.4835,0.1657,-0.0000,0.1200,1.6200,0.6400,0.0000,-0.3092,-0.2704,0.0026,996,1502,1527,1502,1000,1000,1505,1000,1000,1004,1005,1000,1014,0.0372,0.0109,-0.0675,-0.0187,0.0107,0.9935,-0.0362,0.5770,0.0415,-0.5822,0.8627,0.2400,0.1321,0.8627,0.2400,0.1321,0.3000,0.0600,0.0002,0,-4.9132,-255.4314,-0.4764,-4.9132,-255.4314,-0.4764,31.3799,30.3132,0.0200,0.2700,0.0000,0.0000,0.0000,0.0000,0.0000,0.0000
28.9717,32.9331,8.4658,0.1657,-0.0000,0.1200,1.6200,0.6400,0.0000,-0.3090,-0.2702,0.0025,996,1502,1527,1502,1000,1000,1505,1000,1000,1004,1005,1000,1014,0.0532,0.0142,-0.0174,-0.0203,0.0135,0.9997,-0.0364,0.5767,0.0413,-0.5816,0.8627,0.2400,0.1321,0.8627,0.2400,0.1321,0.3000,0.0600,0.0002,0,-4.9132,-255.4314,-0.4764,-4.9132,-255.4314,-0.4764,31.3455,30.2887,0.0200,0.2700,0.0000,0.0000,0.0000,0.0000,0.0000,0.0000
28.9404,32.9068,8.4486,-0.0000,-0.0000,0.1200,1.6200,0.6400,0.0000,-0.3088,-0.2700,0.0023,996,1502,1527,1502,1000,1000,1505,1000,1000,1004,1005,1000,1014,0.1047,0.0449,0.0281,-0.0190,0.0122,0.9993,-0.0365,0.5764,0.0411,-0.5811,0.8627,0.2400,0.1321,0.8627,0.2400,0.1321,0.3000,0.0600,0.0002,0,-4.9132,-255.4314,-0.4764,-4.9132,-255.4314,-0.4764,31.3115,30.2651,0.0200,0.2700,0.0000,0.0000,0.0000,0.0000,0.0000,0.0000
28.9091,32.8804,8.4310,0.1657,-0.0000,0.1200,1.6200,0.6400,0.0000,-0.3085,-0.2697,0.0024,996,1502,1527,1502,1000,1000,1505,1000,1000,1004,1005,1000,1014,0.0876,-0.0020,-0.0063,-0.0202,0.0147,0.9974,-0.0364,0.5758,0.0412,-0.5806,0.8627,0.2400,0.1321,0.8627,0.2400,0.1321,0.3000,0.0600,0.0002,0,-4.9132,-255.4314,-0.4764,-4.9132,-255.4314,-0.4764,31.2772,30.2414,0.0200,0.2700,0.0000,0.0000,0.0000,0.0000,0.0000,0.0000
28.8770,32.8542,8.4133,0.0829,-0.0000,0.2400,1.6800,0.6400,0.0000,-0.3071,-0.2690,0.0024,997,1503,1527,1502,1000,1000,1505,1000,1000,1004,1005,1000,1014,0.0278,0.0335,-0.0159,-0.0174,0.0118,0.9986,-0.0357,0.5736,0.0406,-0.5785,0.8627,0.2400,0.1321,0.8627,0.2400,0.1321,0.3000,0.0600,0.0002,0,-4.9132,-255.4314,-0.4764,-4.9132,-255.4314,-0.4764,31.2429,30.2170,0.0400,0.2800,0.0000,0.0000,0.0000,0.0000,0.0000,0.0000
28.8457,32.8281,8.3960,0.0829,-0.0000,0.1200,1.6200,0.6400,0.0000,-0.3079,-0.2693,0.0023,996,1502,1527,1502,1000,1000,1505,1000,1000,1004,1005,1000,1014,0.0783,0.0693,0.0137,-0.0185,0.0122,1.0015,-0.0363,0.5749,0.0409,-0.5796,0.8627,0.2400,0.1321,0.8627,0.2400,0.1321,0.3000,0.0600,0.0002,0,-4.9132,-255.4314,-0.4764,-4.9132,-255.4314,-0.4764,31.2086,30.1925,0.0200,0.2700,0.0000,0.0000,0.0000,0.0000,0.0000,0.0000
28.8146,32.8020,8.3790,0.0829,-0.0000,0.1200,1.6200,0.6400,0.0000,-0.3077,-0.2690,0.0024,996,1502,1527,1502,1000,1000,1505,1000,1000,1004,1005,1000,1014,0.1005,0.0159,-0.0232,-0.0202,0.0133,1.0016,-0.0362,0.5743,0.0411,-0.5791,0.8627,0.2400,0.1321,0.8627,0.2400,0.1321,0.3000,0.0600,0.0002,0,-4.9132,-255.4314,-0.4764,-4.9132,-255.4314,-0.4764,31.1744,30.1685,0.0200,0.2700,0.0000,0.0000,0.0000,0.0000,0.0000,0.0000
28.7835,32.7749,8.3616,0.0829,-0.0000,0.1200,1.6200,0.6400,0.0000,-0.3074,-0.2688,0.0026,996,1502,1527,1502,1000,1000,1505,1000,1000,1004,1005,1000,1014,0.0562,-0.0023,-0.0591,-0.0188,0.0156,0.9993,-0.0359,0.5735,0.0412,-0.5788,0.8627,0.2400,0.1321,0.8627,0.2400,0.1321,0.3000,0.0600,0.0002,0,-4.9132,-255.4314,-0.4764,-4.9132,-255.4314,-0.4764,31.1406,30.1439,0.0200,0.2700,0.0000,0.0000,0.0000,0.0000,0.0000,0.0000
28.7520,32.7483,8.3435,-0.0829,-0.0821,0.1200,1.6200,0.6400,0.0000,-0.3071,-0.2685,0.0025,996,1502,1527,1502,1000,1000,1505,1000,1000,1004,1005,1000,1014,0.1016,-0.0129,-0.0281,-0.0211,0.0138,0.9986,-0.0361,0.5732,0.0411,-0.5782,0.8627,0.2400,0.1321,0.8627,0.2400,0.1321,0.3000,0.0600,0.0002,0,-4.9132,-255.4314,-0.4764,-4.9132,-255.4314,-0.4764,31.1067,30.1191,0.0200,0.2700,0.0000,0.0000,0.0000,0.0000,0.0000,0.0000
28.7201,32.7219,8.3255,0.0829,-0.0000,0.1200,1.6200,0.6400,0.0000,-0.3068,-0.2683,0.0025,996,1502,1527,1502,1000,1000,1505,1000,1000,1004,1005,1000,1014,0.0435,0.0223,-0.0309,-0.0220,0.0165,0.9990,-0.0360,0.5727,0.0409,-0.5776,0.8627,0.2400,0.1321,0.8627,0.2400,0.1321,0.3000,0.0600,0.0002,0,-4.9132,-255.4314,-0.4764,-4.9132,-255.4314,-0.4764,31.0723,30.0953,0.0200,0.2700,0.0000,0.0000,0.0000,0.0000,0.0000,0.0000
28.6888,32.6955,8.3079,-0.0829,-0.0000,0.2400,1.6800,0.6400,0.0000,-0.3056,-0.2675,0.0024,997,1503,1527,1502,1000,1000,1505,1000,1000,1004,1005,1000,1014,0.1035,-0.0314,0.0134,-0.0211,0.0140,0.9952,-0.0357,0.5707,0.0404,-0.5755,0.8627,0.2400,0.1321,0.8627,0.2400,0.1321,0.3000,0.0600,0.0002,0,-4.9132,-255.4314,-0.4764,-4.9132,-255.4314,-0.4764,31.0381,30.0705,0.0400,0.2800,0.0000,0.0000,0.0000,0.0000,0.0000,0.0000
28.6579,32.6685,8.2905,0.0829,-0.0000,0.1200,1.6200,0.6400,0.0000,-0.3064,-0.2678,0.0024,996,1502,1527,1502,1000,1000,1505,1000,1000,1004,1005,1000,1014,0.1251,-0.0122,0.0214,-0.0208,0.0136,0.9984,-0.0361,0.5718,0.0409,-0.5766,0.8627,0.2400,0.1321,0.8627,0.2400,0.1321,0.3000,0.0600,0.0002,0,-4.9132,-255.4314,-0.4764,-4.9132,-255.4314,-0.4764,31.0044,30.0454,0.0200,0.2700,0.0000,0.0000,0.0000,0.0000,0.0000,0.0000
28.6262,32.6419,8.2724,0.0829,-0.0000,0.1200,1.6200,0.6400,0.0000,-0.3061,-0.2676,0.0027,996,1502,1527,1502,1000,1000,1505,1000,1000,1004,1005,1000,1014,0.0962,-0.0017,-0.0811,-0.0217,0.0106,1.0023,-0.0358,0.5710,0.0411,-0.5763,0.8627,0.2400,0.1321,0.8627,0.2400,0.1321,0.3000,0.0600,0.0002,0,-4.9132,-255.4314,-0.4764,-4.9132,-255.4314,-0.4764,30.9701,30.0208,0.0200,0.2700,0.0000,0.0000,0.0000,0.0000,0.0000,0.0000
28.5948,32.6156,8.2548,0.1657,-0.0000,0.1200,1.6200,0.6400,0.0000,-0.3058,-0.2674,0.0024,996,1502,1527,1502,1000,1000,1505,1000,1000,1004,1005,1000,1014,0.0903,-0.0320,0.0096,-0.0211,0.0135,0.9987,-0.0360,0.5707,0.0408,-0.5755,0.8627,0.2400,0.1321,0.8627,0.2400,0.1321,0.3000,0.0600,0.0002,0,-4.9132,-255.4314,-0.4764,-4.9132,-255.4314,-0.4764,30.9359,29.9960,0.0200,0.2700,0.0000,0.0000,0.0000,0.0000,0.0000,0.0000
28.5636,32.5893,8.2368,-0.0000,-0.0000,0.1200,1.6200,0.6400,0.0000,-0.3055,-0.2672,0.0026,996,1502,1527,1502,1000,1000,1505,1000,1000,1004,1005,1000,1014,0.1214,0.0448,-0.0712,-0.0222,0.0154,1.0000,-0.0357,0.5701,0.0409,-0.5754,0.8627,0.2400,0.1321,0.8627,0.2400,0.1321,0.3000,0.0600,0.0002,0,-4.9132,-255.4314,-0.4764,-4.9132,-255.4314,-0.4764,30.9017,29.9707,0.0200,0.2700,0.0000,0.0000,0.0000,0.0000,0.0000,0.0000
28.5317,32.5629,8.2185,0.0829,-0.0000,0.1200,1.6200,0.6400,0.0000,-0.3052,-0.2669,0.0025,996,1502,1527,1502,1000,1000,1505,1000,1000,1004,1005,1000,1014,0.1022,-0.0084,-0.0451,-0.0192,0.0148,0.9995,-0.0358,0.5696,0.0408,-0.5747,0.8627,0.2400,0.1321,0.8627,0.2400,0.1321,0.3000,0.0600,0.0002,0,-4.9132,-255.4314,-0.4764,-4.9132,-255.4314,-0.4764,30.8668,29.9458,0.0200,0.2700,0.0000,0.0000,0.0000,0.0000,0.0000,0.0000
28.5003,32.5359,8.2006,0.1657,-0.0000,0.2400,1.6800,0.6400,0.0000,-0.3039,-0.2662,0.0026,997,1503,1527,1502,1000,1000,1505,1000,1000,1004,1005,1000,1014,0.0849,-0.0244,-0.0362,-0.0215,0.0163,0.9976,-0.0352,0.5675,0.0403,-0.5727,0.8627,0.2400,0.1321,0.8627,0.2400,0.1321,0.3000,0.0600,0.0002,0,-4.9132,-255.4314,-0.4764,-4.9132,-255.4314,-0.4764,30.8324,29.9206,0.0400,0.2800,0.0000,0.0000,0.0000,0.0000,0.0000,0.0000
28.4689,32.5094,8.1833,0.1657,-0.0000,0.1200,1.6200,0.6400,0.0000,-0.3047,-0.2665,0.0026,996,1502,1527,1502,1000,1000,1505,1000,1000,1004,1005,1000,1014,0.0939,-0.0159,-0.0488,-0.0205,0.0154,0.9995,-0.0356,0.5686,0.0408,-0.5737,0.8627,0.2400,0.1321,0.8627,0.2400,0.1321,0.3000,0.0600,0.0002,0,-4.9132,-255.4314,-0.4764,-4.9132,-255.4314,-0.4764,30.7985,29.8963,0.0200,0.2700,0.0000,0.0000,0.0000,0.0000,0.0000,0.0000
28.4371,32.4826,8.1650,0.1657,0.0821,0.1200,1.6200,0.6400,0.0000,-0.3044,-0.2662,0.0028,996,1502,1527,1502,1000,1000,1505,1000,1000,1004,1005,1000,1014,0.0654,-0.0402,-0.1134,-0.0223,0.0106,0.9986,-0.0354,0.5678,0.0409,-0.5733,0.8627,0.2400,0.1321,0.8627,0.2400,0.1321,0.3000,0.0600,0.0002,0,-4.9132,-255.4314,-0.4764,-4.9132,-255.4314,-0.4764,30.7647,29.8716,0.0200,0.2700,0.0000,0.0000,0.0000,0.0000,0.0000,0.0000
28.4056,32.4559,8.1471,0.0829,-0.0000,0.1200,1.6200,0.6400,0.0000,-0.3042,-0.2660,0.0025,996,1502,1527,1502,1000,1000,1505,1000,1000,1004,1005,1000,1014,0.1532,-0.0016,-0.0094,-0.0209,0.0133,0.9964,-0.0357,0.5677,0.0407,-0.5727,0.8627,0.2400,0.1321,0.8627,0.2400,0.1321,0.3000,0.0600,0.0002,0,-4.9132,-255.4314,-0.4764,-4.9132,-255.4314,-0.4764,30.7306,29.8471,0.0200,0.2700,0.0000,0.0000,0.0000,0.0000,0.0000,0.0000
28.3750,32.4294,8.1301,0.0829,-0.0000,0.1200,1.6200,0.6400,0.0000,-0.3039,-0.2658,0.0023,996,1502,1527,1502,1000,1000,1505,1000,1000,1004,1005,1000,1014,0.0749,0.0398,0.0402,-0.0236,0.0135,0.9942,-0.0357,0.5674,0.0404,-0.5720,0.8627,0.2400,0.1321,0.8627,0.2400,0.1321,0.3000,0.0600,0.0002,0,-4.9132,-255.4314,-0.4764,-4.9132,-255.4314,-0.4764,30.6968,29.8222,0.0200,0.2700,0.0000,0.0000,0.0000,0.0000,0.0000,0.0000
28.3438,32.4028,8.1130,0.0829,-0.0000,0.1200,1.6200,0.6400,0.0000,-0.3036,-0.2656,0.0026,996,1502,1527,1502,1000,1000,1505,1000,1000,1004,1005,1000,1014,0.1176,0.0133,-0.0227,-0.0210,0.0141,1.0014,-0.0355,0.5666,0.0407,-0.5718,0.8627,0.2400,0.1321,0.8627,0.2400,0.1321,0.3000,0.0600,0.0002,0,-4.9132,-255.4314,-0.4764,-4.9132,-255.4314,-0.4764,30.6629,29.7975,0.0200,0.2700,0.0000,0.0000,0.0000,0.0000,0.0000,0.0000
28.3121,32.3758,8.0944,-0.0000,-0.0000,0.2400,1.6800,0.6400,0.0000,-0.3023,-0.2648,0.0027,997,1503,1527,1502,1000,1000,1505,1000,1000,1004,1005,1000,1014,0.1225,-0.0357,-0.0685,-0.0217,0.0150,1.0016,-0.0349,0.5644,0.0403,-0.5698,0.8627,0.2400,0.1321,0.8627,0.2400,0.1321,0.3000,0.0600,0.0002,0,-4.9132,-255.4314,-0.4764,-4.9132,-255.4314,-0.4764,30.6288,29.7726,0.0400,0.2800,0.0000,0.0000,0.0000,0.0000,0.0000,0.0000
28.2807,32.3490,8.0764,0.0829,-0.0000,0.1200,1.6200,0.6400,0.0000,-0.3031,-0.2651,0.0027,996,1502,1527,1502,1000,1000,1505,1000,1000,1004,1005,1000,1014,0.1284,0.0151,-0.0642,-0.0231,0.0132,0.9988,-0.0353,0.5656,0.0406,-0.5709,0.8627,0.2400,0.1321,0.8627,0.2400,0.1321,0.3000,0.0600,0.0002,0,-4.9132,-255.4314,-0.4764,-4.9132,-255.4314,-0.4764,30.5949,29.7480,0.0200,0.2700,0.0000,0.0000,0.0000,0.0000,0.0000,0.0000
28.2494,32.3224,8.0590,0.0829,-0.0000,0.1200,1.6200,0.6400,0.0000,-0.3028,-0.2649,0.0024,996,1502,1527,1502,1000,1000,1505,1000,1000,1004,1005,1000,1014,0.1148,0.0163,0.0364,-0.0174,0.0146,1.0039,-0.0355,0.5653,0.0403,-0.5701,0.8627,0.2400,0.1321,0.8627,0.2400,0.1321,0.3000,0.0600,0.0002,0,-4.9132,-255.4314,-0.4764,-4.9132,-255.4314,-0.4764,30.5609,29.7230,0.0200,0.2700,0.0000,0.0000,0.0000,0.0000,0.0000,0.0000
28.2183,32.2955,8.0419,0.1657,0.0821,0.1200,1.6200,0.6400,0.0000,-0.3025,-0.2646,0.0024,996,1502,1527,1502,1000,1000,1505,1000,1000,1004,1005,1000,1014,0.0789,-0.0119,0.0197,-0.0218,0.0134,1.0008,-0.0355,0.5647,0.0403,-0.5695,0.8627,0.2400,0.1321,0.8627,0.2400,0.1321,0.3000,0.0600,0.0002,0,-4.9132,-255.4314,-0.4764,-4.9132,-255.4314,-0.4764,30.5264,29.6978,0.0200,0.2700,0.0000,0.0000,0.0000,0.0000,0.0000,0.0000
28.1870,32.2686,8.0251,-0.0000,-0.0000,0.1200,1.6200,0.6400,0.0000,-0.3022,-0.2645,0.0025,996,1502,1527,1502,1000,1000,1505,1000,1000,1004,1005,1000,1014,0.0461,0.0583,-0.0041,-0.0217,0.0113,0.9999,-0.0352,0.5642,0.0402,-0.5692,0.8627,0.2400,0.1321,0.8627,0.2400,0.1321,0.3000,0.0600,0.0002,0,-4.9132,-255.4314,-0.4764,-4.9132,-255.4314,-0.4764,30.4920,29.6735,0.0200,0.2700,0.0000,0.0000,0.0000,0.0000,0.0000,0.0000
28.1559,32.2418,8.0081,0.0829,-0.0821,0.1200,1.6200,0.6400,0.0000,-0.3021,-0.2643,0.0024,996,1502,1527,1502,1000,1000,1505,1000,1000,1004,1005,1000,1014,0.1533,0.0676,0.0226,-0.0193,0.0152,1.0021,-0.0354,0.5639,0.0402,-0.5687,0.8627,0.2400,0.1321,0.8627,0.2400,0.1321,0.3000,0.0600,0.0002,0,-4.9132,-255.4314,-0.4764,-4.9132,-255.4314,-0.4764,30.4584,29.6495,0.0200,0.2700,0.0000,0.0000,0.0000,0.0000,0.0000,0.0000
28.1252,32.2149,7.9911,0.0829,-0.0000,0.2400,1.6800,0.6400,0.0000,-0.3006,-0.2634,0.0025,997,1503,1527,1502,1000,1000,1505,1000,1000,1004,1005,1000,1014,0.0568,-0.0166,-0.0073,-0.0202,0.0143,0.9969,-0.0347,0.5615,0.0398,-0.5666,0.8627,0.2400,0.1321,0.8627,0.2400,0.1321,0.3000,0.0600,0.0002,0,-4.9132,-255.4314,-0.4764,-4.9132,-255.4314,-0.4764,30.4246,29.6252,0.0400,0.2800,0.0000,0.0000,0.0000,0.0000,0.0000,0.0000
28.0933,32.1877,7.9735,-0.0000,-0.0821,0.1200,1.6200,0.6400,0.0000,-0.3014,-0.2636,0.0024,996,1502,1527,1502,1000,1000,1505,1000,1000,1004,1005,1000,1014,0.0847,-0.0494,0.0206,-0.0220,0.0133,1.0001,-0.0354,0.5627,0.0402,-0.5675,0.8627,0.2400,0.1321,0.8627,0.2400,0.1321,0.3000,0.0600,0.0002,0,-4.9132,-255.4314,-0.4764,-4.9132,-255.4314,-0.4764,30.3904,29.6006,0.0200,0.2700,0.0000,0.0000,0.0000,0.0000,0.0000,0.0000
28.0616,32.1607,7.9559,-0.0000,0.0821,0.1200,1.6200,0.6400,0.0000,-0.3012,-0.2635,0.0026,996,1502,1527,1502,1000,1000,1505,1000,1000,1004,1005,1000,1014,0.1247,0.0088,-0.0312,-0.0201,0.0124,0.9992,-0.0351,0.5621,0.0403,-0.5673,0.8627,0.2400,0.1321,0.8627,0.2400,0.1321,0.3000,0.0600,0.0002,0,-4.9132,-255.4314,-0.4764,-4.9132,-255.4314,-0.4764,30.3562,29.5762,0.0200,0.2700,0.0000,0.0000,0.0000,0.0000,0.0000,0.0000
28.0307,32.1333,7.9384,-0.0829,-0.0821,0.1200,1.6200,0.6400,0.0000,-0.3010,-0.2632,0.0027,996,1502,1527,1502,1000,1000,1505,1000,1000,1004,1005,1000,1014,0.1251,-0.0504,-0.0498,-0.0210,0.0140,0.9994,-0.0351,0.5614,0.0405,-0.5668,0.8627,0.2400,0.1321,0.8627,0.2400,0.1321,0.3000,0.0600,0.0002,0,-4.9132,-255.4314,-0.4764,-4.9132,-255.4314,-0.4764,30.3221,29.5517,0.0200,0.2700,0.0000,0.0000,0.0000,0.0000,0.0000,0.0000
27.9994,32.1057,7.9207,0.0829,-0.0000,0.1200,1.6200,0.6400,0.0000,-0.3007,-0.2629,0.0025,996,1502,1527,1502,1000,1000,1505,1000,1000,1004,1005,1000,1014,0.1103,-0.0609,0.0034,-0.0181,0.0123,0.9997,-0.0352,0.5611,0.0402,-0.5661,0.8627,0.2400,0.1321,0.8627,0.2400,0.1321,0.3000,0.0600,0.0002,0,-4.9132,-255.4314,-0.4764,-4.9132,-255.4314,-0.4764,30.2879,29.5274,0.0200,0.2700,0.0000,0.0000,0.0000,0.0000,0.0000,0.0000
27.9684,32.0787,7.9038,-0.0000,-0.0000,0.1200,1.6200,0.6400,0.0000,-0.3004,-0.2628,0.0025,996,1502,1527,1502,1000,1000,1505,1000,1000,1004,1005,1000,1014,0.0810,0.0615,0.0095,-0.0162,0.0153,0.9989,-0.0350,0.5607,0.0400,-0.5657,0.8627,0.2400,0.1321,0.8627,0.2400,0.1321,0.3000,0.0600,0.0002,0,-4.9132,-255.4314,-0.4764,-4.9132,-255.4314,-0.4764,30.2535,29.5027,0.0200,0.2700,0.0000,0.0000,0.0000,0.0000,0.0000,0.0000
27.9373,32.0516,7.8873,-0.0000,-0.0000,0.2400,1.6800,0.6400,0.0000,-0.2990,-0.2621,0.0027,997,1503,1527,1502,1000,1000,1505,1000,1000,1004,1005,1000,1014,0.0795,0.0469,-0.0341,-0.0220,0.0138,0.9974,-0.0343,0.5584,0.0397,-0.5638,0.8627,0.2400,0.1321,0.8627,0.2400,0.1321,0.3000,0.0600,0.0002,0,-4.9132,-255.4314,-0.4764,-4.9132,-255.4314,-0.4764,30.2197,29.4777,0.0400,0.2800,0.0000,0.0000,0.0000,0.0000,0.0000,0.0000
27.9062,32.0241,7.8702,-0.0000,-0.0000,0.1200,1.6200,0.6400,0.0000,-0.2999,-0.2622,0.0027,996,1502,1527,1502,1000,1000,1505,1000,1000,1004,1005,1000,1014,0.1271,-0.0786,-0.0369,-0.0189,0.0127,0.9996,-0.0350,0.5594,0.0404,-0.5647,0.8627,0.2400,0.1321,0.8627,0.2400,0.1321,0.3000,0.0600,0.0002,0,-4.9132,-255.4314,-0.4764,-4.9132,-255.4314,-0.4764,30.1852,29.4530,0.0200,0.2700,0.0000,0.0000,0.0000,0.0000,0.0000,0.0000
27.8747,31.9970,7.8526,0.0829,-0.0000,0.1200,1.6200,0.6400,0.0000,-0.2996,-0.2622,0.0026,996,1502,1527,1502,1000,1000,1505,1000,1000,1003,1005,1000,1014,0.0869,0.0704,-0.0261,-0.0221,0.0118,1.0030,-0.0348,0.5591,0.0400,-0.5643,0.8627,0.2400,0.1321,0.8627,0.2400,0.1321,0.3000,0.0600,0.0002,0,-4.8936,-255.4314,-0.4764,-4.8936,-255.4314,-0.4764,30.1514,29.4284,0.0200,0.2700,0.0000,0.0000,0.0000,0.0000,0.0000,0.0000
27.8432,31.9704,7.8350,0.0829,-0.0000,0.1200,1.6200,0.6400,0.0000,-0.2992,-0.2618,0.0029,996,1502,1527,1502,1000,1000,1505,1000,1000,1003,1005,1000,1014,0.0372,-0.0508,-0.1242,-0.0209,0.0120,1.0014,-0.0345,0.5580,0.0404,-0.5639,0.8627,0.2400,0.1321,0.8627,0.2400,0.1321,0.3000,0.0600,0.0002,0,-4.8936,-255.4314,-0.4764,-4.8936,-255.4314,-0.4764,30.1170,29.4031,0.0200,0.2700,0.0000,0.0000,0.0000,0.0000,0.0000,0.0000
27.8116,31.9437,7.8173,0.0829,-0.0000,0.1200,1.6200,0.6400,0.0000,-0.2991,-0.2617,0.0028,996,1502,1527,1502,1000,1000,1505,1000,1000,1004,1005,1000,1014,0.1196,0.0578,-0.0552,-0.0205,0.0125,1.0013,-0.0346,0.5580,0.0401,-0.5635,0.8627,0.2400,0.1321,0.8627,0.2400,0.1321,0.3000,0.0600,0.0002,0,-4.9132,-255.4314,-0.4764,-4.9132,-255.4314,-0.4764,30.0822,29.3785,0.0200,0.2700,0.0000,0.0000,0.0000,0.0000,0.0000,0.0000
27.7801,31.9171,7.8000,0.0829,-0.0821,0.1200,1.6200,0.6400,0.0000,-0.2987,-0.2615,0.0028,996,1502,1527,1502,1000,1000,1505,1000,1000,1004,1005,1000,1014,0.0395,0.0599,-0.0669,-0.0192,0.0136,1.0003,-0.0344,0.5573,0.0400,-0.5629,0.8627,0.2400,0.1321,0.8627,0.2400,0.1321,0.3000,0.0600,0.0002,0,-4.9132,-255.4314,-0.4764,-4.9132,-255.4314,-0.4764,30.0476,29.3540,0.0200,0.2700,0.0000,0.0000,0.0000,0.0000,0.0000,0.0000
27.7484,31.8907,7.7822,0.1657,0.0821,0.2400,1.6800,0.6400,0.0000,-0.2975,-0.2607,0.0026,997,1503,1527,1502,1000,1000,1505,1000,1000,1004,1005,1000,1014,0.1355,0.0201,-0.0389,-0.0193,0.0139,1.0027,-0.0342,0.5555,0.0395,-0.5608,0.8627,0.2400,0.1321,0.8627,0.2400,0.1321,0.3000,0.0600,0.0002,0,-4.9132,-255.4314,-0.4764,-4.9132,-255.4314,-0.4764,30.0134,29.3293,0.0400,0.2800,0.0000,0.0000,0.0000,0.0000,0.0000,0.0000
27.7174,31.8636,7.7658,-0.0000,-0.0000,0.1200,1.6200,0.6400,0.0000,-0.2981,-0.2610,0.0026,996,1502,1527,1502,1000,1000,1505,1000,1000,1004,1005,1000,1014,0.0286,0.0626,0.0008,-0.0211,0.0122,0.9968,-0.0345,0.5565,0.0397,-0.5617,0.8627,0.2400,0.1321,0.8627,0.2400,0.1321,0.3000,0.0600,0.0002,0,-4.9132,-255.4314,-0.4764,-4.9132,-255.4314,-0.4764,29.9796,29.3044,0.0200,0.2700,0.0000,0.0000,0.0000,0.0000,0.0000,0.0000
27.6864,31.8365,7.7490,0.0829,-0.0000,0.1200,1.6200,0.6400,0.0000,-0.2980,-0.2607,0.0024,996,1502,1527,1502,1000,1000,1505,1000,1000,1004,1005,1000,1014,0.1439,0.0356,0.0359,-0.0214,0.0159,0.9988,-0.0348,0.5563,0.0397,-0.5612,0.8627,0.2400,0.1321,0.8627,0.2400,0.1321,0.3000,0.0600,0.0002,0,-4.9132,-255.4314,-0.4764,-4.9132,-255.4314,-0.4764,29.9455,29.2792,0.0200,0.2700,0.0000,0.0000,0.0000,0.0000,0.0000,0.0000
27.6559,31.8095,7.7322,-0.0000,-0.0000,0.1200,1.6200,0.6400,0.0000,-0.2977,-0.2604,0.0027,996,1502,1527,1502,1000,1000,1505,1000,1000,1004,1005,1000,1014,0.1213,-0.0057,-0.0378,-0.0222,0.0144,1.0011,-0.0346,0.5554,0.0400,-0.5609,0.8627,0.2400,0.1321,0.8627,0.2400,0.1321,0.3000,0.0600,0.0002,0,-4.9132,-255.4314,-0.4764,-4.9132,-255.4314,-0.4764,29.9113,29.2546,0.0200,0.2700,0.0000,0.0000,0.0000,0.0000,0.0000,0.0000
27.6251,31.7826,7.7152,-0.0000,0.0821,0.1200,1.6200,0.6400,0.0000,-0.2975,-0.2603,0.0028,996,1502,1527,1502,1000,1000,1505,1000,1000,1004,1005,1000,1014,0.1273,0.0612,-0.0718,-0.0206,0.0127,1.0026,-0.0344,0.5550,0.0400,-0.5605,0.8627,0.2400,0.1321,0.8627,0.2400,0.1321,0.3000,0.0600,0.0002,0,-4.9132,-255.4314,-0.4764,-4.9132,-255.4314,-0.4764,29.8776,29.2304,0.0200,0.2700,0.0000,0.0000,0.0000,0.0000,0.0000,0.0000
27.5942,31.7558,7.6981,0.0829,-0.0000,0.1200,1.6200,0.6400,0.0000,-0.2971,-0.2600,0.0027,996,1502,1527,1502,1000,1000,1505,1000,1000,1004,1005,1000,1014,0.0823,0.0328,-0.0102,-0.0208,0.0140,0.9977,-0.0344,0.5545,0.0398,-0.5598,0.8627,0.2400,0.1321,0.8627,0.2400,0.1321,0.3000,0.0600,0.0002,0,-4.9132,-255.4314,-0.4764,-4.9132,-255.4314,-0.4764,29.8431,29.2051,0.0200,0.2700,0.0000,0.0000,0.0000,0.0000,0.0000,0.0000
27.5628,31.7288,7.6813,-0.0000,-0.0000,0.2400,1.6800,0.6400,0.0000,-0.2959,-0.2592,0.0026,997,1503,1527,1502,1000,1000,1505,1000,1000,1004,1005,1000,1014,0.1185,-0.0371,0.0127,-0.0210,0.0125,1.0003,-0.0341,0.5525,0.0393,-0.5576,0.8627,0.2400,0.1321,0.8627,0.2400,0.1321,0.3000,0.0600,0.0002,0,-4.9132,-255.4314,-0.4764,-4.9132,-255.4314,-0.4764,29.8091,29.1801,0.0400,0.2800,0.0000,0.0000,0.0000,0.0000,0.0000,0.0000
27.5319,31.7014,7.6643,0.0829,0.0821,0.1200,1.6200,0.6400,0.0000,-0.2966,-0.2596,0.0025,996,1502,1527,1502,1000,1000,1505,1000,1000,1004,1005,1000,1014,0.0745,0.0422,0.0055,-0.0209,0.0164,1.0013,-0.0345,0.5536,0.0396,-0.5587,0.8627,0.2400,0.1321,0.8627,0.2400,0.1321,0.3000,0.0600,0.0002,0,-4.9132,-255.4314,-0.4764,-4.9132,-255.4314,-0.4764,29.7753,29.1545,0.0200,0.2700,0.0000,0.0000,0.0000,0.0000,0.0000,0.0000
27.5013,31.6740,7.6480,-0.0829,-0.0821,0.1200,1.6200,0.6400,0.0000,-0.2963,-0.2594,0.0027,996,1502,1527,1502,1000,1000,1505,1000,1000,1004,1005,1000,1014,0.0919,0.0625,-0.0026,-0.0205,0.0140,0.9980,-0.0343,0.5530,0.0396,-0.5584,0.8627,0.2400,0.1321,0.8627,0.2400,0.1321,0.3000,0.0600,0.0002,0,-4.9132,-255.4314,-0.4764,-4.9132,-255.4314,-0.4764,29.7418,29.1288,0.0200,0.2700,0.0000,0.0000,0.0000,0.0000,0.0000,0.0000
27.4699,31.6471,7.6306,0.0829,-0.0000,0.1200,1.6200,0.6400,0.0000,-0.2960,-0.2591,0.0027,996,1502,1527,1502,1000,1000,1505,1000,1000,1004,1005,1000,1014,0.0507,0.0219,-0.0306,-0.0180,0.0142,0.9973,-0.0343,0.5524,0.0396,-0.5578,0.8627,0.2400,0.1321,0.8627,0.2400,0.1321,0.3000,0.0600,0.0002,0,-4.9132,-255.4314,-0.4764,-4.9132,-255.4314,-0.4764,29.7075,29.1036,0.0200,0.2700,0.0000,0.0000,0.0000,0.0000,0.0000,0.0000
27.4385,31.6198,7.6133,-0.0000,-0.0821,0.1200,1.6200,0.6400,0.0000,-0.2958,-0.2588,0.0029,996,1502,1527,1502,1000,1000,1505,1000,1000,1004,1005,1000,1014,0.0934,-0.0222,-0.0767,-0.0225,0.0126,0.9999,-0.0342,0.5517,0.0399,-0.5574,0.8627,0.2400,0.1321,0.8627,0.2400,0.1321,0.3000,0.0600,0.0002,0,-4.9132,-255.4314,-0.4764,-4.9132,-255.4314,-0.4764,29.6731,29.0787,0.0200,0.2700,0.0000,0.0000,0.0000,0.0000,0.0000,0.0000
27.4066,31.5927,7.5955,0.0829,-0.0000,0.1200,1.6200,0.6400,0.0000,-0.2955,-0.2586,0.0029,996,1502,1527,1502,1000,1000,1505,1000,1000,1004,1005,1000,1014,0.0723,0.0016,-0.0812,-0.0195,0.0121,1.0005,-0.0340,0.5512,0.0398,-0.5570,0.8627,0.2400,0.1321,0.8627,0.2400,0.1321,0.3000,0.0600,0.0002,0,-4.9132,-255.4314,-0.4764,-4.9132,-255.4314,-0.4764,29.6391,29.0534,0.0200,0.2700,0.0000,0.0000,0.0000,0.0000,0.0000,0.0000
27.3750,31.5655,7.5776,0.0829,-0.0000,0.2400,1.6800,0.6400,0.0000,-0.2943,-0.2579,0.0028,997,1503,1527,1502,1000,1000,1505,1000,1000,1004,1005,1000,1014,0.1253,0.0291,-0.0819,-0.0205,0.0127,0.9957,-0.0336,0.5493,0.0392,-0.5549,0.8627,0.2400,0.1321,0.8627,0.2400,0.1321,0.3000,0.0600,0.0002,0,-4.9132,-255.4314,-0.4764,-4.9132,-255.4314,-0.4764,29.6048,29.0278,0.0400,0.2800,0.0000,0.0000,0.0000,0.0000,0.0000,0.0000
27.3439,31.5385,7.5606,0.0829,-0.0000,0.1200,1.6200,0.6400,0.0000,-0.2950,-0.2582,0.0026,996,1502,1527,1502,1000,1000,1505,1000,1000,1004,1005,1000,1014,0.1126,0.0463,-0.0141,-0.0213,0.0160,0.9975,-0.0342,0.5506,0.0395,-0.5558,0.8627,0.2400,0.1321,0.8627,0.2400,0.1321,0.3000,0.0600,0.0002,0,-4.9132,-255.4314,-0.4764,-4.9132,-255.4314,-0.4764,29.5714,29.0026,0.0200,0.2700,0.0000,0.0000,0.0000,0.0000,0.0000,0.0000
27.3130,31.5111,7.5441,0.0829,-0.0821,0.1200,1.6200,0.6400,0.0000,-0.2947,-0.2580,0.0025,996,1502,1527,1502,1000,1000,1505,1000,1000,1004,1005,1000,1014,0.0647,0.0694,0.0612,-0.0214,0.0163,1.0017,-0.0342,0.5502,0.0392,-0.5551,0.8627,0.2400,0.1321,0.8627,0.2400,0.1321,0.3000,0.0600,0.0002,0,-4.9132,-255.4314,-0.4764,-4.9132,-255.4314,-0.4764,29.5382,28.9772,0.0200,0.2700,0.0000,0.0000,0.0000,0.0000,0.0000,0.0000
27.2819,31.4834,7.5273,-0.0000,0.0821,0.1200,1.6200,0.6400,0.0000,-0.2945,-0.2576,0.0027,996,1502,1527,1502,1000,1000,1505,1000,1000,1004,1005,1000,1014,0.1161,0.0091,-0.0139,-0.0216,0.0139,1.0000,-0.0342,0.5495,0.0395,-0.5548,0.8627,0.2400,0.1321,0.8627,0.2400,0.1321,0.3000,0.0600,0.0002,0,-4.9132,-255.4314,-0.4764,-4.9132,-255.4314,-0.4764,29.5043,28.9517,0.0200,0.2700,0.0000,0.0000,0.0000,0.0000,0.0000,0.0000
27.2511,31.4565,7.5102,0.0829,0.0821,0.1200,1.6200,0.6400,0.0000,-0.2942,-0.2575,0.0028,996,1502,1527,1502,1000,1000,1505,1000,1000,1004,1005,1000,1014,0.1184,0.0782,-0.0666,-0.0208,0.0152,1.0013,-0.0339,0.5489,0.0396,-0.5546,0.8627,0.2400,0.1321,0.8627,0.2400,0.1321,0.3000,0.0600,0.0002,0,-4.9132,-255.4314,-0.4764,-4.9132,-255.4314,-0.4764,29.4702,28.9264,0.0200,0.2700,0.0000,0.0000,0.0000,0.0000,0.0000,0.0000
