roll_imu,pitch_imu,yaw_imu,alpha,beta,roll_des,pitch_des,yaw_des,throttle_des,roll_pid,pitch_pid,yaw_pid,radio_ch1,radio_ch2,radio_ch3,radio_ch4,radio_ch5,radio_ch6,radio_ch7,radio_ch8,radio_ch9,radio_ch10,radio_ch11,radio_ch12,radio_ch13,GyroX,GyroY,GyroZ,AccX,AccY,AccZ,s1_command,s2_command,s3_command,s4_command,kp_roll,ki_roll,kd_roll,kp_pitch,ki_pitch,kd_pitch,kp_yaw,ki_yaw,kd_yaw,failsafeTriggered,kp_alphaRoll,ki_alphaRoll,kd_alphaRoll,kp_betaPitch,ki_betaPitch,kd_betaPitch,ripIMU_roll,ripIMU_pitch,ripRoll_des,ripPitch_des,error_alphaRoll,integral_alphaRoll,derivative_alphaRoll,error_betaPitch,integral_betaPitch,derivative_betaPitch
0.0000,0.0000,0.0000,1.5746,4.9658,0.0000,0.0000,0.0000,0.0000,0.0000,0.0000,0.0000,1000,1500,1500,1500,2000,1000,1000,1000,1500,1500,1500,1500,1500,0.0000,0.0000,0.0000,0.0000,0.0000,0.0000,0.0000,0.0000,0.0000,0.0000,0.8627,0.2400,0.1321,0.8627,0.2400,0.1321,0.3000,0.0600,0.0002,0,-4.9280,-256.2000,-0.5040,-4.9280,-256.2000,-0.5040,0.0000,0.0000,0.0000,0.0000,0.0000,0.0000,0.0000,0.0000,0.0000,0.0000
35.3087,48.5799,16.4762,0.0829,-0.0000,-7.8600,-6.5400,-41.9200,0.0000,-0.4324,-0.4755,-0.1261,910,1369,1391,1369,2008,1000,1505,1000,1000,1006,1005,1000,1014,-0.0010,-0.0373,0.0419,-0.0166,0.0108,0.8791,-0.0830,1.0340,-0.1692,-0.7818,0.8627,0.2400,0.1321,0.8627,0.2400,0.1321,0.3000,0.0600,0.0002,0,-5.2582,-272.2996,-0.5252,-5.2582,-272.2996,-0.5252,41.5605,43.7389,-1.3100,-1.0900,0.0000,0.0000,0.0000,0.0000,0.0000,0.0000
35.2753,48.5558,16.4512,-0.0000,-0.1642,-7.8600,-6.5400,-41.9200,0.0000,-0.4322,-0.4753,-0.1262,910,1369,1391,1369,2008,1000,1505,1000,1000,1006,1005,1000,1014,0.0519,-0.0068,-0.0041,-0.0199,0.0115,0.9953,-0.0831,1.0337,-0.1693,-0.7813,0.8627,0.2400,0.1321,0.8627,0.2400,0.1321,0.3000,0.0600,0.0002,0,-5.2582,-272.2996,-0.5252,-5.2582,-272.2996,-0.5252,41.5247,43.7181,-1.3100,-1.0900,0.0000,0.0000,0.0000,0.0000,0.0000,0.0000
34.8664,48.2600,16.1412,0.0829,-0.0821,-2.3400,-0.7800,-12.4800,0.0000,-0.3811,-0.4231,-0.0386,971,1461,1487,1461,2008,1000,1505,1000,1000,1006,1005,1000,1015,0.0796,0.0378,-0.0999,-0.0200,0.0119,1.0021,0.0034,0.8428,-0.0806,-0.7656,0.8627,0.2400,0.1321,0.8627,0.2400,0.1321,0.3000,0.0600,0.0002,0,-5.2734,-273.0836,-0.5267,-5.2734,-273.0836,-0.5267,41.0817,43.4658,-0.3900,-0.1300,0.0000,0.0000,0.0000,0.0000,0.0000,0.0000
34.8329,48.2367,16.1156,0.0829,-0.0000,-0.6000,0.9000,-3.2000,0.0000,-0.3657,-0.4084,-0.0110,991,1490,1515,1490,2008,1000,1505,1000,1000,1006,1005,1000,1015,0.0138,0.0301,-0.0665,-0.0199,0.0109,1.0001,0.0318,0.7851,-0.0537,-0.7631,0.8627,0.2400,0.1321,0.8627,0.2400,0.1321,0.3000,0.0600,0.0002,0,-5.2734,-273.0836,-0.5267,-5.2734,-273.0836,-0.5267,41.0462,43.4450,-0.1000,0.1500,0.0000,0.0000,0.0000,0.0000,0.0000,0.0000
34.7994,48.2133,16.0904,0.0829,-0.0821,0.0000,1.3200,0.0000,0.0000,-0.3603,-0.4046,-0.0013,996,1500,1522,1500,2008,1000,1505,1000,1000,1006,1005,1000,1015,0.0308,0.0713,-0.0534,-0.0192,0.0129,0.9979,0.0431,0.7662,-0.0457,-0.7636,0.8627,0.2400,0.1321,0.8627,0.2400,0.1321,0.3000,0.0600,0.0002,0,-5.2734,-273.0836,-0.5267,-5.2734,-273.0836,-0.5267,41.0090,43.4246,0.0000,0.2200,0.0000,0.0000,0.0000,0.0000,0.0000,0.0000
34.7666,48.1898,16.0657,-0.0000,-0.0821,0.1200,1.5000,0.6400,0.0000,-0.3589,-0.4029,0.0003,996,1502,1525,1502,2008,1000,1505,1000,1000,1006,1005,1000,1015,0.0126,0.0659,0.0258,-0.0190,0.0143,1.0014,0.0443,0.7615,-0.0437,-0.7621,0.8627,0.2400,0.1321,0.8627,0.2400,0.1321,0.3000,0.0600,0.0002,0,-5.2734,-273.0836,-0.5267,-5.2734,-273.0836,-0.5267,40.9730,43.4040,0.0200,0.2500,0.0000,0.0000,0.0000,0.0000,0.0000,0.0000
34.7334,48.1660,16.0407,0.0829,-0.0821,0.1200,1.6200,0.6400,0.0000,-0.3586,-0.4015,0.0005,996,1502,1527,1502,2008,1000,1505,1000,1000,1006,1005,1000,1015,0.0144,-0.0302,-0.0411,-0.0230,0.0124,1.0034,0.0434,0.7596,-0.0423,-0.7607,0.8627,0.2400,0.1321,0.8627,0.2400,0.1321,0.3000,0.0600,0.0002,0,-5.2734,-273.0836,-0.5267,-5.2734,-273.0836,-0.5267,40.9372,43.3838,0.0200,0.2700,0.0000,0.0000,0.0000,0.0000,0.0000,0.0000
34.7001,48.1422,16.0159,0.0829,-0.1642,0.1200,1.6200,0.6400,0.0000,-0.3583,-0.4014,0.0005,998,1504,1528,1504,2008,1000,1505,1000,1000,1006,1005,1000,1015,0.0086,0.0658,-0.0283,-0.0218,0.0163,1.0009,0.0436,0.7592,-0.0426,-0.7603,0.8627,0.2400,0.1321,0.8627,0.2400,0.1321,0.3000,0.0600,0.0002,0,-5.2734,-273.0836,-0.5267,-5.2734,-273.0836,-0.5267,40.9008,43.3631,0.0200,0.2700,0.0000,0.0000,0.0000,0.0000,0.0000,0.0000
34.6667,48.1184,15.9907,-0.0000,-0.1642,0.1200,1.6200,0.6400,0.0000,-0.3580,-0.4011,-0.0003,996,1502,1527,1502,2008,1000,1505,1000,1000,1006,1005,1000,1015,0.0057,-0.0350,-0.0658,-0.0229,0.0152,1.0013,0.0427,0.7595,-0.0434,-0.7588,0.8627,0.2400,0.1321,0.8627,0.2400,0.1321,0.3000,0.0600,0.0002,0,-5.2734,-273.0836,-0.5267,-5.2734,-273.0836,-0.5267,40.8649,43.3420,0.0200,0.2700,0.0000,0.0000,0.0000,0.0000,0.0000,0.0000
34.6336,48.0947,15.9655,-0.0000,-0.0821,0.1200,1.6200,0.6400,0.0000,-0.3578,-0.4010,0.0006,996,1502,1527,1502,2008,1000,1505,1000,1000,1006,1005,1000,1015,0.0742,0.0344,-0.0489,-0.0213,0.0165,1.0036,0.0437,0.7583,-0.0426,-0.7594,0.8627,0.2400,0.1321,0.8627,0.2400,0.1321,0.3000,0.0600,0.0002,0,-5.2734,-273.0836,-0.5267,-5.2734,-273.0836,-0.5267,40.8292,43.3213,0.0200,0.2700,0.0000,0.0000,0.0000,0.0000,0.0000,0.0000
34.6005,48.0710,15.9401,-0.0829,-0.1642,0.1200,1.6200,0.6400,0.0000,-0.3575,-0.4008,0.0004,996,1502,1527,1502,2008,1000,1505,1000,1000,1006,1005,1000,1014,0.0599,0.0155,-0.0148,-0.0165,0.0143,1.0000,0.0437,0.7579,-0.0428,-0.7587,0.8627,0.2400,0.1321,0.8627,0.2400,0.1321,0.3000,0.0600,0.0002,0,-5.2582,-272.2996,-0.5252,-5.2582,-272.2996,-0.5252,40.7931,43.2997,0.0200,0.2700,0.0000,0.0000,0.0000,0.0000,0.0000,0.0000
34.5685,48.0466,15.9160,-0.0000,-0.0821,0.1200,1.6200,0.6400,0.0000,-0.3572,-0.4006,0.0003,996,1502,1527,1502,2008,1000,1505,1000,1000,1006,1005,1000,1014,0.0332,0.0278,0.0514,-0.0166,0.0153,1.0084,0.0436,0.7575,-0.0431,-0.7580,0.8627,0.2400,0.1321,0.8627,0.2400,0.1321,0.3000,0.0600,0.0002,0,-5.2582,-272.2996,-0.5252,-5.2582,-272.2996,-0.5252,40.7571,43.2787,0.0200,0.2700,0.0000,0.0000,0.0000,0.0000,0.0000,0.0000
34.5356,48.0226,15.8913,-0.0829,-0.1642,0.1200,1.6200,0.6400,0.0000,-0.3569,-0.4003,0.0005,996,1502,1527,1502,2008,1000,1505,1000,1000,1006,1005,1000,1015,0.0210,-0.0345,-0.0195,-0.0194,0.0110,1.0049,0.0438,0.7567,-0.0429,-0.7577,0.8627,0.2400,0.1321,0.8627,0.2400,0.1321,0.3000,0.0600,0.0002,0,-5.2734,-273.0836,-0.5267,-5.2734,-273.0836,-0.5267,40.7215,43.2574,0.0200,0.2700,0.0000,0.0000,0.0000,0.0000,0.0000,0.0000
34.5028,47.9983,15.8667,0.0829,-0.0821,0.1200,1.6200,0.6400,0.0000,-0.3567,-0.4001,0.0002,998,1504,1528,1504,2008,1000,1505,1000,1000,1006,1005,1000,1015,0.0634,-0.0232,0.0549,-0.0209,0.0129,1.0021,0.0436,0.7566,-0.0432,-0.7570,0.8627,0.2400,0.1321,0.8627,0.2400,0.1321,0.3000,0.0600,0.0002,0,-5.2734,-273.0836,-0.5267,-5.2734,-273.0836,-0.5267,40.6857,43.2366,0.0200,0.2700,0.0000,0.0000,0.0000,0.0000,0.0000,0.0000
34.4705,47.9738,15.8427,-0.0829,-0.0821,0.1200,1.6200,0.6400,0.0000,-0.3564,-0.3999,-0.0007,996,1502,1527,1502,2008,1000,1505,1000,1000,1006,1005,1000,1015,0.0110,0.0232,0.0529,-0.0224,0.0125,1.0025,0.0428,0.7570,-0.0443,-0.7556,0.8627,0.2400,0.1321,0.8627,0.2400,0.1321,0.3000,0.0600,0.0002,0,-5.2734,-273.0836,-0.5267,-5.2734,-273.0836,-0.5267,40.6497,43.2153,0.0200,0.2700,0.0000,0.0000,0.0000,0.0000,0.0000,0.0000
34.4379,47.9492,15.8186,0.0829,-0.0821,0.1200,1.6200,0.6400,0.0000,-0.3561,-0.3997,0.0004,996,1502,1527,1502,2008,1000,1505,1000,1000,1006,1005,1000,1015,0.0259,0.0070,0.0157,-0.0211,0.0124,1.0032,0.0440,0.7554,-0.0432,-0.7562,0.8627,0.2400,0.1321,0.8627,0.2400,0.1321,0.3000,0.0600,0.0002,0,-5.2734,-273.0836,-0.5267,-5.2734,-273.0836,-0.5267,40.6140,43.1934,0.0200,0.2700,0.0000,0.0000,0.0000,0.0000,0.0000,0.0000
34.4053,47.9247,15.7942,-0.0000,-0.0821,0.1200,1.6200,0.6400,0.0000,-0.3558,-0.3994,0.0005,996,1502,1527,1502,2008,1000,1505,1000,1000,1006,1005,1000,1015,0.0147,-0.0278,-0.0284,-0.0188,0.0151,1.0000,0.0442,0.7547,-0.0431,-0.7558,0.8627,0.2400,0.1321,0.8627,0.2400,0.1321,0.3000,0.0600,0.0002,0,-5.2734,-273.0836,-0.5267,-5.2734,-273.0836,-0.5267,40.5786,43.1726,0.0200,0.2700,0.0000,0.0000,0.0000,0.0000,0.0000,0.0000
34.3729,47.9002,15.7703,-0.0000,-0.0821,0.1200,1.6200,0.6400,0.0000,-0.3555,-0.3993,0.0003,996,1502,1527,1502,2008,1000,1505,1000,1000,1006,1005,1000,1015,0.0290,0.0223,0.0601,-0.0183,0.0127,0.9991,0.0440,0.7546,-0.0435,-0.7551,0.8627,0.2400,0.1321,0.8627,0.2400,0.1321,0.3000,0.0600,0.0002,0,-5.2734,-273.0836,-0.5267,-5.2734,-273.0836,-0.5267,40.5433,43.1519,0.0200,0.2700,0.0000,0.0000,0.0000,0.0000,0.0000,0.0000
34.3405,47.8758,15.7461,-0.0000,-0.0821,0.1200,1.6200,0.6400,0.0000,-0.3553,-0.3991,0.0003,996,1502,1527,1502,2008,1000,1505,1000,1000,1006,1005,1000,1015,0.0730,0.0144,0.0323,-0.0185,0.0144,1.0013,0.0441,0.7540,-0.0434,-0.7547,0.8627,0.2400,0.1321,0.8627,0.2400,0.1321,0.3000,0.0600,0.0002,0,-5.2734,-273.0836,-0.5267,-5.2734,-273.0836,-0.5267,40.5083,43.1314,0.0200,0.2700,0.0000,0.0000,0.0000,0.0000,0.0000,0.0000
34.3079,47.8515,15.7215,-0.0000,-0.0821,0.1200,1.6200,0.6400,0.0000,-0.3550,-0.3988,0.0004,998,1504,1528,1504,2008,1000,1505,1000,1000,1006,1005,1000,1015,0.0727,-0.0361,0.0153,-0.0204,0.0132,1.0052,0.0441,0.7535,-0.0434,-0.7542,0.8627,0.2400,0.1321,0.8627,0.2400,0.1321,0.3000,0.0600,0.0002,0,-5.2734,-273.0836,-0.5267,-5.2734,-273.0836,-0.5267,40.4728,43.1107,0.0200,0.2700,0.0000,0.0000,0.0000,0.0000,0.0000,0.0000
34.2753,47.8268,15.6961,-0.0000,-0.0821,0.1200,1.6200,0.6400,0.0000,-0.3548,-0.3986,-0.0002,996,1502,1527,1502,2008,1000,1505,1000,1000,1006,1005,1000,1015,0.0775,-0.0256,-0.0806,-0.0194,0.0131,0.9985,0.0436,0.7536,-0.0441,-0.7531,0.8627,0.2400,0.1321,0.8627,0.2400,0.1321,0.3000,0.0600,0.0002,0,-5.2734,-273.0836,-0.5267,-5.2734,-273.0836,-0.5267,40.4368,43.0902,0.0200,0.2700,0.0000,0.0000,0.0000,0.0000,0.0000,0.0000
34.2422,47.8028,15.6708,-0.0000,-0.0821,0.1200,1.6200,0.6400,0.0000,-0.3544,-0.3985,0.0007,996,1502,1527,1502,2008,1000,1505,1000,1000,1006,1005,1000,1015,-0.0061,0.0368,-0.0717,-0.0213,0.0117,1.0053,0.0448,0.7521,-0.0434,-0.7535,0.8627,0.2400,0.1321,0.8627,0.2400,0.1321,0.3000,0.0600,0.0002,0,-5.2734,-273.0836,-0.5267,-5.2734,-273.0836,-0.5267,40.4004,43.0698,0.0200,0.2700,0.0000,0.0000,0.0000,0.0000,0.0000,0.0000
34.2087,47.7795,15.6454,-0.0000,-0.0821,0.1200,1.6200,0.6400,0.0000,-0.3541,-0.3983,0.0008,996,1502,1527,1502,2008,1000,1505,1000,1000,1006,1005,1000,1015,0.0078,0.0549,-0.1168,-0.0200,0.0141,1.0024,0.0450,0.7516,-0.0434,-0.7532,0.8627,0.2400,0.1321,0.8627,0.2400,0.1321,0.3000,0.0600,0.0002,0,-5.2734,-273.0836,-0.5267,-5.2734,-273.0836,-0.5267,40.3643,43.0492,0.0200,0.2700,0.0000,0.0000,0.0000,0.0000,0.0000,0.0000
34.1747,47.7556,15.6197,-0.0000,-0.0821,0.1200,1.6200,0.6400,0.0000,-0.3538,-0.3980,0.0007,996,1502,1527,1502,2008,1000,1505,1000,1000,1006,1005,1000,1015,0.0074,-0.0087,-0.0906,-0.0196,0.0125,1.0035,0.0449,0.7511,-0.0435,-0.7525,0.8627,0.2400,0.1321,0.8627,0.2400,0.1321,0.3000,0.0600,0.0002,0,-5.2734,-273.0836,-0.5267,-5.2734,-273.0836,-0.5267,40.3280,43.0284,0.0200,0.2700,0.0000,0.0000,0.0000,0.0000,0.0000,0.0000
34.1408,47.7321,15.5941,-0.0000,-0.0821,0.1200,1.6200,0.6400,0.0000,-0.3535,-0.3978,0.0009,996,1502,1527,1502,2008,1000,1505,1000,1000,1006,1005,1000,1015,-0.0142,0.0117,-0.1368,-0.0222,0.0150,1.0003,0.0453,0.7504,-0.0434,-0.7522,0.8627,0.2400,0.1321,0.8627,0.2400,0.1321,0.3000,0.0600,0.0002,0,-5.2734,-273.0836,-0.5267,-5.2734,-273.0836,-0.5267,40.2912,43.0075,0.0200,0.2700,0.0000,0.0000,0.0000,0.0000,0.0000,0.0000
34.1069,47.7089,15.5681,-0.0000,-0.0821,0.1200,1.6200,0.6400,0.0000,-0.3532,-0.3977,0.0010,998,1504,1528,1502,2008,1000,1505,1000,1000,1006,1005,1000,1015,0.0305,0.0551,-0.1760,-0.0194,0.0126,1.0004,0.0454,0.7499,-0.0434,-0.7519,0.8627,0.2400,0.1321,0.8627,0.2400,0.1321,0.3000,0.0600,0.0002,0,-5.2734,-273.0836,-0.5267,-5.2734,-273.0836,-0.5267,40.2545,42.9865,0.0200,0.2700,0.0000,0.0000,0.0000,0.0000,0.0000,0.0000
34.0738,47.6855,15.5430,-0.0000,-0.0821,0.1200,1.6200,0.6400,0.0000,-0.3530,-0.3975,-0.0004,996,1502,1527,1502,2008,1000,1505,1000,1000,1006,1005,1000,1015,0.0893,0.0634,-0.0386,-0.0184,0.0139,1.0037,0.0441,0.7509,-0.0448,-0.7502,0.8627,0.2400,0.1321,0.8627,0.2400,0.1321,0.3000,0.0600,0.0002,0,-5.2734,-273.0836,-0.5267,-5.2734,-273.0836,-0.5267,40.2182,42.9662,0.0200,0.2700,0.0000,0.0000,0.0000,0.0000,0.0000,0.0000
34.0412,47.6616,15.5179,0.0829,-0.0000,0.1200,1.6200,0.6400,0.0000,-0.3527,-0.3972,0.0010,996,1502,1527,1502,2008,1000,1505,1000,1000,1006,1005,1000,1014,0.0644,0.0035,-0.1756,-0.0191,0.0146,1.0019,0.0455,0.7489,-0.0435,-0.7510,0.8627,0.2400,0.1321,0.8627,0.2400,0.1321,0.3000,0.0600,0.0002,0,-5.2582,-272.2996,-0.5252,-5.2582,-272.2996,-0.5252,40.1821,42.9453,0.0200,0.2700,0.0000,0.0000,0.0000,0.0000,0.0000,0.0000
34.0078,47.6374,15.4925,0.0829,-0.0821,0.1200,1.6200,0.6400,0.0000,-0.3525,-0.3969,0.0005,996,1502,1527,1502,2008,1000,1505,1000,1000,1006,1005,1000,1014,0.0787,-0.0781,-0.0132,-0.0206,0.0109,1.0019,0.0450,0.7488,-0.0439,-0.7499,0.8627,0.2400,0.1321,0.8627,0.2400,0.1321,0.3000,0.0600,0.0002,0,-5.2582,-272.2996,-0.5252,-5.2582,-272.2996,-0.5252,40.1459,42.9244,0.0200,0.2700,0.0000,0.0000,0.0000,0.0000,0.0000,0.0000
33.9748,47.6125,15.4676,-0.0829,-0.1642,0.1200,1.6200,0.6400,0.0000,-0.3522,-0.3967,0.0005,996,1502,1527,1502,2008,1000,1505,1000,1000,1006,1005,1000,1015,0.0647,-0.0207,-0.0007,-0.0199,0.0128,1.0029,0.0451,0.7484,-0.0441,-0.7494,0.8627,0.2400,0.1321,0.8627,0.2400,0.1321,0.3000,0.0600,0.0002,0,-5.2734,-273.0836,-0.5267,-5.2734,-273.0836,-0.5267,40.1104,42.9031,0.0200,0.2700,0.0000,0.0000,0.0000,0.0000,0.0000,0.0000
33.9422,47.5883,15.4428,-0.0000,-0.0821,0.1200,1.6200,0.6400,0.0000,-0.3518,-0.3966,0.0007,996,1502,1527,1502,2008,1000,1505,1000,1000,1006,1005,1000,1015,0.0015,0.0363,-0.0597,-0.0222,0.0115,0.9993,0.0455,0.7477,-0.0442,-0.7491,0.8627,0.2400,0.1321,0.8627,0.2400,0.1321,0.3000,0.0600,0.0002,0,-5.2734,-273.0836,-0.5267,-5.2734,-273.0836,-0.5267,40.0747,42.8821,0.0200,0.2700,0.0000,0.0000,0.0000,0.0000,0.0000,0.0000
33.9093,47.5643,15.4182,-0.1657,-0.1642,0.1200,1.6200,0.6400,0.0000,-0.3516,-0.3964,0.0007,998,1504,1528,1502,2008,1000,1505,1000,1000,1006,1005,1000,1015,0.0527,0.0246,-0.0418,-0.0206,0.0119,1.0022,0.0455,0.7473,-0.0441,-0.7486,0.8627,0.2400,0.1321,0.8627,0.2400,0.1321,0.3000,0.0600,0.0002,0,-5.2734,-273.0836,-0.5267,-5.2734,-273.0836,-0.5267,40.0391,42.8613,0.0200,0.2700,0.0000,0.0000,0.0000,0.0000,0.0000,0.0000
33.8762,47.5402,15.3937,-0.0000,-0.0821,0.1200,1.6200,0.6400,0.0000,-0.3512,-0.3963,0.0005,996,1502,1527,1502,2008,1000,1505,1000,1000,1006,1005,1000,1014,-0.0067,0.0994,-0.0029,-0.0198,0.0110,0.9993,0.0456,0.7470,-0.0446,-0.7480,0.8627,0.2400,0.1321,0.8627,0.2400,0.1321,0.3000,0.0600,0.0002,0,-5.2582,-272.2996,-0.5252,-5.2582,-272.2996,-0.5252,40.0031,42.8401,0.0200,0.2700,0.0000,0.0000,0.0000,0.0000,0.0000,0.0000
33.8436,47.5163,15.3698,-0.0829,-0.1642,0.1200,1.6200,0.6400,0.0000,-0.3509,-0.3960,0.0005,996,1502,1527,1502,2008,1000,1505,1000,1000,1006,1005,1000,1014,0.0053,0.0587,0.0178,-0.0200,0.0143,1.0036,0.0455,0.7465,-0.0446,-0.7474,0.8627,0.2400,0.1321,0.8627,0.2400,0.1321,0.3000,0.0600,0.0002,0,-5.2582,-272.2996,-0.5252,-5.2582,-272.2996,-0.5252,39.9679,42.8184,0.0200,0.2700,0.0000,0.0000,0.0000,0.0000,0.0000,0.0000
33.8115,47.4919,15.3463,-0.0000,-0.0821,0.1200,1.6200,0.6400,0.0000,-0.3507,-0.3958,0.0005,996,1502,1527,1502,2008,1000,1505,1000,1000,1006,1005,1000,1015,0.0600,0.0286,0.0196,-0.0205,0.0141,1.0016,0.0455,0.7460,-0.0446,-0.7470,0.8627,0.2400,0.1321,0.8627,0.2400,0.1321,0.3000,0.0600,0.0002,0,-5.2734,-273.0836,-0.5267,-5.2734,-273.0836,-0.5267,39.9333,42.7967,0.0200,0.2700,0.0000,0.0000,0.0000,0.0000,0.0000,0.0000
33.7797,47.4674,15.3224,-0.0000,-0.0821,0.1200,1.6200,0.6400,0.0000,-0.3505,-0.3955,0.0004,996,1502,1527,1502,2008,1000,1505,1000,1000,1006,1005,1000,1015,0.0964,0.0066,0.0378,-0.0202,0.0122,0.9980,0.0454,0.7456,-0.0446,-0.7465,0.8627,0.2400,0.1321,0.8627,0.2400,0.1321,0.3000,0.0600,0.0002,0,-5.2734,-273.0836,-0.5267,-5.2734,-273.0836,-0.5267,39.8986,42.7746,0.0200,0.2700,0.0000,0.0000,0.0000,0.0000,0.0000,0.0000
33.7476,47.4424,15.2984,-0.0000,-0.0000,0.1200,1.6200,0.6400,0.0000,-0.3502,-0.3953,0.0003,996,1502,1527,1502,2008,1000,1505,1000,1000,1006,1005,1000,1015,0.0448,-0.0081,0.0802,-0.0181,0.0137,1.0019,0.0454,0.7452,-0.0448,-0.7458,0.8627,0.2400,0.1321,0.8627,0.2400,0.1321,0.3000,0.0600,0.0002,0,-5.2734,-273.0836,-0.5267,-5.2734,-273.0836,-0.5267,39.8637,42.7525,0.0200,0.2700,0.0000,0.0000,0.0000,0.0000,0.0000,0.0000
33.7159,47.4173,15.2750,0.0829,-0.0821,0.1200,1.6200,0.6400,0.0000,-0.3499,-0.3951,0.0002,998,1504,1528,1504,2008,1000,1505,1000,1000,1006,1005,1000,1015,0.0439,-0.0142,0.0889,-0.0192,0.0148,0.9999,0.0454,0.7447,-0.0449,-0.7452,0.8627,0.2400,0.1321,0.8627,0.2400,0.1321,0.3000,0.0600,0.0002,0,-5.2734,-273.0836,-0.5267,-5.2734,-273.0836,-0.5267,39.8292,42.7303,0.0200,0.2700,0.0000,0.0000,0.0000,0.0000,0.0000,0.0000
33.6840,47.3921,15.2521,-0.0000,-0.0821,0.1200,1.6200,0.6400,0.0000,-0.3496,-0.3949,0.0001,996,1502,1527,1502,2008,1000,1505,1000,1000,1006,1005,1000,1015,0.0157,0.0001,0.1312,-0.0230,0.0134,1.0035,0.0454,0.7443,-0.0452,-0.7446,0.8627,0.2400,0.1321,0.8627,0.2400,0.1321,0.3000,0.0600,0.0002,0,-5.2734,-273.0836,-0.5267,-5.2734,-273.0836,-0.5267,39.7950,42.7082,0.0200,0.2700,0.0000,0.0000,0.0000,0.0000,0.0000,0.0000
33.6518,47.3666,15.2288,0.0829,-0.0821,0.1200,1.6200,0.6400,0.0000,-0.3493,-0.3946,0.0005,996,1502,1527,1502,2008,1000,1505,1000,1000,1006,1005,1000,1015,0.0008,-0.0329,0.0182,-0.0190,0.0134,1.0046,0.0458,0.7434,-0.0448,-0.7444,0.8627,0.2400,0.1321,0.8627,0.2400,0.1321,0.3000,0.0600,0.0002,0,-5.2734,-273.0836,-0.5267,-5.2734,-273.0836,-0.5267,39.7604,42.6863,0.0200,0.2700,0.0000,0.0000,0.0000,0.0000,0.0000,0.0000
33.6194,47.3414,15.2056,0.0829,-0.0000,0.1200,1.6200,0.6400,0.0000,-0.3490,-0.3944,0.0004,996,1502,1527,1502,2008,1000,1505,1000,1000,1006,1005,1000,1015,-0.0296,0.0014,0.0597,-0.0200,0.0100,1.0006,0.0458,0.7430,-0.0451,-0.7438,0.8627,0.2400,0.1321,0.8627,0.2400,0.1321,0.3000,0.0600,0.0002,0,-5.2734,-273.0836,-0.5267,-5.2734,-273.0836,-0.5267,39.7251,42.6644,0.0200,0.2700,0.0000,0.0000,0.0000,0.0000,0.0000,0.0000
33.5871,47.3167,15.1818,-0.0829,-0.0821,0.1200,1.6200,0.6400,0.0000,-0.3488,-0.3943,0.0005,996,1502,1527,1502,2008,1000,1505,1000,1000,1006,1005,1000,1015,0.0656,0.0344,0.0051,-0.0188,0.0112,1.0048,0.0460,0.7426,-0.0450,-0.7436,0.8627,0.2400,0.1321,0.8627,0.2400,0.1321,0.3000,0.0600,0.0002,0,-5.2734,-273.0836,-0.5267,-5.2734,-273.0836,-0.5267,39.6901,42.6422,0.0200,0.2700,0.0000,0.0000,0.0000,0.0000,0.0000,0.0000
33.5549,47.2918,15.1579,0.0829,-0.0821,0.1200,1.6200,0.6400,0.0000,-0.3485,-0.3940,0.0006,996,1502,1527,1502,2008,1000,1505,1000,1000,1006,1005,1000,1015,0.0298,-0.0233,0.0065,-0.0203,0.0122,0.9986,0.0461,0.7419,-0.0449,-0.7430,0.8627,0.2400,0.1321,0.8627,0.2400,0.1321,0.3000,0.0600,0.0002,0,-5.2734,-273.0836,-0.5267,-5.2734,-273.0836,-0.5267,39.6555,42.6205,0.0200,0.2700,0.0000,0.0000,0.0000,0.0000,0.0000,0.0000
33.5223,47.2670,15.1333,-0.0000,-0.0821,0.1200,1.6200,0.6400,0.0000,-0.3482,-0.3938,0.0007,998,1504,1528,1504,2008,1000,1505,1000,1000,1006,1005,1000,1015,0.0634,-0.0318,-0.0444,-0.0203,0.0135,0.9974,0.0462,0.7413,-0.0448,-0.7427,0.8627,0.2400,0.1321,0.8627,0.2400,0.1321,0.3000,0.0600,0.0002,0,-5.2734,-273.0836,-0.5267,-5.2734,-273.0836,-0.5267,39.6208,42.5986,0.0200,0.2700,0.0000,0.0000,0.0000,0.0000,0.0000,0.0000
33.4894,47.2423,15.1078,-0.0000,-0.0821,0.1200,1.6200,0.6400,0.0000,-0.3480,-0.3935,-0.0000,996,1502,1527,1502,2008,1000,1505,1000,1000,1006,1005,1000,1015,0.0792,-0.0339,-0.1264,-0.0191,0.0115,1.0037,0.0455,0.7415,-0.0456,-0.7415,0.8627,0.2400,0.1321,0.8627,0.2400,0.1321,0.3000,0.0600,0.0002,0,-5.2734,-273.0836,-0.5267,-5.2734,-273.0836,-0.5267,39.5854,42.5778,0.0200,0.2700,0.0000,0.0000,0.0000,0.0000,0.0000,0.0000
33.4561,47.2181,15.0824,0.0829,-0.0821,0.1200,1.6200,0.6400,0.0000,-0.3476,-0.3934,0.0008,996,1502,1527,1502,2008,1000,1505,1000,1000,1006,1005,1000,1015,0.0320,-0.0131,-0.0985,-0.0193,0.0117,0.9974,0.0466,0.7402,-0.0449,-0.7418,0.8627,0.2400,0.1321,0.8627,0.2400,0.1321,0.3000,0.0600,0.0002,0,-5.2734,-273.0836,-0.5267,-5.2734,-273.0836,-0.5267,39.5498,42.5570,0.0200,0.2700,0.0000,0.0000,0.0000,0.0000,0.0000,0.0000
33.4232,47.1942,15.0574,0.0829,-0.0000,0.1200,1.6200,0.6400,0.0000,-0.3473,-0.3931,0.0008,996,1502,1527,1502,2008,1000,1505,1000,1000,1006,1005,1000,1015,0.0322,-0.0252,-0.0733,-0.0181,0.0122,0.9974,0.0465,0.7397,-0.0450,-0.7412,0.8627,0.2400,0.1321,0.8627,0.2400,0.1321,0.3000,0.0600,0.0002,0,-5.2734,-273.0836,-0.5267,-5.2734,-273.0836,-0.5267,39.5147,42.5357,0.0200,0.2700,0.0000,0.0000,0.0000,0.0000,0.0000,0.0000
33.3900,47.1692,15.0323,-0.0000,-0.0821,0.1200,1.6200,0.6400,0.0000,-0.3470,-0.3929,0.0010,996,1502,1527,1502,2008,1000,1505,1000,1000,1006,1005,1000,1015,-0.0142,-0.0674,-0.1273,-0.0214,0.0142,1.0035,0.0468,0.7389,-0.0449,-0.7408,0.8627,0.2400,0.1321,0.8627,0.2400,0.1321,0.3000,0.0600,0.0002,0,-5.2734,-273.0836,-0.5267,-5.2734,-273.0836,-0.5267,39.4793,42.5147,0.0200,0.2700,0.0000,0.0000,0.0000,0.0000,0.0000,0.0000
33.3560,47.1445,15.0064,-0.0000,-0.1642,0.1200,1.6200,0.6400,0.0000,-0.3468,-0.3927,0.0008,996,1502,1527,1502,2008,1000,1505,1000,1000,1006,1005,1000,1015,0.0261,-0.0015,-0.0911,-0.0218,0.0147,1.0049,0.0468,0.7386,-0.0451,-0.7403,0.8627,0.2400,0.1321,0.8627,0.2400,0.1321,0.3000,0.0600,0.0002,0,-5.2734,-273.0836,-0.5267,-5.2734,-273.0836,-0.5267,39.4438,42.4930,0.0200,0.2700,0.0000,0.0000,0.0000,0.0000,0.0000,0.0000
33.3224,47.1205,14.9808,0.0829,-0.1642,0.1200,1.6200,0.6400,0.0000,-0.3465,-0.3926,0.0010,998,1504,1528,1502,2008,1000,1505,1000,1000,1006,1005,1000,1015,0.0244,0.0328,-0.1397,-0.0189,0.0130,1.0047,0.0471,0.7381,-0.0451,-0.7400,0.8627,0.2400,0.1321,0.8627,0.2400,0.1321,0.3000,0.0600,0.0002,0,-5.2734,-273.0836,-0.5267,-5.2734,-273.0836,-0.5267,39.4076,42.4710,0.0200,0.2700,0.0000,0.0000,0.0000,0.0000,0.0000,0.0000
33.2894,47.0960,14.9557,-0.0829,-0.2462,0.1200,1.6200,0.6400,0.0000,-0.3462,-0.3923,0.0007,996,1502,1527,1502,2008,1000,1505,1000,1000,1006,1005,1000,1015,0.0164,0.0162,-0.0494,-0.0214,0.0138,1.0022,0.0469,0.7378,-0.0455,-0.7392,0.8627,0.2400,0.1321,0.8627,0.2400,0.1321,0.3000,0.0600,0.0002,0,-5.2734,-273.0836,-0.5267,-5.2734,-273.0836,-0.5267,39.3717,42.4493,0.0200,0.2700,0.0000,0.0000,0.0000,0.0000,0.0000,0.0000
33.2574,47.0716,14.9323,-0.0000,-0.0821,0.1200,1.6200,0.6400,0.0000,-0.3459,-0.3922,0.0005,996,1502,1527,1502,2008,1000,1505,1000,1000,1006,1005,1000,1015,-0.0149,0.0654,0.0368,-0.0164,0.0154,1.0044,0.0468,0.7376,-0.0459,-0.7385,0.8627,0.2400,0.1321,0.8627,0.2400,0.1321,0.3000,0.0600,0.0002,0,-5.2734,-273.0836,-0.5267,-5.2734,-273.0836,-0.5267,39.3356,42.4278,0.0200,0.2700,0.0000,0.0000,0.0000,0.0000,0.0000,0.0000
33.2259,47.0472,14.9090,-0.1657,-0.1642,0.1200,1.6200,0.6400,0.0000,-0.3457,-0.3920,0.0007,996,1502,1527,1502,2008,1000,1505,1000,1000,1006,1005,1000,1015,0.0958,0.0587,-0.0347,-0.0181,0.0136,1.0013,0.0469,0.7370,-0.0456,-0.7384,0.8627,0.2400,0.1321,0.8627,0.2400,0.1321,0.3000,0.0600,0.0002,0,-5.2734,-273.0836,-0.5267,-5.2734,-273.0836,-0.5267,39.2992,42.4062,0.0200,0.2700,0.0000,0.0000,0.0000,0.0000,0.0000,0.0000
33.1943,47.0224,14.8854,-0.0000,-0.0821,0.1200,1.6200,0.6400,0.0000,-0.3454,-0.3915,0.0008,996,1502,1527,1502,2008,1000,1505,1000,1000,1006,1005,1000,1015,0.0336,-0.1065,-0.0338,-0.0198,0.0177,0.9986,0.0469,0.7362,-0.0454,-0.7377,0.8627,0.2400,0.1321,0.8627,0.2400,0.1321,0.3000,0.0600,0.0002,0,-5.2734,-273.0836,-0.5267,-5.2734,-273.0836,-0.5267,39.2632,42.3849,0.0200,0.2700,0.0000,0.0000,0.0000,0.0000,0.0000,0.0000
33.1618,46.9971,14.8609,-0.0000,-0.1642,0.1200,1.6200,0.6400,0.0000,-0.3451,-0.3915,0.0006,996,1502,1527,1502,2008,1000,1505,1000,1000,1006,1005,1000,1015,0.0286,-0.0021,0.0164,-0.0204,0.0141,1.0015,0.0469,0.7360,-0.0458,-0.7371,0.8627,0.2400,0.1321,0.8627,0.2400,0.1321,0.3000,0.0600,0.0002,0,-5.2734,-273.0836,-0.5267,-5.2734,-273.0836,-0.5267,39.2286,42.3632,0.0200,0.2700,0.0000,0.0000,0.0000,0.0000,0.0000,0.0000
33.1294,46.9719,14.8367,0.0829,-0.0000,0.1200,1.6200,0.6400,0.0000,-0.3448,-0.3912,0.0006,998,1504,1528,1504,2008,1000,1505,1000,1000,1006,1005,1000,1015,0.0080,-0.0660,-0.0154,-0.0191,0.0130,1.0036,0.0470,0.7353,-0.0458,-0.7366,0.8627,0.2400,0.1321,0.8627,0.2400,0.1321,0.3000,0.0600,0.0002,0,-5.2734,-273.0836,-0.5267,-5.2734,-273.0836,-0.5267,39.1932,42.3415,0.0200,0.2700,0.0000,0.0000,0.0000,0.0000,0.0000,0.0000
33.0973,46.9467,14.8129,-0.0829,-0.0821,0.1200,1.6200,0.6400,0.0000,-0.3445,-0.3911,-0.0004,996,1502,1527,1502,2008,1000,1505,1000,1000,1006,1005,1000,1015,-0.0077,0.0294,0.0275,-0.0208,0.0124,1.0042,0.0462,0.7360,-0.0470,-0.7351,0.8627,0.2400,0.1321,0.8627,0.2400,0.1321,0.3000,0.0600,0.0002,0,-5.2734,-273.0836,-0.5267,-5.2734,-273.0836,-0.5267,39.1577,42.3195,0.0200,0.2700,0.0000,0.0000,0.0000,0.0000,0.0000,0.0000
33.0655,46.9218,14.7899,0.0829,-0.0821,0.1200,1.6200,0.6400,0.0000,-0.3442,-0.3909,0.0006,996,1502,1527,1502,2008,1000,1505,1000,1000,1006,1005,1000,1015,0.0012,0.0618,0.0196,-0.0214,0.0120,1.0027,0.0473,0.7345,-0.0461,-0.7357,0.8627,0.2400,0.1321,0.8627,0.2400,0.1321,0.3000,0.0600,0.0002,0,-5.2734,-273.0836,-0.5267,-5.2734,-273.0836,-0.5267,39.1228,42.2971,0.0200,0.2700,0.0000,0.0000,0.0000,0.0000,0.0000,0.0000
33.0343,46.8973,14.7669,-0.0000,-0.0821,0.1200,1.6200,0.6400,0.0000,-0.3440,-0.3907,0.0006,996,1502,1527,1502,2008,1000,1505,1000,1000,1006,1005,1000,1015,0.0429,0.0456,-0.0162,-0.0173,0.0151,1.0036,0.0473,0.7340,-0.0460,-0.7353,0.8627,0.2400,0.1321,0.8627,0.2400,0.1321,0.3000,0.0600,0.0002,0,-5.2734,-273.0836,-0.5267,-5.2734,-273.0836,-0.5267,39.0884,42.2745,0.0200,0.2700,0.0000,0.0000,0.0000,0.0000,0.0000,0.0000
33.0028,46.8722,14.7442,-0.0000,-0.0821,0.1200,1.6200,0.6400,0.0000,-0.3437,-0.3904,0.0004,996,1502,1527,1502,2008,1000,1505,1000,1000,1006,1005,1000,1015,0.0249,0.0138,0.0683,-0.0181,0.0150,1.0010,0.0471,0.7337,-0.0463,-0.7345,0.8627,0.2400,0.1321,0.8627,0.2400,0.1321,0.3000,0.0600,0.0002,0,-5.2734,-273.0836,-0.5267,-5.2734,-273.0836,-0.5267,39.0544,42.2522,0.0200,0.2700,0.0000,0.0000,0.0000,0.0000,0.0000,0.0000
32.9712,46.8466,14.7210,0.0829,-0.0821,0.1200,1.6200,0.6400,0.0000,-0.3435,-0.3901,0.0006,996,1502,1527,1502,2008,1000,1505,1000,1000,1006,1005,1000,1015,0.0671,-0.0568,0.0071,-0.0212,0.0127,1.0041,0.0472,0.7330,-0.0460,-0.7342,0.8627,0.2400,0.1321,0.8627,0.2400,0.1321,0.3000,0.0600,0.0002,0,-5.2734,-273.0836,-0.5267,-5.2734,-273.0836,-0.5267,39.0202,42.2295,0.0200,0.2700,0.0000,0.0000,0.0000,0.0000,0.0000,0.0000
32.9394,46.8214,14.6973,0.0829,-0.0821,0.1200,1.6200,0.6400,0.0000,-0.3432,-0.3900,0.0007,998,1504,1528,1504,2008,1000,1505,1000,1000,1006,1005,1000,1015,0.0505,0.0445,-0.0223,-0.0195,0.0157,1.0000,0.0475,0.7325,-0.0461,-0.7339,0.8627,0.2400,0.1321,0.8627,0.2400,0.1321,0.3000,0.0600,0.0002,0,-5.2734,-273.0836,-0.5267,-5.2734,-273.0836,-0.5267,38.9853,42.2070,0.0200,0.2700,0.0000,0.0000,0.0000,0.0000,0.0000,0.0000
32.9082,46.7962,14.6742,0.0829,-0.0821,0.1200,1.6200,0.6400,0.0000,-0.3429,-0.3897,0.0006,996,1502,1527,1502,2008,1000,1505,1000,1000,1006,1005,1000,1015,0.0537,-0.0076,0.0177,-0.0177,0.0151,0.9996,0.0474,0.7321,-0.0462,-0.7332,0.8627,0.2400,0.1321,0.8627,0.2400,0.1321,0.3000,0.0600,0.0002,0,-5.2734,-273.0836,-0.5267,-5.2734,-273.0836,-0.5267,38.9505,42.1851,0.0200,0.2700,0.0000,0.0000,0.0000,0.0000,0.0000,0.0000
32.8761,46.7713,14.6504,-0.0000,-0.0821,0.1200,1.6200,0.6400,0.0000,-0.3425,-0.3896,0.0009,996,1502,1527,1502,2008,1000,1505,1000,1000,1006,1005,1000,1015,-0.0387,0.0582,-0.0701,-0.0169,0.0157,0.9995,0.0479,0.7313,-0.0462,-0.7330,0.8627,0.2400,0.1321,0.8627,0.2400,0.1321,0.3000,0.0600,0.0002,0,-5.2734,-273.0836,-0.5267,-5.2734,-273.0836,-0.5267,38.9155,42.1630,0.0200,0.2700,0.0000,0.0000,0.0000,0.0000,0.0000,0.0000
32.8435,46.7467,14.6263,-0.0000,-0.0821,0.1200,1.6200,0.6400,0.0000,-0.3424,-0.3894,0.0009,996,1502,1527,1502,2008,1000,1505,1000,1000,1006,1005,1000,1015,0.0513,0.0525,-0.0677,-0.0197,0.0132,1.0006,0.0479,0.7309,-0.0461,-0.7326,0.8627,0.2400,0.1321,0.8627,0.2400,0.1321,0.3000,0.0600,0.0002,0,-5.2734,-273.0836,-0.5267,-5.2734,-273.0836,-0.5267,38.8805,42.1411,0.0200,0.2700,0.0000,0.0000,0.0000,0.0000,0.0000,0.0000
32.8108,46.7224,14.6018,-0.0829,-0.0821,0.1200,1.6200,0.6400,0.0000,-0.3421,-0.3892,0.0009,996,1502,1527,1502,2008,1000,1505,1000,1000,1006,1005,1000,1015,0.0259,0.0841,-0.0970,-0.0194,0.0116,0.9980,0.0481,0.7303,-0.0462,-0.7322,0.8627,0.2400,0.1321,0.8627,0.2400,0.1321,0.3000,0.0600,0.0002,0,-5.2734,-273.0836,-0.5267,-5.2734,-273.0836,-0.5267,38.8456,42.1195,0.0200,0.2700,0.0000,0.0000,0.0000,0.0000,0.0000,0.0000
32.7775,46.6979,14.5771,-0.0000,-0.0000,0.1200,1.6200,0.6400,0.0000,-0.3417,-0.3889,0.0010,996,1502,1527,1502,2008,1000,1505,1000,1000,1006,1005,1000,1015,-0.0108,-0.0274,-0.1376,-0.0218,0.0143,1.0029,0.0482,0.7295,-0.0461,-0.7316,0.8627,0.2400,0.1321,0.8627,0.2400,0.1321,0.3000,0.0600,0.0002,0,-5.2734,-273.0836,-0.5267,-5.2734,-273.0836,-0.5267,38.8107,42.0979,0.0200,0.2700,0.0000,0.0000,0.0000,0.0000,0.0000,0.0000
32.7448,46.6739,14.5526,-0.0000,-0.1642,0.1200,1.6200,0.6400,0.0000,-0.3415,-0.3888,0.0011,998,1504,1528,1504,2008,1000,1505,1000,1000,1006,1005,1000,1015,0.0531,0.0952,-0.1248,-0.0186,0.0131,0.9986,0.0483,0.7293,-0.0462,-0.7314,0.8627,0.2400,0.1321,0.8627,0.2400,0.1321,0.3000,0.0600,0.0002,0,-5.2734,-273.0836,-0.5267,-5.2734,-273.0836,-0.5267,38.7752,42.0762,0.0200,0.2700,0.0000,0.0000,0.0000,0.0000,0.0000,0.0000
32.7122,46.6492,14.5284,-0.0000,-0.0821,0.1200,1.6200,0.6400,0.0000,-0.3412,-0.3883,-0.0003,996,1502,1527,1502,2008,1000,1505,1000,1000,1006,1005,1000,1014,0.0196,-0.1061,-0.0022,-0.0195,0.0128,1.0050,0.0468,0.7298,-0.0474,-0.7292,0.8627,0.2400,0.1321,0.8627,0.2400,0.1321,0.3000,0.0600,0.0002,0,-5.2582,-272.2996,-0.5252,-5.2582,-272.2996,-0.5252,38.7396,42.0544,0.0200,0.2700,0.0000,0.0000,0.0000,0.0000,0.0000,0.0000
32.6802,46.6236,14.5045,-0.0829,-0.1642,0.1200,1.6200,0.6400,0.0000,-0.3409,-0.3882,0.0005,996,1502,1527,1502,2008,1000,1505,1000,1000,1006,1005,1000,1014,0.0360,-0.0349,0.0450,-0.0201,0.0154,1.0016,0.0478,0.7286,-0.0467,-0.7297,0.8627,0.2400,0.1321,0.8627,0.2400,0.1321,0.3000,0.0600,0.0002,0,-5.2582,-272.2996,-0.5252,-5.2582,-272.2996,-0.5252,38.7038,42.0325,0.0200,0.2700,0.0000,0.0000,0.0000,0.0000,0.0000,0.0000
32.6483,46.5979,14.4810,0.0829,-0.0821,0.1200,1.6200,0.6400,0.0000,-0.3407,-0.3880,0.0009,996,1502,1527,1502,2008,1000,1505,1000,1000,1006,1005,1000,1015,0.0300,-0.0344,-0.0483,-0.0211,0.0114,1.0080,0.0482,0.7278,-0.0465,-0.7295,0.8627,0.2400,0.1321,0.8627,0.2400,0.1321,0.3000,0.0600,0.0002,0,-5.2734,-273.0836,-0.5267,-5.2734,-273.0836,-0.5267,38.6682,42.0103,0.0200,0.2700,0.0000,0.0000,0.0000,0.0000,0.0000,0.0000
32.6161,46.5731,14.4572,-0.0829,-0.1642,0.1200,1.6200,0.6400,0.0000,-0.3404,-0.3879,0.0006,996,1502,1527,1502,2008,1000,1505,1000,1000,1006,1005,1000,1015,0.0121,0.0464,0.0173,-0.0199,0.0158,1.0005,0.0482,0.7276,-0.0469,-0.7289,0.8627,0.2400,0.1321,0.8627,0.2400,0.1321,0.3000,0.0600,0.0002,0,-5.2734,-273.0836,-0.5267,-5.2734,-273.0836,-0.5267,38.6328,41.9884,0.0200,0.2700,0.0000,0.0000,0.0000,0.0000,0.0000,0.0000
32.5838,46.5477,14.4339,0.0829,-0.0821,0.1200,1.6200,0.6400,0.0000,-0.3401,-0.3876,0.0007,996,1502,1527,1502,2008,1000,1505,1000,1000,1006,1005,1000,1014,0.0028,-0.0002,0.0001,-0.0193,0.0138,1.0007,0.0482,0.7270,-0.0468,-0.7283,0.8627,0.2400,0.1321,0.8627,0.2400,0.1321,0.3000,0.0600,0.0002,0,-5.2582,-272.2996,-0.5252,-5.2582,-272.2996,-0.5252,38.5976,41.9664,0.0200,0.2700,0.0000,0.0000,0.0000,0.0000,0.0000,0.0000
32.5517,46.5224,14.4100,-0.1657,-0.1642,0.1200,1.6200,0.6400,0.0000,-0.3399,-0.3873,0.0007,998,1504,1528,1504,2008,1000,1505,1000,1000,1006,1005,1000,1015,0.0691,-0.0236,-0.0015,-0.0175,0.0131,1.0023,0.0482,0.7265,-0.0467,-0.7279,0.8627,0.2400,0.1321,0.8627,0.2400,0.1321,0.3000,0.0600,0.0002,0,-5.2582,-272.2996,-0.5252,-5.2582,-272.2996,-0.5252,38.5632,41.9438,0.0200,0.2700,0.0000,0.0000,0.0000,0.0000,0.0000,0.0000
32.5194,46.4971,14.3862,0.0829,-0.0821,0.1200,1.6200,0.6400,0.0000,-0.3395,-0.3871,0.0007,996,1502,1527,1502,2008,1000,1505,1000,1000,1006,1005,1000,1015,-0.0047,-0.0233,0.0136,-0.0184,0.0124,1.0034,0.0483,0.7260,-0.0470,-0.7273,0.8627,0.2400,0.1321,0.8627,0.2400,0.1321,0.3000,0.0600,0.0002,0,-5.2734,-273.0836,-0.5267,-5.2734,-273.0836,-0.5267,38.5292,41.9212,0.0200,0.2700,0.0000,0.0000,0.0000,0.0000,0.0000,0.0000
32.4873,46.4717,14.3629,-0.0829,-0.0821,0.1200,1.6200,0.6400,0.0000,-0.3393,-0.3869,0.0005,996,1502,1527,1502,2008,1000,1505,1000,1000,1006,1005,1000,1015,0.0494,0.0069,0.0406,-0.0173,0.0152,1.0018,0.0482,0.7257,-0.0471,-0.7268,0.8627,0.2400,0.1321,0.8627,0.2400,0.1321,0.3000,0.0600,0.0002,0,-5.2734,-273.0836,-0.5267,-5.2734,-273.0836,-0.5267,38.4956,41.8991,0.0200,0.2700,0.0000,0.0000,0.0000,0.0000,0.0000,0.0000
32.4557,46.4468,14.3401,0.0829,-0.0000,0.1200,1.6200,0.6400,0.0000,-0.3390,-0.3868,0.0006,996,1502,1527,1502,2008,1000,1505,1000,1000,1006,1005,1000,1015,0.0425,0.0585,0.0272,-0.0186,0.0109,1.0002,0.0484,0.7252,-0.0471,-0.7265,0.8627,0.2400,0.1321,0.8627,0.2400,0.1321,0.3000,0.0600,0.0002,0,-5.2734,-273.0836,-0.5267,-5.2734,-273.0836,-0.5267,38.4607,41.8765,0.0200,0.2700,0.0000,0.0000,0.0000,0.0000,0.0000,0.0000
32.4247,46.4216,14.3176,-0.0000,-0.0821,0.1200,1.6200,0.6400,0.0000,-0.3388,-0.3865,0.0005,996,1502,1527,1502,2008,1000,1505,1000,1000,1006,1005,1000,1015,0.0592,0.0023,0.0620,-0.0186,0.0124,1.0041,0.0483,0.7248,-0.0472,-0.7258,0.8627,0.2400,0.1321,0.8627,0.2400,0.1321,0.3000,0.0600,0.0002,0,-5.2734,-273.0836,-0.5267,-5.2734,-273.0836,-0.5267,38.4261,41.8541,0.0200,0.2700,0.0000,0.0000,0.0000,0.0000,0.0000,0.0000
32.3934,46.3955,14.2950,-0.0000,-0.0821,0.1200,1.6200,0.6400,0.0000,-0.3384,-0.3862,0.0006,996,1502,1527,1502,2008,1000,1505,1000,1000,1006,1005,1000,1015,0.0185,-0.0560,0.0630,-0.0183,0.0116,1.0036,0.0483,0.7241,-0.0472,-0.7252,0.8627,0.2400,0.1321,0.8627,0.2400,0.1321,0.3000,0.0600,0.0002,0,-5.2734,-273.0836,-0.5267,-5.2734,-273.0836,-0.5267,38.3915,41.8318,0.0200,0.2700,0.0000,0.0000,0.0000,0.0000,0.0000,0.0000
32.3621,46.3695,14.2727,-0.0000,-0.0821,0.1200,1.6200,0.6400,0.0000,-0.3382,-0.3861,0.0005,998,1504,1528,1502,2008,1000,1505,1000,1000,1006,1005,1000,1015,0.0162,0.0226,0.0625,-0.0238,0.0132,1.0004,0.0484,0.7237,-0.0474,-0.7248,0.8627,0.2400,0.1321,0.8627,0.2400,0.1321,0.3000,0.0600,0.0002,0,-5.2734,-273.0836,-0.5267,-5.2734,-273.0836,-0.5267,38.3571,41.8089,0.0200,0.2700,0.0000,0.0000,0.0000,0.0000,0.0000,0.0000
32.3306,46.3438,14.2502,0.0829,-0.0821,0.1200,1.6200,0.6400,0.0000,-0.3379,-0.3858,0.0008,996,1502,1527,1502,2008,1000,1505,1000,1000,1006,1005,1000,1015,-0.0001,0.0024,-0.0101,-0.0193,0.0129,0.9980,0.0487,0.7229,-0.0472,-0.7245,0.8627,0.2400,0.1321,0.8627,0.2400,0.1321,0.3000,0.0600,0.0002,0,-5.2734,-273.0836,-0.5267,-5.2734,-273.0836,-0.5267,38.3224,41.7864,0.0200,0.2700,0.0000,0.0000,0.0000,0.0000,0.0000,0.0000
32.2993,46.3189,14.2277,0.0829,-0.0000,0.1200,1.6200,0.6400,0.0000,-0.3377,-0.3857,0.0006,996,1502,1527,1502,2008,1000,1505,1000,1000,1006,1005,1000,1015,0.0481,0.0499,0.0315,-0.0228,0.0153,0.9989,0.0486,0.7227,-0.0474,-0.7240,0.8627,0.2400,0.1321,0.8627,0.2400,0.1321,0.3000,0.0600,0.0002,0,-5.2734,-273.0836,-0.5267,-5.2734,-273.0836,-0.5267,38.2877,41.7638,0.0200,0.2700,0.0000,0.0000,0.0000,0.0000,0.0000,0.0000
32.2678,46.2939,14.2049,-0.0000,-0.0000,0.1200,1.6200,0.6400,0.0000,-0.3374,-0.3855,0.0008,996,1502,1527,1502,2008,1000,1505,1000,1000,1006,1005,1000,1015,0.0488,0.0491,-0.0235,-0.0239,0.0138,0.9962,0.0489,0.7221,-0.0473,-0.7237,0.8627,0.2400,0.1321,0.8627,0.2400,0.1321,0.3000,0.0600,0.0002,0,-5.2734,-273.0836,-0.5267,-5.2734,-273.0836,-0.5267,38.2530,41.7415,0.0200,0.2700,0.0000,0.0000,0.0000,0.0000,0.0000,0.0000
32.2364,46.2690,14.1818,0.0829,-0.0821,0.1200,1.6200,0.6400,0.0000,-0.3372,-0.3852,0.0007,996,1502,1527,1502,2008,1000,1505,1000,1000,1006,1005,1000,1015,0.0841,-0.0071,-0.0007,-0.0219,0.0122,1.0011,0.0487,0.7216,-0.0473,-0.7231,0.8627,0.2400,0.1321,0.8627,0.2400,0.1321,0.3000,0.0600,0.0002,0,-5.2734,-273.0836,-0.5267,-5.2734,-273.0836,-0.5267,38.2184,41.7193,0.0200,0.2700,0.0000,0.0000,0.0000,0.0000,0.0000,0.0000
32.2044,46.2435,14.1579,-0.0000,-0.0821,0.1200,1.6200,0.6400,0.0000,-0.3369,-0.3848,0.0007,996,1502,1527,1502,2008,1000,1505,1000,1000,1006,1005,1000,1015,0.0786,-0.0910,-0.0029,-0.0197,0.0119,1.0040,0.0487,0.7210,-0.0472,-0.7225,0.8627,0.2400,0.1321,0.8627,0.2400,0.1321,0.3000,0.0600,0.0002,0,-5.2734,-273.0836,-0.5267,-5.2734,-273.0836,-0.5267,38.1834,41.6972,0.0200,0.2700,0.0000,0.0000,0.0000,0.0000,0.0000,0.0000
32.1726,46.2178,14.1343,0.0829,-0.0821,0.1200,1.6200,0.6400,0.0000,-0.3365,-0.3847,0.0008,998,1504,1528,1502,2008,1000,1505,1000,1000,1006,1005,1000,1015,0.0204,-0.0342,-0.0120,-0.0163,0.0139,1.0043,0.0489,0.7205,-0.0474,-0.7220,0.8627,0.2400,0.1321,0.8627,0.2400,0.1321,0.3000,0.0600,0.0002,0,-5.2734,-273.0836,-0.5267,-5.2734,-273.0836,-0.5267,38.1483,41.6747,0.0200,0.2700,0.0000,0.0000,0.0000,0.0000,0.0000,0.0000
32.1408,46.1922,14.1109,0.0829,-0.0821,0.1200,1.6200,0.6400,0.0000,-0.3362,-0.3845,0.0010,996,1502,1527,1502,2008,1000,1505,1000,1000,1006,1005,1000,1015,-0.0001,0.0084,-0.0716,-0.0218,0.0127,1.0068,0.0493,0.7198,-0.0473,-0.7218,0.8627,0.2400,0.1321,0.8627,0.2400,0.1321,0.3000,0.0600,0.0002,0,-5.2734,-273.0836,-0.5267,-5.2734,-273.0836,-0.5267,38.1135,41.6529,0.0200,0.2700,0.0000,0.0000,0.0000,0.0000,0.0000,0.0000
32.1081,46.1669,14.0866,-0.0000,-0.0821,0.1200,1.6200,0.6400,0.0000,-0.3360,-0.3843,0.0010,996,1502,1527,1502,2008,1000,1505,1000,1000,1006,1005,1000,1015,0.0032,-0.0367,-0.0913,-0.0212,0.0108,0.9989,0.0493,0.7192,-0.0473,-0.7212,0.8627,0.2400,0.1321,0.8627,0.2400,0.1321,0.3000,0.0600,0.0002,0,-5.2734,-273.0836,-0.5267,-5.2734,-273.0836,-0.5267,38.0784,41.6305,0.0200,0.2700,0.0000,0.0000,0.0000,0.0000,0.0000,0.0000
32.0758,46.1411,14.0627,-0.0829,-0.0821,0.1200,1.6200,0.6400,0.0000,-0.3357,-0.3841,0.0009,996,1502,1527,1502,2008,1000,1505,1000,1000,1006,1005,1000,1015,0.0491,-0.0046,-0.0456,-0.0196,0.0158,0.9984,0.0493,0.7189,-0.0474,-0.7207,0.8627,0.2400,0.1321,0.8627,0.2400,0.1321,0.3000,0.0600,0.0002,0,-5.2734,-273.0836,-0.5267,-5.2734,-273.0836,-0.5267,38.0429,41.6085,0.0200,0.2700,0.0000,0.0000,0.0000,0.0000,0.0000,0.0000
32.0446,46.1154,14.0402,-0.0000,-0.0821,0.1200,1.6200,0.6400,0.0000,-0.3355,-0.3839,0.0007,996,1502,1527,1502,2008,1000,1505,1000,1000,1006,1005,1000,1015,0.0304,0.0117,0.0517,-0.0234,0.0138,1.0032,0.0491,0.7187,-0.0478,-0.7200,0.8627,0.2400,0.1321,0.8627,0.2400,0.1321,0.3000,0.0600,0.0002,0,-5.2734,-273.0836,-0.5267,-5.2734,-273.0836,-0.5267,38.0089,41.5864,0.0200,0.2700,0.0000,0.0000,0.0000,0.0000,0.0000,0.0000
32.0128,46.0903,14.0169,-0.1657,-0.2462,0.1200,1.6200,0.6400,0.0000,-0.3351,-0.3837,0.0008,996,1502,1527,1502,2008,1000,1505,1000,1000,1006,1005,1000,1015,-0.0105,0.0088,-0.0174,-0.0195,0.0164,1.0009,0.0493,0.7180,-0.0478,-0.7196,0.8627,0.2400,0.1321,0.8627,0.2400,0.1321,0.3000,0.0600,0.0002,0,-5.2734,-273.0836,-0.5267,-5.2734,-273.0836,-0.5267,37.9747,41.5645,0.0200,0.2700,0.0000,0.0000,0.0000,0.0000,0.0000,0.0000
31.9815,46.0648,13.9946,-0.0000,-0.0821,0.1200,1.6200,0.6400,0.0000,-0.3349,-0.3835,0.0008,998,1504,1528,1504,2008,1000,1505,1000,1000,1006,1005,1000,1015,0.0331,0.0673,0.0016,-0.0226,0.0148,1.0020,0.0494,0.7177,-0.0478,-0.7192,0.8627,0.2400,0.1321,0.8627,0.2400,0.1321,0.3000,0.0600,0.0002,0,-5.2734,-273.0836,-0.5267,-5.2734,-273.0836,-0.5267,37.9405,41.5420,0.0200,0.2700,0.0000,0.0000,0.0000,0.0000,0.0000,0.0000
31.9507,46.0399,13.9723,-0.1657,-0.1642,0.1200,1.6200,0.6400,0.0000,-0.3347,-0.3833,-0.0002,996,1502,1527,1502,2008,1000,1505,1000,1000,1006,1005,1000,1015,0.0524,0.0775,0.0090,-0.0194,0.0154,1.0045,0.0484,0.7182,-0.0488,-0.7178,0.8627,0.2400,0.1321,0.8627,0.2400,0.1321,0.3000,0.0600,0.0002,0,-5.2734,-273.0836,-0.5267,-5.2734,-273.0836,-0.5267,37.9062,41.5195,0.0200,0.2700,0.0000,0.0000,0.0000,0.0000,0.0000,0.0000
31.9194,46.0146,13.9498,0.0829,-0.0821,0.1200,1.6200,0.6400,0.0000,-0.3343,-0.3830,0.0007,996,1502,1527,1502,2008,1000,1505,1000,1000,1006,1005,1000,1015,-0.0254,0.0255,0.0229,-0.0192,0.0122,0.9995,0.0494,0.7166,-0.0480,-0.7180,0.8627,0.2400,0.1321,0.8627,0.2400,0.1321,0.3000,0.0600,0.0002,0,-5.2734,-273.0836,-0.5267,-5.2734,-273.0836,-0.5267,37.8713,41.4969,0.0200,0.2700,0.0000,0.0000,0.0000,0.0000,0.0000,0.0000
31.8875,45.9888,13.9269,-0.0829,-0.1642,0.1200,1.6200,0.6400,0.0000,-0.3340,-0.3827,0.0007,996,1502,1527,1502,2008,1000,1505,1000,1000,1006,1005,1000,1015,-0.0065,-0.0361,0.0285,-0.0191,0.0120,0.9992,0.0494,0.7161,-0.0480,-0.7175,0.8627,0.2400,0.1321,0.8627,0.2400,0.1321,0.3000,0.0600,0.0002,0,-5.2734,-273.0836,-0.5267,-5.2734,-273.0836,-0.5267,37.8367,41.4738,0.0200,0.2700,0.0000,0.0000,0.0000,0.0000,0.0000,0.0000
31.8564,45.9630,13.9048,-0.0000,-0.0821,0.1200,1.6200,0.6400,0.0000,-0.3338,-0.3825,0.0004,996,1502,1527,1502,2008,1000,1505,1000,1000,1006,1005,1000,1015,0.0198,-0.0121,0.1188,-0.0190,0.0142,1.0012,0.0491,0.7160,-0.0483,-0.7167,0.8627,0.2400,0.1321,0.8627,0.2400,0.1321,0.3000,0.0600,0.0002,0,-5.2734,-273.0836,-0.5267,-5.2734,-273.0836,-0.5267,37.8027,41.4509,0.0200,0.2700,0.0000,0.0000,0.0000,0.0000,0.0000,0.0000
31.8257,45.9367,13.8832,-0.0000,-0.0821,0.1200,1.6200,0.6400,0.0000,-0.3335,-0.3823,0.0006,996,1502,1527,1502,2008,1000,1505,1000,1000,1006,1005,1000,1015,-0.0216,0.0112,0.0731,-0.0199,0.0137,1.0024,0.0495,0.7152,-0.0482,-0.7164,0.8627,0.2400,0.1321,0.8627,0.2400,0.1321,0.3000,0.0600,0.0002,0,-5.2734,-273.0836,-0.5267,-5.2734,-273.0836,-0.5267,37.7683,41.4278,0.0200,0.2700,0.0000,0.0000,0.0000,0.0000,0.0000,0.0000
31.7944,45.9111,13.8612,-0.0000,-0.0821,0.1200,1.6200,0.6400,0.0000,-0.3332,-0.3822,0.0007,998,1504,1528,1504,2008,1000,1505,1000,1000,1006,1005,1000,1015,-0.0271,0.0492,0.0439,-0.0186,0.0133,1.0000,0.0496,0.7147,-0.0483,-0.7161,0.8627,0.2400,0.1321,0.8627,0.2400,0.1321,0.3000,0.0600,0.0002,0,-5.2734,-273.0836,-0.5267,-5.2734,-273.0836,-0.5267,37.7339,41.4051,0.0200,0.2700,0.0000,0.0000,0.0000,0.0000,0.0000,0.0000
31.7632,45.8861,13.8390,-0.0000,-0.0821,0.1200,1.6200,0.6400,0.0000,-0.3331,-0.3820,-0.0000,996,1502,1527,1502,2008,1000,1505,1000,1000,1006,1005,1000,1015,0.0712,0.1116,-0.0433,-0.0199,0.0113,1.0023,0.0489,0.7151,-0.0490,-0.7151,0.8627,0.2400,0.1321,0.8627,0.2400,0.1321,0.3000,0.0600,0.0002,0,-5.2734,-273.0836,-0.5267,-5.2734,-273.0836,-0.5267,37.6994,41.3824,0.0200,0.2700,0.0000,0.0000,0.0000,0.0000,0.0000,0.0000
31.7323,45.8611,13.8167,0.0829,-0.0821,0.1200,1.6200,0.6400,0.0000,-0.3328,-0.3818,0.0009,996,1502,1527,1502,2008,1000,1505,1000,1000,1006,1005,1000,1015,0.0600,0.0874,-0.0295,-0.0212,0.0123,1.0002,0.0499,0.7137,-0.0481,-0.7155,0.8627,0.2400,0.1321,0.8627,0.2400,0.1321,0.3000,0.0600,0.0002,0,-5.2734,-273.0836,-0.5267,-5.2734,-273.0836,-0.5267,37.6645,41.3599,0.0200,0.2700,0.0000,0.0000,0.0000,0.0000,0.0000,0.0000
31.7010,45.8362,13.7939,0.0829,-0.0821,0.1200,1.6200,0.6400,0.0000,-0.3326,-0.3815,0.0009,996,1502,1527,1502,2008,1000,1505,1000,1000,1006,1005,1000,1015,0.0798,0.0339,-0.0240,-0.0190,0.0099,1.0038,0.0498,0.7132,-0.0481,-0.7149,0.8627,0.2400,0.1321,0.8627,0.2400,0.1321,0.3000,0.0600,0.0002,0,-5.2734,-273.0836,-0.5267,-5.2734,-273.0836,-0.5267,37.6297,41.3373,0.0200,0.2700,0.0000,0.0000,0.0000,0.0000,0.0000,0.0000
31.6693,45.8104,13.7704,-0.0000,-0.0821,0.1200,1.6200,0.6400,0.0000,-0.3322,-0.3812,0.0010,996,1502,1527,1502,2008,1000,1505,1000,1000,1006,1005,1000,1014,0.0200,-0.0511,-0.0585,-0.0202,0.0130,1.0036,0.0500,0.7124,-0.0480,-0.7144,0.8627,0.2400,0.1321,0.8627,0.2400,0.1321,0.3000,0.0600,0.0002,0,-5.2582,-272.2996,-0.5252,-5.2582,-272.2996,-0.5252,37.5942,41.3148,0.0200,0.2700,0.0000,0.0000,0.0000,0.0000,0.0000,0.0000
31.6370,45.7849,13.7462,-0.0000,-0.0821,0.1200,1.6200,0.6400,0.0000,-0.3319,-0.3810,0.0011,996,1502,1527,1502,2008,1000,1505,1000,1000,1006,1005,1000,1014,0.0201,-0.0338,-0.0978,-0.0203,0.0119,1.0038,0.0502,0.7118,-0.0479,-0.7140,0.8627,0.2400,0.1321,0.8627,0.2400,0.1321,0.3000,0.0600,0.0002,0,-5.2582,-272.2996,-0.5252,-5.2582,-272.2996,-0.5252,37.5594,41.2922,0.0200,0.2700,0.0000,0.0000,0.0000,0.0000,0.0000,0.0000
31.6044,45.7591,13.7222,0.0829,-0.0821,0.1200,1.6200,0.6400,0.0000,-0.3316,-0.3807,0.0009,998,1504,1528,1502,2008,1000,1505,1000,1000,1006,1005,1000,1015,-0.0126,-0.0875,-0.0177,-0.0193,0.0142,1.0015,0.0499,0.7114,-0.0482,-0.7131,0.8627,0.2400,0.1321,0.8627,0.2400,0.1321,0.3000,0.0600,0.0002,0,-5.2734,-273.0836,-0.5267,-5.2734,-273.0836,-0.5267,37.5241,41.2700,0.0200,0.2700,0.0000,0.0000,0.0000,0.0000,0.0000,0.0000
31.5718,45.7336,13.6986,0.0829,-0.0821,0.1200,1.6200,0.6400,0.0000,-0.3313,-0.3806,0.0010,996,1502,1527,1502,2008,1000,1505,1000,1000,1006,1005,1000,1015,-0.0059,0.0458,-0.0657,-0.0198,0.0139,1.0013,0.0503,0.7109,-0.0483,-0.7130,0.8627,0.2400,0.1321,0.8627,0.2400,0.1321,0.3000,0.0600,0.0002,0,-5.2734,-273.0836,-0.5267,-5.2734,-273.0836,-0.5267,37.4895,41.2481,0.0200,0.2700,0.0000,0.0000,0.0000,0.0000,0.0000,0.0000
31.5396,45.7080,13.6749,0.0829,-0.0821,0.1200,1.6200,0.6400,0.0000,-0.3310,-0.3803,0.0011,996,1502,1527,1502,2008,1000,1505,1000,1000,1006,1005,1000,1015,-0.0402,-0.0358,-0.0934,-0.0194,0.0158,1.0000,0.0504,0.7102,-0.0482,-0.7124,0.8627,0.2400,0.1321,0.8627,0.2400,0.1321,0.3000,0.0600,0.0002,0,-5.2734,-273.0836,-0.5267,-5.2734,-273.0836,-0.5267,37.4547,41.2259,0.0200,0.2700,0.0000,0.0000,0.0000,0.0000,0.0000,0.0000
31.5068,45.6821,13.6510,0.0829,-0.0821,0.1200,1.6200,0.6400,0.0000,-0.3308,-0.3801,0.0010,996,1502,1527,1502,2008,1000,1505,1000,1000,1006,1005,1000,1015,-0.0019,-0.0096,-0.0528,-0.0200,0.0140,0.9990,0.0503,0.7099,-0.0483,-0.7119,0.8627,0.2400,0.1321,0.8627,0.2400,0.1321,0.3000,0.0600,0.0002,0,-5.2734,-273.0836,-0.5267,-5.2734,-273.0836,-0.5267,37.4191,41.2036,0.0200,0.2700,0.0000,0.0000,0.0000,0.0000,0.0000,0.0000
31.4754,45.6566,13.6285,-0.0000,-0.0821,0.1200,1.6200,0.6400,0.0000,-0.3305,-0.3800,0.0008,996,1502,1527,1502,2008,1000,1505,1000,1000,1006,1005,1000,1015,0.0139,0.0862,0.0146,-0.0193,0.0129,1.0017,0.0503,0.7098,-0.0487,-0.7113,0.8627,0.2400,0.1321,0.8627,0.2400,0.1321,0.3000,0.0600,0.0002,0,-5.2734,-273.0836,-0.5267,-5.2734,-273.0836,-0.5267,37.3840,41.1804,0.0200,0.2700,0.0000,0.0000,0.0000,0.0000,0.0000,0.0000
31.4441,45.6313,13.6061,-0.0000,-0.0821,0.1200,1.6200,0.6400,0.0000,-0.3303,-0.3797,0.0009,996,1502,1527,1502,2008,1000,1505,1000,1000,1006,1005,1000,1015,0.0593,0.0307,-0.0242,-0.0185,0.0129,1.0014,0.0503,0.7091,-0.0485,-0.7110,0.8627,0.2400,0.1321,0.8627,0.2400,0.1321,0.3000,0.0600,0.0002,0,-5.2734,-273.0836,-0.5267,-5.2734,-273.0836,-0.5267,37.3488,41.1578,0.0200,0.2700,0.0000,0.0000,0.0000,0.0000,0.0000,0.0000
31.4130,45.6051,13.5837,-0.0829,-0.1642,0.1200,1.6200,0.6400,0.0000,-0.3300,-0.3794,0.0007,998,1504,1528,1504,2008,1000,1505,1000,1000,1006,1005,1000,1015,0.0500,-0.0277,0.0529,-0.0210,0.0152,1.0016,0.0501,0.7088,-0.0487,-0.7102,0.8627,0.2400,0.1321,0.8627,0.2400,0.1321,0.3000,0.0600,0.0002,0,-5.2734,-273.0836,-0.5267,-5.2734,-273.0836,-0.5267,37.3146,41.1350,0.0200,0.2700,0.0000,0.0000,0.0000,0.0000,0.0000,0.0000
31.3821,45.5791,13.5617,-0.0829,-0.0821,0.1200,1.6200,0.6400,0.0000,-0.3297,-0.3793,-0.0002,996,1502,1527,1502,2008,1000,1505,1000,1000,1006,1005,1000,1015,0.0189,0.0453,0.0471,-0.0204,0.0121,1.0010,0.0493,0.7092,-0.0498,-0.7088,0.8627,0.2400,0.1321,0.8627,0.2400,0.1321,0.3000,0.0600,0.0002,0,-5.2734,-273.0836,-0.5267,-5.2734,-273.0836,-0.5267,37.2804,41.1120,0.0200,0.2700,0.0000,0.0000,0.0000,0.0000,0.0000,0.0000
31.3511,45.5532,13.5397,-0.0829,-0.0821,0.1200,1.6200,0.6400,0.0000,-0.3295,-0.3790,0.0009,996,1502,1527,1502,2008,1000,1505,1000,1000,1006,1005,1000,1015,0.0222,0.0169,0.0042,-0.0221,0.0138,1.0031,0.0504,0.7076,-0.0487,-0.7093,0.8627,0.2400,0.1321,0.8627,0.2400,0.1321,0.3000,0.0600,0.0002,0,-5.2734,-273.0836,-0.5267,-5.2734,-273.0836,-0.5267,37.2463,41.0889,0.0200,0.2700,0.0000,0.0000,0.0000,0.0000,0.0000,0.0000
31.3198,45.5277,13.5171,0.0829,-0.0000,0.1200,1.6200,0.6400,0.0000,-0.3291,-0.3788,0.0010,996,1502,1527,1502,2008,1000,1505,1000,1000,1006,1005,1000,1015,-0.0245,0.0438,-0.0529,-0.0243,0.0167,1.0019,0.0507,0.7070,-0.0487,-0.7090,0.8627,0.2400,0.1321,0.8627,0.2400,0.1321,0.3000,0.0600,0.0002,0,-5.2734,-273.0836,-0.5267,-5.2734,-273.0836,-0.5267,37.2123,41.0663,0.0200,0.2700,0.0000,0.0000,0.0000,0.0000,0.0000,0.0000
31.2887,45.5017,13.4947,-0.1657,-0.1642,0.1200,1.6200,0.6400,0.0000,-0.3290,-0.3786,0.0009,996,1502,1527,1502,2008,1000,1505,1000,1000,1006,1005,1000,1015,0.0882,0.0167,0.0010,-0.0221,0.0122,0.9980,0.0505,0.7067,-0.0487,-0.7085,0.8627,0.2400,0.1321,0.8627,0.2400,0.1321,0.3000,0.0600,0.0002,0,-5.2734,-273.0836,-0.5267,-5.2734,-273.0836,-0.5267,37.1781,41.0431,0.0200,0.2700,0.0000,0.0000,0.0000,0.0000,0.0000,0.0000
31.2580,45.4754,13.4727,-0.0000,-0.0821,0.1200,1.6200,0.6400,0.0000,-0.3286,-0.3784,0.0009,996,1502,1527,1502,2008,1000,1505,1000,1000,1006,1005,1000,1015,0.0094,0.0682,0.0009,-0.0226,0.0158,1.0011,0.0507,0.7062,-0.0489,-0.7080,0.8627,0.2400,0.1321,0.8627,0.2400,0.1321,0.3000,0.0600,0.0002,0,-5.2734,-273.0836,-0.5267,-5.2734,-273.0836,-0.5267,37.1432,41.0204,0.0200,0.2700,0.0000,0.0000,0.0000,0.0000,0.0000,0.0000
31.2282,45.4504,13.4512,-0.0829,-0.0821,0.1200,1.6200,0.6400,0.0000,-0.3285,-0.3782,0.0009,998,1504,1528,1504,2008,1000,1505,1000,1000,1006,1005,1000,1015,0.1051,0.0789,-0.0059,-0.0214,0.0122,1.0008,0.0506,0.7059,-0.0488,-0.7076,0.8627,0.2400,0.1321,0.8627,0.2400,0.1321,0.3000,0.0600,0.0002,0,-5.2734,-273.0836,-0.5267,-5.2734,-273.0836,-0.5267,37.1090,40.9972,0.0200,0.2700,0.0000,0.0000,0.0000,0.0000,0.0000,0.0000
31.1972,45.4247,13.4292,-0.0000,-0.0821,0.1200,1.6200,0.6400,0.0000,-0.3281,-0.3779,-0.0001,996,1502,1527,1502,2008,1000,1505,1000,1000,1006,1005,1000,1015,-0.0033,0.0292,-0.0039,-0.0210,0.0117,1.0037,0.0498,0.7061,-0.0499,-0.7060,0.8627,0.2400,0.1321,0.8627,0.2400,0.1321,0.3000,0.0600,0.0002,0,-5.2734,-273.0836,-0.5267,-5.2734,-273.0836,-0.5267,37.0747,40.9736,0.0200,0.2700,0.0000,0.0000,0.0000,0.0000,0.0000,0.0000
31.1659,45.3987,13.4071,0.0829,-0.0821,0.1200,1.6200,0.6400,0.0000,-0.3278,-0.3777,0.0007,996,1502,1527,1502,2008,1000,1505,1000,1000,1006,1005,1000,1015,-0.0158,-0.0131,0.0461,-0.0216,0.0137,1.0063,0.0506,0.7047,-0.0491,-0.7062,0.8627,0.2400,0.1321,0.8627,0.2400,0.1321,0.3000,0.0600,0.0002,0,-5.2734,-273.0836,-0.5267,-5.2734,-273.0836,-0.5267,37.0400,40.9504,0.0200,0.2700,0.0000,0.0000,0.0000,0.0000,0.0000,0.0000
31.1347,45.3724,13.3850,-0.0000,-0.0821,0.1200,1.6200,0.6400,0.0000,-0.3276,-0.3774,0.0009,996,1502,1527,1502,2008,1000,1505,1000,1000,1006,1005,1000,1015,0.0145,-0.0146,-0.0010,-0.0201,0.0137,1.0045,0.0507,0.7041,-0.0490,-0.7059,0.8627,0.2400,0.1321,0.8627,0.2400,0.1321,0.3000,0.0600,0.0002,0,-5.2734,-273.0836,-0.5267,-5.2734,-273.0836,-0.5267,37.0057,40.9275,0.0200,0.2700,0.0000,0.0000,0.0000,0.0000,0.0000,0.0000
31.1029,45.3467,13.3620,-0.0000,-0.0821,0.1200,1.6200,0.6400,0.0000,-0.3273,-0.3773,0.0011,996,1502,1527,1502,2008,1000,1505,1000,1000,1006,1005,1000,1015,0.0211,0.0522,-0.0623,-0.0207,0.0100,1.0020,0.0510,0.7036,-0.0489,-0.7057,0.8627,0.2400,0.1321,0.8627,0.2400,0.1321,0.3000,0.0600,0.0002,0,-5.2734,-273.0836,-0.5267,-5.2734,-273.0836,-0.5267,36.9715,40.9042,0.0200,0.2700,0.0000,0.0000,0.0000,0.0000,0.0000,0.0000
31.0711,45.3210,13.3387,-0.0829,-0.1642,0.1200,1.6200,0.6400,0.0000,-0.3270,-0.3770,0.0010,996,1502,1527,1502,2008,1000,1505,1000,1000,1006,1005,1000,1015,0.0258,-0.0350,-0.0419,-0.0187,0.0149,1.0045,0.0509,0.7030,-0.0489,-0.7050,0.8627,0.2400,0.1321,0.8627,0.2400,0.1321,0.3000,0.0600,0.0002,0,-5.2734,-273.0836,-0.5267,-5.2734,-273.0836,-0.5267,36.9368,40.8814,0.0200,0.2700,0.0000,0.0000,0.0000,0.0000,0.0000,0.0000
31.0394,45.2954,13.3156,0.0829,-0.0821,0.1200,1.6200,0.6400,0.0000,-0.3268,-0.3769,0.0012,998,1504,1528,1502,2008,1000,1505,1000,1000,1006,1005,1000,1015,0.0152,0.0829,-0.0895,-0.0207,0.0153,1.0068,0.0513,0.7025,-0.0490,-0.7048,0.8627,0.2400,0.1321,0.8627,0.2400,0.1321,0.3000,0.0600,0.0002,0,-5.2734,-273.0836,-0.5267,-5.2734,-273.0836,-0.5267,36.9025,40.8585,0.0200,0.2700,0.0000,0.0000,0.0000,0.0000,0.0000,0.0000
31.0083,45.2702,13.2932,-0.0829,-0.0821,0.1200,1.6200,0.6400,0.0000,-0.3265,-0.3767,0.0002,996,1502,1527,1502,2008,1000,1505,1000,1000,1006,1005,1000,1015,0.0546,0.0671,-0.0812,-0.0219,0.0135,1.0051,0.0503,0.7030,-0.0499,-0.7034,0.8627,0.2400,0.1321,0.8627,0.2400,0.1321,0.3000,0.0600,0.0002,0,-5.2734,-273.0836,-0.5267,-5.2734,-273.0836,-0.5267,36.8676,40.8358,0.0200,0.2700,0.0000,0.0000,0.0000,0.0000,0.0000,0.0000
30.9771,45.2444,13.2705,-0.0000,-0.0821,0.1200,1.6200,0.6400,0.0000,-0.3262,-0.3764,0.0010,996,1502,1527,1502,2008,1000,1505,1000,1000,1006,1005,1000,1015,-0.0035,0.0544,-0.0350,-0.0231,0.0165,1.0030,0.0512,0.7016,-0.0492,-0.7036,0.8627,0.2400,0.1321,0.8627,0.2400,0.1321,0.3000,0.0600,0.0002,0,-5.2734,-273.0836,-0.5267,-5.2734,-273.0836,-0.5267,36.8331,40.8129,0.0200,0.2700,0.0000,0.0000,0.0000,0.0000,0.0000,0.0000
30.9460,45.2187,13.2482,-0.0000,-0.0821,0.1200,1.6200,0.6400,0.0000,-0.3260,-0.3761,0.0010,996,1502,1527,1502,2008,1000,1505,1000,1000,1006,1005,1000,1015,0.0143,-0.0124,-0.0100,-0.0203,0.0136,1.0034,0.0511,0.7011,-0.0492,-0.7030,0.8627,0.2400,0.1321,0.8627,0.2400,0.1321,0.3000,0.0600,0.0002,0,-5.2734,-273.0836,-0.5267,-5.2734,-273.0836,-0.5267,36.7989,40.7901,0.0200,0.2700,0.0000,0.0000,0.0000,0.0000,0.0000,0.0000
30.9146,45.1931,13.2254,-0.0000,-0.0821,0.1200,1.6200,0.6400,0.0000,-0.3257,-0.3759,0.0011,996,1502,1527,1502,2008,1000,1505,1000,1000,1006,1005,1000,1015,0.0474,0.0084,-0.0582,-0.0205,0.0147,1.0051,0.0513,0.7006,-0.0491,-0.7027,0.8627,0.2400,0.1321,0.8627,0.2400,0.1321,0.3000,0.0600,0.0002,0,-5.2734,-273.0836,-0.5267,-5.2734,-273.0836,-0.5267,36.7641,40.7673,0.0200,0.2700,0.0000,0.0000,0.0000,0.0000,0.0000,0.0000
30.8828,45.1670,13.2021,-0.0000,-0.0821,0.1200,1.6200,0.6400,0.0000,-0.3254,-0.3756,0.0012,996,1502,1527,1502,2008,1000,1505,1000,1000,1006,1005,1000,1015,0.0192,-0.0627,-0.0985,-0.0207,0.0140,1.0021,0.0514,0.6998,-0.0490,-0.7022,0.8627,0.2400,0.1321,0.8627,0.2400,0.1321,0.3000,0.0600,0.0002,0,-5.2734,-273.0836,-0.5267,-5.2734,-273.0836,-0.5267,36.7294,40.7442,0.0200,0.2700,0.0000,0.0000,0.0000,0.0000,0.0000,0.0000
30.8516,45.1404,13.1795,-0.0000,-0.0821,0.1200,1.6200,0.6400,0.0000,-0.3251,-0.3754,0.0007,998,1504,1528,1504,2008,1000,1505,1000,1000,1006,1005,1000,1015,0.0070,-0.0264,0.0689,-0.0194,0.0132,1.0031,0.0510,0.6999,-0.0496,-0.7012,0.8627,0.2400,0.1321,0.8627,0.2400,0.1321,0.3000,0.0600,0.0002,0,-5.2734,-273.0836,-0.5267,-5.2734,-273.0836,-0.5267,36.6944,40.7207,0.0200,0.2700,0.0000,0.0000,0.0000,0.0000,0.0000,0.0000
30.8210,45.1140,13.1579,-0.0829,-0.0821,0.1200,1.6200,0.6400,0.0000,-0.3249,-0.3752,0.0001,996,1502,1527,1502,2008,1000,1505,1000,1000,1006,1005,1000,1015,0.0030,-0.0057,-0.0223,-0.0192,0.0128,1.0053,0.0504,0.7000,-0.0503,-0.7001,0.8627,0.2400,0.1321,0.8627,0.2400,0.1321,0.3000,0.0600,0.0002,0,-5.2734,-273.0836,-0.5267,-5.2734,-273.0836,-0.5267,36.6598,40.6974,0.0200,0.2700,0.0000,0.0000,0.0000,0.0000,0.0000,0.0000
30.7897,45.0877,13.1354,0.0829,-0.0821,0.1200,1.6200,0.6400,0.0000,-0.3246,-0.3750,0.0011,996,1502,1527,1502,2008,1000,1505,1000,1000,1006,1005,1000,1015,0.0190,0.0116,-0.0540,-0.0188,0.0121,1.0035,0.0515,0.6986,-0.0493,-0.7007,0.8627,0.2400,0.1321,0.8627,0.2400,0.1321,0.3000,0.0600,0.0002,0,-5.2734,-273.0836,-0.5267,-5.2734,-273.0836,-0.5267,36.6257,40.6734,0.0200,0.2700,0.0000,0.0000,0.0000,0.0000,0.0000,0.0000
30.7581,45.0618,13.1133,-0.0829,-0.1642,0.1200,1.6200,0.6400,0.0000,-0.3243,-0.3748,0.0009,996,1502,1527,1502,2008,1000,1505,1000,1000,1006,1005,1000,1015,0.0058,-0.0064,0.0030,-0.0217,0.0107,1.0043,0.0514,0.6981,-0.0495,-0.7000,0.8627,0.2400,0.1321,0.8627,0.2400,0.1321,0.3000,0.0600,0.0002,0,-5.2734,-273.0836,-0.5267,-5.2734,-273.0836,-0.5267,36.5914,40.6498,0.0200,0.2700,0.0000,0.0000,0.0000,0.0000,0.0000,0.0000
30.7278,45.0354,13.0917,-0.0000,-0.0821,0.1200,1.6200,0.6400,0.0000,-0.3242,-0.3745,0.0009,996,1502,1527,1502,2008,1000,1505,1000,1000,1006,1005,1000,1015,0.0857,-0.0015,0.0199,-0.0203,0.0161,0.9988,0.0513,0.6978,-0.0495,-0.6996,0.8627,0.2400,0.1321,0.8627,0.2400,0.1321,0.3000,0.0600,0.0002,0,-5.2734,-273.0836,-0.5267,-5.2734,-273.0836,-0.5267,36.5570,40.6255,0.0200,0.2700,0.0000,0.0000,0.0000,0.0000,0.0000,0.0000
30.6974,45.0091,13.0699,-0.0829,-0.1642,0.1200,1.6200,0.6400,0.0000,-0.3238,-0.3743,0.0009,996,1502,1527,1502,2008,1000,1505,1000,1000,1006,1005,1000,1015,0.0313,0.0110,0.0333,-0.0226,0.0123,1.0034,0.0514,0.6973,-0.0496,-0.6990,0.8627,0.2400,0.1321,0.8627,0.2400,0.1321,0.3000,0.0600,0.0002,0,-5.2734,-273.0836,-0.5267,-5.2734,-273.0836,-0.5267,36.5238,40.6014,0.0200,0.2700,0.0000,0.0000,0.0000,0.0000,0.0000,0.0000
30.6670,44.9826,13.0480,0.0829,-0.0821,0.1200,1.6200,0.6400,0.0000,-0.3236,-0.3741,0.0007,998,1504,1528,1504,2008,1000,1505,1000,1000,1006,1005,1000,1015,0.0390,-0.0154,0.0694,-0.0208,0.0131,1.0038,0.0512,0.6969,-0.0498,-0.6984,0.8627,0.2400,0.1321,0.8627,0.2400,0.1321,0.3000,0.0600,0.0002,0,-5.2734,-273.0836,-0.5267,-5.2734,-273.0836,-0.5267,36.4903,40.5779,0.0200,0.2700,0.0000,0.0000,0.0000,0.0000,0.0000,0.0000
30.6367,44.9560,13.0266,-0.0829,-0.1642,0.1200,1.6200,0.6400,0.0000,-0.3233,-0.3739,0.0001,996,1502,1527,1502,2008,1000,1505,1000,1000,1006,1005,1000,1015,0.0265,0.0339,-0.0305,-0.0199,0.0172,1.0019,0.0507,0.6971,-0.0505,-0.6973,0.8627,0.2400,0.1321,0.8627,0.2400,0.1321,0.3000,0.0600,0.0002,0,-5.2734,-273.0836,-0.5267,-5.2734,-273.0836,-0.5267,36.4561,40.5539,0.0200,0.2700,0.0000,0.0000,0.0000,0.0000,0.0000,0.0000
30.6061,44.9297,13.0051,-0.0000,-0.0821,0.1200,1.6200,0.6400,0.0000,-0.3230,-0.3736,0.0008,996,1502,1527,1502,2008,1000,1505,1000,1000,1006,1005,1000,1015,0.0074,0.0011,0.0398,-0.0223,0.0134,0.9991,0.0514,0.6959,-0.0498,-0.6974,0.8627,0.2400,0.1321,0.8627,0.2400,0.1321,0.3000,0.0600,0.0002,0,-5.2734,-273.0836,-0.5267,-5.2734,-273.0836,-0.5267,36.4222,40.5299,0.0200,0.2700,0.0000,0.0000,0.0000,0.0000,0.0000,0.0000
30.5760,44.9030,12.9840,-0.0829,-0.0821,0.1200,1.6200,0.6400,0.0000,-0.3228,-0.3733,0.0008,996,1502,1527,1502,2008,1000,1505,1000,1000,1006,1005,1000,1015,0.0664,-0.0443,0.0468,-0.0188,0.0140,1.0000,0.0513,0.6954,-0.0497,-0.6970,0.8627,0.2400,0.1321,0.8627,0.2400,0.1321,0.3000,0.0600,0.0002,0,-5.2734,-273.0836,-0.5267,-5.2734,-273.0836,-0.5267,36.3882,40.5065,0.0200,0.2700,0.0000,0.0000,0.0000,0.0000,0.0000,0.0000
30.5458,44.8761,12.9622,-0.0000,-0.0821,0.1200,1.6200,0.6400,0.0000,-0.3226,-0.3731,0.0009,996,1502,1527,1502,2008,1000,1505,1000,1000,1006,1005,1000,1015,0.0883,-0.0307,0.0432,-0.0207,0.0142,1.0027,0.0514,0.6949,-0.0497,-0.6966,0.8627,0.2400,0.1321,0.8627,0.2400,0.1321,0.3000,0.0600,0.0002,0,-5.2734,-273.0836,-0.5267,-5.2734,-273.0836,-0.5267,36.3541,40.4831,0.0200,0.2700,0.0000,0.0000,0.0000,0.0000,0.0000,0.0000
30.5158,44.8500,12.9407,0.0829,-0.0821,0.1200,1.6200,0.6400,0.0000,-0.3223,-0.3731,0.0010,996,1502,1527,1502,2008,1000,1505,1000,1000,1006,1005,1000,1015,0.0364,0.0969,-0.0124,-0.0195,0.0157,1.0003,0.0518,0.6944,-0.0498,-0.6963,0.8627,0.2400,0.1321,0.8627,0.2400,0.1321,0.3000,0.0600,0.0002,0,-5.2734,-273.0836,-0.5267,-5.2734,-273.0836,-0.5267,36.3198,40.4595,0.0200,0.2700,0.0000,0.0000,0.0000,0.0000,0.0000,0.0000
30.4855,44.8241,12.9194,0.0829,-0.0821,0.1200,1.6200,0.6400,0.0000,-0.3220,-0.3727,0.0010,998,1504,1528,1504,2008,1000,1505,1000,1000,1006,1005,1000,1015,-0.0050,0.0012,-0.0097,-0.0204,0.0152,0.9976,0.0518,0.6937,-0.0498,-0.6957,0.8627,0.2400,0.1321,0.8627,0.2400,0.1321,0.3000,0.0600,0.0002,0,-5.2734,-273.0836,-0.5267,-5.2734,-273.0836,-0.5267,36.2859,40.4360,0.0200,0.2700,0.0000,0.0000,0.0000,0.0000,0.0000,0.0000
30.4549,44.7975,12.8978,-0.0000,-0.0821,0.1200,1.6200,0.6400,0.0000,-0.3217,-0.3725,0.0002,996,1502,1527,1502,2008,1000,1505,1000,1000,1006,1005,1000,1015,-0.0239,-0.0074,-0.0555,-0.0220,0.0132,1.0024,0.0510,0.6939,-0.0506,-0.6944,0.8627,0.2400,0.1321,0.8627,0.2400,0.1321,0.3000,0.0600,0.0002,0,-5.2734,-273.0836,-0.5267,-5.2734,-273.0836,-0.5267,36.2521,40.4124,0.0200,0.2700,0.0000,0.0000,0.0000,0.0000,0.0000,0.0000
30.4234,44.7712,12.8752,0.0829,-0.0821,0.1200,1.6200,0.6400,0.0000,-0.3214,-0.3723,0.0011,996,1502,1527,1502,2008,1000,1505,1000,1000,1006,1005,1000,1015,0.0099,0.0194,-0.0209,-0.0231,0.0135,0.9996,0.0519,0.6927,-0.0498,-0.6948,0.8627,0.2400,0.1321,0.8627,0.2400,0.1321,0.3000,0.0600,0.0002,0,-5.2734,-273.0836,-0.5267,-5.2734,-273.0836,-0.5267,36.2179,40.3895,0.0200,0.2700,0.0000,0.0000,0.0000,0.0000,0.0000,0.0000
30.3927,44.7450,12.8532,0.1657,-0.0821,0.1200,1.6200,0.6400,0.0000,-0.3212,-0.3720,0.0010,996,1502,1527,1502,2008,1000,1505,1000,1000,1006,1005,1000,1015,0.0332,-0.0010,0.0043,-0.0172,0.0153,1.0017,0.0518,0.6923,-0.0499,-0.6942,0.8627,0.2400,0.1321,0.8627,0.2400,0.1321,0.3000,0.0600,0.0002,0,-5.2734,-273.0836,-0.5267,-5.2734,-273.0836,-0.5267,36.1836,40.3665,0.0200,0.2700,0.0000,0.0000,0.0000,0.0000,0.0000,0.0000
30.3623,44.7184,12.8315,0.0829,-0.0821,0.1200,1.6200,0.6400,0.0000,-0.3210,-0.3718,0.0012,996,1502,1527,1502,2008,1000,1505,1000,1000,1006,1005,1000,1015,0.0987,-0.0331,-0.0510,-0.0202,0.0144,0.9965,0.0519,0.6916,-0.0496,-0.6940,0.8627,0.2400,0.1321,0.8627,0.2400,0.1321,0.3000,0.0600,0.0002,0,-5.2734,-273.0836,-0.5267,-5.2734,-273.0836,-0.5267,36.1496,40.3434,0.0200,0.2700,0.0000,0.0000,0.0000,0.0000,0.0000,0.0000
30.3312,44.6921,12.8087,-0.0000,-0.1642,0.1200,1.6200,0.6400,0.0000,-0.3207,-0.3716,0.0012,996,1502,1527,1502,2008,1000,1505,1000,1000,1006,1005,1000,1015,0.0199,0.0107,-0.0574,-0.0225,0.0120,1.0037,0.0521,0.6911,-0.0498,-0.6934,0.8627,0.2400,0.1321,0.8627,0.2400,0.1321,0.3000,0.0600,0.0002,0,-5.2734,-273.0836,-0.5267,-5.2734,-273.0836,-0.5267,36.1148,40.3205,0.0200,0.2700,0.0000,0.0000,0.0000,0.0000,0.0000,0.0000
30.3002,44.6654,12.7864,-0.0000,-0.0821,0.1200,1.6200,0.6400,0.0000,-0.3204,-0.3713,0.0012,998,1504,1528,1504,2008,1000,1505,1000,1000,1006,1005,1000,1015,0.0288,-0.0092,-0.0763,-0.0204,0.0154,1.0009,0.0522,0.6905,-0.0497,-0.6930,0.8627,0.2400,0.1321,0.8627,0.2400,0.1321,0.3000,0.0600,0.0002,0,-5.2734,-273.0836,-0.5267,-5.2734,-273.0836,-0.5267,36.0803,40.2976,0.0200,0.2700,0.0000,0.0000,0.0000,0.0000,0.0000,0.0000
30.2695,44.6392,12.7643,0.0829,-0.0821,0.1200,1.6200,0.6400,0.0000,-0.3201,-0.3712,0.0003,996,1502,1527,1502,2008,1000,1505,1000,1000,1006,1005,1000,1015,0.0253,0.0514,-0.0822,-0.0201,0.0131,1.0020,0.0513,0.6911,-0.0508,-0.6916,0.8627,0.2400,0.1321,0.8627,0.2400,0.1321,0.3000,0.0600,0.0002,0,-5.2734,-273.0836,-0.5267,-5.2734,-273.0836,-0.5267,36.0456,40.2743,0.0200,0.2700,0.0000,0.0000,0.0000,0.0000,0.0000,0.0000
30.2385,44.6133,12.7423,0.0829,-0.0821,0.1200,1.6200,0.6400,0.0000,-0.3198,-0.3710,0.0013,996,1502,1527,1502,2008,1000,1505,1000,1000,1006,1005,1000,1015,0.0044,0.0501,-0.0848,-0.0209,0.0132,1.0004,0.0524,0.6895,-0.0499,-0.6921,0.8627,0.2400,0.1321,0.8627,0.2400,0.1321,0.3000,0.0600,0.0002,0,-5.2734,-273.0836,-0.5267,-5.2734,-273.0836,-0.5267,36.0111,40.2511,0.0200,0.2700,0.0000,0.0000,0.0000,0.0000,0.0000,0.0000
30.2079,44.5871,12.7209,-0.0000,-0.0000,0.1200,1.6200,0.6400,0.0000,-0.3196,-0.3708,0.0009,996,1502,1527,1502,2008,1000,1505,1000,1000,1006,1005,1000,1015,0.0481,0.0585,0.0148,-0.0197,0.0135,1.0040,0.0521,0.6895,-0.0502,-0.6913,0.8627,0.2400,0.1321,0.8627,0.2400,0.1321,0.3000,0.0600,0.0002,0,-5.2734,-273.0836,-0.5267,-5.2734,-273.0836,-0.5267,35.9761,40.2276,0.0200,0.2700,0.0000,0.0000,0.0000,0.0000,0.0000,0.0000
30.1775,44.5605,12.6994,-0.1657,-0.1642,0.1200,1.6200,0.6400,0.0000,-0.3194,-0.3704,0.0011,996,1502,1527,1502,2008,1000,1505,1000,1000,1006,1005,1000,1015,0.0357,-0.0401,-0.0356,-0.0202,0.0136,1.0087,0.0522,0.6886,-0.0499,-0.6909,0.8627,0.2400,0.1321,0.8627,0.2400,0.1321,0.3000,0.0600,0.0002,0,-5.2734,-273.0836,-0.5267,-5.2734,-273.0836,-0.5267,35.9417,40.2042,0.0200,0.2700,0.0000,0.0000,0.0000,0.0000,0.0000,0.0000
30.1466,44.5339,12.6773,-0.0829,-0.0821,0.1200,1.6200,0.6400,0.0000,-0.3191,-0.3701,0.0013,996,1502,1527,1502,2008,1000,1505,1000,1000,1006,1005,1000,1015,0.0344,-0.0603,-0.0824,-0.0168,0.0166,1.0024,0.0523,0.6880,-0.0498,-0.6905,0.8627,0.2400,0.1321,0.8627,0.2400,0.1321,0.3000,0.0600,0.0002,0,-5.2734,-273.0836,-0.5267,-5.2734,-273.0836,-0.5267,35.9082,40.1805,0.0200,0.2700,0.0000,0.0000,0.0000,0.0000,0.0000,0.0000
30.1157,44.5073,12.6553,-0.0829,-0.1642,0.1200,1.6200,0.6400,0.0000,-0.3189,-0.3700,0.0012,998,1504,1528,1502,2008,1000,1505,1000,1000,1006,1005,1000,1015,0.0624,0.0357,-0.0490,-0.0216,0.0122,1.0010,0.0524,0.6877,-0.0500,-0.6901,0.8627,0.2400,0.1321,0.8627,0.2400,0.1321,0.3000,0.0600,0.0002,0,-5.2734,-273.0836,-0.5267,-5.2734,-273.0836,-0.5267,35.8744,40.1568,0.0200,0.2700,0.0000,0.0000,0.0000,0.0000,0.0000,0.0000
30.0856,44.4810,12.6339,-0.0000,-0.0821,0.1200,1.6200,0.6400,0.0000,-0.3186,-0.3698,0.0009,996,1502,1527,1502,2008,1000,1505,1000,1000,1006,1005,1000,1014,0.0513,0.0277,0.0283,-0.0181,0.0167,1.0042,0.0522,0.6874,-0.0503,-0.6893,0.8627,0.2400,0.1321,0.8627,0.2400,0.1321,0.3000,0.0600,0.0002,0,-5.2582,-272.2996,-0.5252,-5.2582,-272.2996,-0.5252,35.8400,40.1330,0.0200,0.2700,0.0000,0.0000,0.0000,0.0000,0.0000,0.0000
30.0554,44.4543,12.6126,-0.0829,-0.1642,0.1200,1.6200,0.6400,0.0000,-0.3183,-0.3695,0.0011,996,1502,1527,1502,2008,1000,1505,1000,1000,1006,1005,1000,1014,0.0424,-0.0039,-0.0093,-0.0216,0.0145,0.9994,0.0523,0.6868,-0.0501,-0.6889,0.8627,0.2400,0.1321,0.8627,0.2400,0.1321,0.3000,0.0600,0.0002,0,-5.2582,-272.2996,-0.5252,-5.2582,-272.2996,-0.5252,35.8062,40.1088,0.0200,0.2700,0.0000,0.0000,0.0000,0.0000,0.0000,0.0000
30.0248,44.4274,12.5911,0.0829,-0.0000,0.1200,1.6200,0.6400,0.0000,-0.3180,-0.3692,0.0008,996,1502,1527,1502,2008,1000,1505,1000,1000,1006,1005,1000,1015,-0.0034,-0.0448,0.0749,-0.0174,0.0133,0.9993,0.0521,0.6864,-0.0505,-0.6880,0.8627,0.2400,0.1321,0.8627,0.2400,0.1321,0.3000,0.0600,0.0002,0,-5.2734,-273.0836,-0.5267,-5.2734,-273.0836,-0.5267,35.7719,40.0846,0.0200,0.2700,0.0000,0.0000,0.0000,0.0000,0.0000,0.0000
29.9944,44.4007,12.5700,0.0829,-0.1642,0.1200,1.6200,0.6400,0.0000,-0.3177,-0.3691,0.0010,996,1502,1527,1502,2008,1000,1505,1000,1000,1006,1005,1000,1015,-0.0300,-0.0078,0.0361,-0.0182,0.0132,1.0007,0.0523,0.6858,-0.0504,-0.6877,0.8627,0.2400,0.1321,0.8627,0.2400,0.1321,0.3000,0.0600,0.0002,0,-5.2734,-273.0836,-0.5267,-5.2734,-273.0836,-0.5267,35.7380,40.0602,0.0200,0.2700,0.0000,0.0000,0.0000,0.0000,0.0000,0.0000
29.9632,44.3743,12.5483,0.0829,-0.1642,0.1200,1.6200,0.6400,0.0000,-0.3174,-0.3689,0.0012,996,1502,1527,1502,2008,1000,1505,1000,1000,1006,1005,1000,1015,-0.0441,0.0320,-0.0486,-0.0203,0.0127,1.0005,0.0527,0.6851,-0.0503,-0.6875,0.8627,0.2400,0.1321,0.8627,0.2400,0.1321,0.3000,0.0600,0.0002,0,-5.2734,-273.0836,-0.5267,-5.2734,-273.0836,-0.5267,35.7038,40.0356,0.0200,0.2700,0.0000,0.0000,0.0000,0.0000,0.0000,0.0000
29.9328,44.3478,12.5272,-0.0829,-0.0821,0.1200,1.6200,0.6400,0.0000,-0.3173,-0.3686,0.0010,998,1504,1528,1502,2008,1000,1505,1000,1000,1006,1005,1000,1015,0.0508,0.0271,0.0315,-0.0214,0.0146,0.9987,0.0524,0.6849,-0.0504,-0.6869,0.8627,0.2400,0.1321,0.8627,0.2400,0.1321,0.3000,0.0600,0.0002,0,-5.2734,-273.0836,-0.5267,-5.2734,-273.0836,-0.5267,35.6692,40.0117,0.0200,0.2700,0.0000,0.0000,0.0000,0.0000,0.0000,0.0000
29.9028,44.3207,12.5062,-0.0000,-0.0821,0.1200,1.6200,0.6400,0.0000,-0.3170,-0.3683,0.0009,996,1502,1527,1502,2008,1000,1505,1000,1000,1006,1005,1000,1015,0.0298,-0.0505,0.0526,-0.0186,0.0152,1.0014,0.0522,0.6844,-0.0504,-0.6862,0.8627,0.2400,0.1321,0.8627,0.2400,0.1321,0.3000,0.0600,0.0002,0,-5.2734,-273.0836,-0.5267,-5.2734,-273.0836,-0.5267,35.6344,39.9879,0.0200,0.2700,0.0000,0.0000,0.0000,0.0000,0.0000,0.0000
29.8725,44.2938,12.4851,0.0829,-0.0821,0.1200,1.6200,0.6400,0.0000,-0.3167,-0.3681,0.0011,996,1502,1527,1502,2008,1000,1505,1000,1000,1006,1005,1000,1015,0.0264,-0.0235,-0.0041,-0.0197,0.0127,1.0000,0.0525,0.6837,-0.0503,-0.6859,0.8627,0.2400,0.1321,0.8627,0.2400,0.1321,0.3000,0.0600,0.0002,0,-5.2734,-273.0836,-0.5267,-5.2734,-273.0836,-0.5267,35.6005,39.9639,0.0200,0.2700,0.0000,0.0000,0.0000,0.0000,0.0000,0.0000
29.8420,44.2668,12.4635,-0.0000,-0.0821,0.1200,1.6200,0.6400,0.0000,-0.3165,-0.3679,0.0012,996,1502,1527,1502,2008,1000,1505,1000,1000,1006,1005,1000,1015,0.0331,0.0044,-0.0276,-0.0201,0.0125,0.9983,0.0526,0.6832,-0.0503,-0.6855,0.8627,0.2400,0.1321,0.8627,0.2400,0.1321,0.3000,0.0600,0.0002,0,-5.2734,-273.0836,-0.5267,-5.2734,-273.0836,-0.5267,35.5657,39.9400,0.0200,0.2700,0.0000,0.0000,0.0000,0.0000,0.0000,0.0000
29.8110,44.2399,12.4413,-0.0000,-0.0821,0.1200,1.6200,0.6400,0.0000,-0.3161,-0.3676,0.0012,996,1502,1527,1502,2008,1000,1505,1000,1000,1006,1005,1000,1015,-0.0010,-0.0353,-0.0423,-0.0194,0.0147,1.0031,0.0527,0.6826,-0.0503,-0.6850,0.8627,0.2400,0.1321,0.8627,0.2400,0.1321,0.3000,0.0600,0.0002,0,-5.2734,-273.0836,-0.5267,-5.2734,-273.0836,-0.5267,35.5308,39.9160,0.0200,0.2700,0.0000,0.0000,0.0000,0.0000,0.0000,0.0000
29.7802,44.2129,12.4194,0.0829,-0.1642,0.1200,1.6200,0.6400,0.0000,-0.3160,-0.3674,0.0012,996,1502,1527,1502,2008,1000,1505,1000,1000,1006,1005,1000,1015,0.0771,-0.0039,-0.0260,-0.0172,0.0144,1.0021,0.0526,0.6822,-0.0503,-0.6846,0.8627,0.2400,0.1321,0.8627,0.2400,0.1321,0.3000,0.0600,0.0002,0,-5.2734,-273.0836,-0.5267,-5.2734,-273.0836,-0.5267,35.4966,39.8927,0.0200,0.2700,0.0000,0.0000,0.0000,0.0000,0.0000,0.0000
29.7498,44.1859,12.3979,0.0829,-0.1642,0.1200,1.6200,0.6400,0.0000,-0.3156,-0.3672,0.0010,998,1504,1528,1504,2008,1000,1505,1000,1000,1006,1005,1000,1015,0.0051,-0.0280,0.0199,-0.0190,0.0154,1.0001,0.0526,0.6818,-0.0506,-0.6838,0.8627,0.2400,0.1321,0.8627,0.2400,0.1321,0.3000,0.0600,0.0002,0,-5.2734,-273.0836,-0.5267,-5.2734,-273.0836,-0.5267,35.4625,39.8695,0.0200,0.2700,0.0000,0.0000,0.0000,0.0000,0.0000,0.0000
29.7197,44.1593,12.3764,-0.0000,-0.0821,0.1200,1.6200,0.6400,0.0000,-0.3154,-0.3671,0.0003,996,1502,1527,1502,2008,1000,1505,1000,1000,1006,1005,1000,1015,0.0606,0.0989,-0.0503,-0.0198,0.0148,1.0036,0.0520,0.6823,-0.0514,-0.6828,0.8627,0.2400,0.1321,0.8627,0.2400,0.1321,0.3000,0.0600,0.0002,0,-5.2734,-273.0836,-0.5267,-5.2734,-273.0836,-0.5267,35.4281,39.8466,0.0200,0.2700,0.0000,0.0000,0.0000,0.0000,0.0000,0.0000
29.6891,44.1326,12.3546,-0.0000,-0.0821,0.1200,1.6200,0.6400,0.0000,-0.3151,-0.3667,0.0014,996,1502,1527,1502,2008,1000,1505,1000,1000,1006,1005,1000,1015,-0.0082,-0.0628,-0.0894,-0.0218,0.0127,1.0104,0.0530,0.6804,-0.0502,-0.6832,0.8627,0.2400,0.1321,0.8627,0.2400,0.1321,0.3000,0.0600,0.0002,0,-5.2734,-273.0836,-0.5267,-5.2734,-273.0836,-0.5267,35.3935,39.8232,0.0200,0.2700,0.0000,0.0000,0.0000,0.0000,0.0000,0.0000
29.6581,44.1059,12.3325,-0.0000,-0.0821,0.1200,1.6200,0.6400,0.0000,-0.3149,-0.3665,0.0013,996,1502,1527,1502,2008,1000,1505,1000,1000,1006,1005,1000,1015,0.0239,0.0006,-0.0556,-0.0180,0.0148,1.0024,0.0530,0.6801,-0.0504,-0.6827,0.8627,0.2400,0.1321,0.8627,0.2400,0.1321,0.3000,0.0600,0.0002,0,-5.2734,-273.0836,-0.5267,-5.2734,-273.0836,-0.5267,35.3595,39.7999,0.0200,0.2700,0.0000,0.0000,0.0000,0.0000,0.0000,0.0000
29.6272,44.0790,12.3107,0.0829,-0.0821,0.1200,1.6200,0.6400,0.0000,-0.3145,-0.3663,0.0012,996,1502,1527,1502,2008,1000,1505,1000,1000,1006,1005,1000,1015,-0.0488,-0.0167,-0.0257,-0.0176,0.0146,1.0009,0.0529,0.6796,-0.0506,-0.6819,0.8627,0.2400,0.1321,0.8627,0.2400,0.1321,0.3000,0.0600,0.0002,0,-5.2734,-273.0836,-0.5267,-5.2734,-273.0836,-0.5267,35.3254,39.7763,0.0200,0.2700,0.0000,0.0000,0.0000,0.0000,0.0000,0.0000
29.5969,44.0520,12.2895,0.0829,-0.0821,0.1200,1.6200,0.6400,0.0000,-0.3144,-0.3660,0.0013,996,1502,1527,1502,2008,1000,1505,1000,1000,1006,1005,1000,1015,0.0481,-0.0217,-0.0616,-0.0205,0.0131,1.0020,0.0530,0.6791,-0.0504,-0.6817,0.8627,0.2400,0.1321,0.8627,0.2400,0.1321,0.3000,0.0600,0.0002,0,-5.2734,-273.0836,-0.5267,-5.2734,-273.0836,-0.5267,35.2915,39.7532,0.0200,0.2700,0.0000,0.0000,0.0000,0.0000,0.0000,0.0000
29.5665,44.0251,12.2677,0.0829,-0.0000,0.1200,1.6200,0.6400,0.0000,-0.3141,-0.3657,0.0010,998,1504,1528,1502,2008,1000,1505,1000,1000,1006,1005,1000,1015,0.0319,-0.0898,0.0105,-0.0219,0.0117,1.0006,0.0527,0.6787,-0.0506,-0.6808,0.8627,0.2400,0.1321,0.8627,0.2400,0.1321,0.3000,0.0600,0.0002,0,-5.2734,-273.0836,-0.5267,-5.2734,-273.0836,-0.5267,35.2580,39.7295,0.0200,0.2700,0.0000,0.0000,0.0000,0.0000,0.0000,0.0000
29.5361,43.9977,12.2464,-0.0829,-0.2462,0.1200,1.6200,0.6400,0.0000,-0.3138,-0.3657,0.0001,996,1502,1527,1502,2008,1000,1505,1000,1000,1006,1005,1000,1015,0.0343,0.0633,0.0232,-0.0206,0.0131,1.0008,0.0519,0.6794,-0.0518,-0.6796,0.8627,0.2400,0.1321,0.8627,0.2400,0.1321,0.3000,0.0600,0.0002,0,-5.2734,-273.0836,-0.5267,-5.2734,-273.0836,-0.5267,35.2244,39.7057,0.0200,0.2700,0.0000,0.0000,0.0000,0.0000,0.0000,0.0000
29.5062,43.9704,12.2258,0.0829,-0.0000,0.1200,1.6200,0.6400,0.0000,-0.3135,-0.3653,0.0011,996,1502,1527,1502,2008,1000,1505,1000,1000,1006,1005,1000,1015,0.0245,-0.0295,0.0304,-0.0212,0.0114,1.0045,0.0528,0.6778,-0.0507,-0.6799,0.8627,0.2400,0.1321,0.8627,0.2400,0.1321,0.3000,0.0600,0.0002,0,-5.2734,-273.0836,-0.5267,-5.2734,-273.0836,-0.5267,35.1905,39.6813,0.0200,0.2700,0.0000,0.0000,0.0000,0.0000,0.0000,0.0000
29.4763,43.9433,12.2047,-0.1657,-0.0821,0.1200,1.6200,0.6400,0.0000,-0.3133,-0.3652,0.0009,996,1502,1527,1502,2008,1000,1505,1000,1000,1006,1005,1000,1015,0.0222,0.0209,0.0635,-0.0222,0.0131,1.0055,0.0528,0.6775,-0.0510,-0.6793,0.8627,0.2400,0.1321,0.8627,0.2400,0.1321,0.3000,0.0600,0.0002,0,-5.2734,-273.0836,-0.5267,-5.2734,-273.0836,-0.5267,35.1566,39.6569,0.0200,0.2700,0.0000,0.0000,0.0000,0.0000,0.0000,0.0000
29.4467,43.9164,12.1843,-0.0829,-0.0821,0.1200,1.6200,0.6400,0.0000,-0.3131,-0.3650,0.0011,996,1502,1527,1502,2008,1000,1505,1000,1000,1006,1005,1000,1015,0.0407,0.0724,-0.0042,-0.0191,0.0142,1.0002,0.0531,0.6769,-0.0508,-0.6792,0.8627,0.2400,0.1321,0.8627,0.2400,0.1321,0.3000,0.0600,0.0002,0,-5.2734,-273.0836,-0.5267,-5.2734,-273.0836,-0.5267,35.1227,39.6330,0.0200,0.2700,0.0000,0.0000,0.0000,0.0000,0.0000,0.0000
29.4168,43.8894,12.1635,-0.0829,-0.0821,0.1200,1.6200,0.6400,0.0000,-0.3128,-0.3647,0.0010,996,1502,1527,1502,2008,1000,1505,1000,1000,1006,1005,1000,1015,0.0327,0.0636,0.0629,-0.0185,0.0106,1.0039,0.0529,0.6766,-0.0510,-0.6785,0.8627,0.2400,0.1321,0.8627,0.2400,0.1321,0.3000,0.0600,0.0002,0,-5.2734,-273.0836,-0.5267,-5.2734,-273.0836,-0.5267,35.0888,39.6089,0.0200,0.2700,0.0000,0.0000,0.0000,0.0000,0.0000,0.0000
29.3870,43.8622,12.1431,-0.0000,-0.0821,0.1200,1.6200,0.6400,0.0000,-0.3125,-0.3645,0.0010,998,1504,1528,1504,2008,1000,1505,1000,1000,1006,1005,1000,1015,0.0038,0.0513,0.0425,-0.0198,0.0134,1.0026,0.0530,0.6760,-0.0510,-0.6780,0.8627,0.2400,0.1321,0.8627,0.2400,0.1321,0.3000,0.0600,0.0002,0,-5.2734,-273.0836,-0.5267,-5.2734,-273.0836,-0.5267,35.0550,39.5852,0.0200,0.2700,0.0000,0.0000,0.0000,0.0000,0.0000,0.0000
29.3575,43.8353,12.1226,-0.0000,-0.1642,0.1200,1.6200,0.6400,0.0000,-0.3122,-0.3642,0.0001,996,1502,1527,1502,2008,1000,1505,1000,1000,1006,1005,1000,1015,0.0105,0.0426,0.0231,-0.0192,0.0142,1.0033,0.0521,0.6764,-0.0519,-0.6766,0.8627,0.2400,0.1321,0.8627,0.2400,0.1321,0.3000,0.0600,0.0002,0,-5.2734,-273.0836,-0.5267,-5.2734,-273.0836,-0.5267,35.0211,39.5612,0.0200,0.2700,0.0000,0.0000,0.0000,0.0000,0.0000,0.0000
29.3275,43.8081,12.1019,0.0829,-0.0821,0.1200,1.6200,0.6400,0.0000,-0.3120,-0.3640,0.0012,996,1502,1527,1502,2008,1000,1505,1000,1000,1006,1005,1000,1015,0.0357,0.0134,-0.0268,-0.0224,0.0132,1.0017,0.0532,0.6748,-0.0507,-0.6772,0.8627,0.2400,0.1321,0.8627,0.2400,0.1321,0.3000,0.0600,0.0002,0,-5.2734,-273.0836,-0.5267,-5.2734,-273.0836,-0.5267,34.9868,39.5369,0.0200,0.2700,0.0000,0.0000,0.0000,0.0000,0.0000,0.0000
29.2975,43.7808,12.0807,-0.0000,-0.0821,0.1200,1.6200,0.6400,0.0000,-0.3118,-0.3638,0.0012,996,1502,1527,1502,2008,1000,1505,1000,1000,1006,1005,1000,1015,0.0345,0.0249,-0.0238,-0.0200,0.0165,0.9982,0.0532,0.6743,-0.0508,-0.6767,0.8627,0.2400,0.1321,0.8627,0.2400,0.1321,0.3000,0.0600,0.0002,0,-5.2734,-273.0836,-0.5267,-5.2734,-273.0836,-0.5267,34.9525,39.5125,0.0200,0.2700,0.0000,0.0000,0.0000,0.0000,0.0000,0.0000
29.2672,43.7539,12.0594,-0.0829,-0.0821,0.1200,1.6200,0.6400,0.0000,-0.3115,-0.3634,0.0012,996,1502,1527,1502,2008,1000,1505,1000,1000,1006,1005,1000,1015,0.0682,-0.0390,-0.0245,-0.0206,0.0139,1.0032,0.0531,0.6738,-0.0507,-0.6762,0.8627,0.2400,0.1321,0.8627,0.2400,0.1321,0.3000,0.0600,0.0002,0,-5.2734,-273.0836,-0.5267,-5.2734,-273.0836,-0.5267,34.9186,39.4879,0.0200,0.2700,0.0000,0.0000,0.0000,0.0000,0.0000,0.0000
29.2370,43.7273,12.0380,-0.0000,-0.0821,0.1200,1.6200,0.6400,0.0000,-0.3112,-0.3633,0.0013,996,1502,1527,1502,2008,1000,1505,1000,1000,1006,1005,1000,1015,-0.0166,0.0245,-0.0513,-0.0199,0.0160,1.0014,0.0534,0.6732,-0.0508,-0.6758,0.8627,0.2400,0.1321,0.8627,0.2400,0.1321,0.3000,0.0600,0.0002,0,-5.2734,-273.0836,-0.5267,-5.2734,-273.0836,-0.5267,34.8848,39.4636,0.0200,0.2700,0.0000,0.0000,0.0000,0.0000,0.0000,0.0000
29.2066,43.7001,12.0171,-0.0000,-0.0821,0.1200,1.6200,0.6400,0.0000,-0.3109,-0.3630,0.0010,998,1504,1528,1502,2008,1000,1505,1000,1000,1006,1005,1000,1014,-0.0233,0.0040,0.0313,-0.0241,0.0119,0.9996,0.0532,0.6729,-0.0511,-0.6750,0.8627,0.2400,0.1321,0.8627,0.2400,0.1321,0.3000,0.0600,0.0002,0,-5.2734,-273.0836,-0.5267,-5.2734,-273.0836,-0.5267,34.8508,39.4392,0.0200,0.2700,0.0000,0.0000,0.0000,0.0000,0.0000,0.0000
29.1769,43.6729,11.9964,-0.0000,-0.1642,0.1200,1.6200,0.6400,0.0000,-0.3107,-0.3628,0.0012,996,1502,1527,1502,2008,1000,1505,1000,1000,1006,1005,1000,1014,0.0211,-0.0059,0.0114,-0.0200,0.0143,1.0010,0.0532,0.6723,-0.0509,-0.6746,0.8627,0.2400,0.1321,0.8627,0.2400,0.1321,0.3000,0.0600,0.0002,0,-5.2582,-272.2996,-0.5252,-5.2582,-272.2996,-0.5252,34.8170,39.4150,0.0200,0.2700,0.0000,0.0000,0.0000,0.0000,0.0000,0.0000
29.1467,43.6461,11.9754,-0.0000,-0.0000,0.1200,1.6200,0.6400,0.0000,-0.3105,-0.3626,0.0015,996,1502,1527,1502,2008,1000,1505,1000,1000,1006,1005,1000,1014,0.0416,0.0436,-0.1011,-0.0183,0.0135,1.0010,0.0536,0.6716,-0.0507,-0.6746,0.8627,0.2400,0.1321,0.8627,0.2400,0.1321,0.3000,0.0600,0.0002,0,-5.2582,-272.2996,-0.5252,-5.2582,-272.2996,-0.5252,34.7829,39.3908,0.0200,0.2700,0.0000,0.0000,0.0000,0.0000,0.0000,0.0000
29.1160,43.6198,11.9534,-0.0000,-0.0821,0.1200,1.6200,0.6400,0.0000,-0.3102,-0.3623,0.0014,996,1502,1527,1502,2008,1000,1505,1000,1000,1006,1005,1000,1014,0.0141,-0.0060,-0.0899,-0.0182,0.0134,1.0031,0.0535,0.6711,-0.0508,-0.6739,0.8627,0.2400,0.1321,0.8627,0.2400,0.1321,0.3000,0.0600,0.0002,0,-5.2582,-272.2996,-0.5252,-5.2582,-272.2996,-0.5252,34.7487,39.3665,0.0200,0.2700,0.0000,0.0000,0.0000,0.0000,0.0000,0.0000
29.0855,43.5927,11.9320,-0.0000,-0.0821,0.1200,1.6200,0.6400,0.0000,-0.3100,-0.3621,0.0013,996,1502,1527,1502,2008,1000,1505,1000,1000,1006,1005,1000,1015,0.0607,-0.0090,-0.0472,-0.0202,0.0126,1.0028,0.0534,0.6707,-0.0508,-0.6734,0.8627,0.2400,0.1321,0.8627,0.2400,0.1321,0.3000,0.0600,0.0002,0,-5.2734,-273.0836,-0.5267,-5.2734,-273.0836,-0.5267,34.7144,39.3421,0.0200,0.2700,0.0000,0.0000,0.0000,0.0000,0.0000,0.0000
29.0555,43.5658,11.9109,0.0829,-0.0821,0.1200,1.6200,0.6400,0.0000,-0.3096,-0.3619,0.0012,996,1502,1527,1502,2008,1000,1505,1000,1000,1006,1005,1000,1015,0.0121,0.0226,-0.0127,-0.0197,0.0107,1.0012,0.0535,0.6703,-0.0510,-0.6728,0.8627,0.2400,0.1321,0.8627,0.2400,0.1321,0.3000,0.0600,0.0002,0,-5.2734,-273.0836,-0.5267,-5.2734,-273.0836,-0.5267,34.6805,39.3182,0.0200,0.2700,0.0000,0.0000,0.0000,0.0000,0.0000,0.0000
29.0258,43.5390,11.8905,-0.0000,-0.0821,0.1200,1.6200,0.6400,0.0000,-0.3094,-0.3617,0.0013,998,1504,1528,1502,2008,1000,1505,1000,1000,1006,1005,1000,1015,0.0408,0.0605,-0.0366,-0.0182,0.0161,1.0015,0.0536,0.6698,-0.0509,-0.6725,0.8627,0.2400,0.1321,0.8627,0.2400,0.1321,0.3000,0.0600,0.0002,0,-5.2734,-273.0836,-0.5267,-5.2734,-273.0836,-0.5267,34.6466,39.2939,0.0200,0.2700,0.0000,0.0000,0.0000,0.0000,0.0000,0.0000
28.9960,43.5122,11.8698,-0.0000,-0.0000,0.1200,1.6200,0.6400,0.0000,-0.3092,-0.3614,0.0011,996,1502,1527,1502,2008,1000,1505,1000,1000,1006,1005,1000,1015,0.0549,0.0307,0.0069,-0.0192,0.0129,1.0008,0.0534,0.6695,-0.0511,-0.6718,0.8627,0.2400,0.1321,0.8627,0.2400,0.1321,0.3000,0.0600,0.0002,0,-5.2734,-273.0836,-0.5267,-5.2734,-273.0836,-0.5267,34.6123,39.2699,0.0200,0.2700,0.0000,0.0000,0.0000,0.0000,0.0000,0.0000
28.9660,43.4849,11.8489,-0.0829,-0.0821,0.1200,1.6200,0.6400,0.0000,-0.3089,-0.3612,0.0014,996,1502,1527,1502,2008,1000,1505,1000,1000,1006,1005,1000,1015,0.0279,0.0166,-0.0448,-0.0190,0.0128,1.0036,0.0537,0.6687,-0.0509,-0.6714,0.8627,0.2400,0.1321,0.8627,0.2400,0.1321,0.3000,0.0600,0.0002,0,-5.2734,-273.0836,-0.5267,-5.2734,-273.0836,-0.5267,34.5784,39.2457,0.0200,0.2700,0.0000,0.0000,0.0000,0.0000,0.0000,0.0000
28.9359,43.4577,11.8281,0.0829,-0.0821,0.1200,1.6200,0.6400,0.0000,-0.3086,-0.3610,0.0013,996,1502,1527,1502,2008,1000,1505,1000,1000,1006,1005,1000,1015,-0.0067,0.0523,-0.0336,-0.0226,0.0141,1.0016,0.0537,0.6683,-0.0511,-0.6709,0.8627,0.2400,0.1321,0.8627,0.2400,0.1321,0.3000,0.0600,0.0002,0,-5.2734,-273.0836,-0.5267,-5.2734,-273.0836,-0.5267,34.5449,39.2216,0.0200,0.2700,0.0000,0.0000,0.0000,0.0000,0.0000,0.0000
28.9059,43.4307,11.8072,-0.1657,-0.1642,0.1200,1.6200,0.6400,0.0000,-0.3084,-0.3607,0.0012,996,1502,1527,1502,2008,1000,1505,1000,1000,1006,1005,1000,1015,0.0389,0.0093,-0.0061,-0.0224,0.0140,1.0021,0.0535,0.6679,-0.0512,-0.6703,0.8627,0.2400,0.1321,0.8627,0.2400,0.1321,0.3000,0.0600,0.0002,0,-5.2734,-273.0836,-0.5267,-5.2734,-273.0836,-0.5267,34.5111,39.1971,0.0200,0.2700,0.0000,0.0000,0.0000,0.0000,0.0000,0.0000
28.8763,43.4033,11.7865,-0.0000,-0.0821,0.1200,1.6200,0.6400,0.0000,-0.3081,-0.3605,0.0012,996,1502,1527,1502,2008,1000,1505,1000,1000,1006,1005,1000,1015,0.0162,-0.0050,0.0119,-0.0221,0.0164,1.0003,0.0535,0.6674,-0.0512,-0.6697,0.8627,0.2400,0.1321,0.8627,0.2400,0.1321,0.3000,0.0600,0.0002,0,-5.2734,-273.0836,-0.5267,-5.2734,-273.0836,-0.5267,34.4770,39.1733,0.0200,0.2700,0.0000,0.0000,0.0000,0.0000,0.0000,0.0000
28.8471,43.3758,11.7664,-0.0829,-0.1642,0.1200,1.6200,0.6400,0.0000,-0.3079,-0.3603,0.0010,998,1504,1528,1502,2008,1000,1505,1000,1000,1006,1005,1000,1014,0.0653,0.0307,0.0779,-0.0198,0.0133,1.0033,0.0533,0.6672,-0.0514,-0.6691,0.8627,0.2400,0.1321,0.8627,0.2400,0.1321,0.3000,0.0600,0.0002,0,-5.2734,-273.0836,-0.5267,-5.2734,-273.0836,-0.5267,34.4434,39.1486,0.0200,0.2700,0.0000,0.0000,0.0000,0.0000,0.0000,0.0000
28.8179,43.3483,11.7463,-0.0000,-0.1642,0.1200,1.6200,0.6400,0.0000,-0.3077,-0.3600,0.0012,996,1502,1527,1502,2008,1000,1505,1000,1000,1006,1005,1000,1014,0.0830,-0.0039,0.0006,-0.0200,0.0150,1.0002,0.0535,0.6664,-0.0511,-0.6689,0.8627,0.2400,0.1321,0.8627,0.2400,0.1321,0.3000,0.0600,0.0002,0,-5.2582,-272.2996,-0.5252,-5.2582,-272.2996,-0.5252,34.4096,39.1240,0.0200,0.2700,0.0000,0.0000,0.0000,0.0000,0.0000,0.0000
28.7885,43.3206,11.7263,-0.0000,-0.1642,0.1200,1.6200,0.6400,0.0000,-0.3074,-0.3598,0.0011,996,1502,1527,1502,2008,1000,1505,1000,1000,1006,1005,1000,1015,0.0352,0.0065,0.0502,-0.0223,0.0135,1.0022,0.0535,0.6660,-0.0513,-0.6682,0.8627,0.2400,0.1321,0.8627,0.2400,0.1321,0.3000,0.0600,0.0002,0,-5.2734,-273.0836,-0.5267,-5.2734,-273.0836,-0.5267,34.3759,39.0996,0.0200,0.2700,0.0000,0.0000,0.0000,0.0000,0.0000,0.0000
28.7595,43.2927,11.7067,-0.0000,-0.0000,0.1200,1.6200,0.6400,0.0000,-0.3071,-0.3595,0.0009,996,1502,1527,1502,2008,1000,1505,1000,1000,1006,1005,1000,1015,0.0328,-0.0041,0.1000,-0.0195,0.0118,1.0060,0.0533,0.6657,-0.0515,-0.6675,0.8627,0.2400,0.1321,0.8627,0.2400,0.1321,0.3000,0.0600,0.0002,0,-5.2734,-273.0836,-0.5267,-5.2734,-273.0836,-0.5267,34.3419,39.0751,0.0200,0.2700,0.0000,0.0000,0.0000,0.0000,0.0000,0.0000
28.7302,43.2651,11.6867,-0.0829,-0.1642,0.1200,1.6200,0.6400,0.0000,-0.3068,-0.3593,0.0011,996,1502,1527,1502,2008,1000,1505,1000,1000,1006,1005,1000,1015,0.0008,0.0294,0.0278,-0.0188,0.0126,1.0039,0.0536,0.6650,-0.0514,-0.6673,0.8627,0.2400,0.1321,0.8627,0.2400,0.1321,0.3000,0.0600,0.0002,0,-5.2734,-273.0836,-0.5267,-5.2734,-273.0836,-0.5267,34.3082,39.0503,0.0200,0.2700,0.0000,0.0000,0.0000,0.0000,0.0000,0.0000
28.7003,43.2378,11.6660,0.0829,-0.0821,0.1200,1.6200,0.6400,0.0000,-0.3066,-0.3590,0.0015,996,1502,1527,1502,2008,1000,1505,1000,1000,1006,1005,1000,1015,0.0427,-0.0180,-0.0658,-0.0190,0.0140,1.0059,0.0539,0.6642,-0.0509,-0.6671,0.8627,0.2400,0.1321,0.8627,0.2400,0.1321,0.3000,0.0600,0.0002,0,-5.2734,-273.0836,-0.5267,-5.2734,-273.0836,-0.5267,34.2743,39.0252,0.0200,0.2700,0.0000,0.0000,0.0000,0.0000,0.0000,0.0000
28.6706,43.2104,11.6455,0.0829,-0.0821,0.1200,1.6200,0.6400,0.0000,-0.3064,-0.3589,0.0012,998,1504,1528,1504,2008,1000,1505,1000,1000,1006,1005,1000,1015,0.0417,0.0402,0.0159,-0.0222,0.0164,1.0004,0.0537,0.6640,-0.0513,-0.6664,0.8627,0.2400,0.1321,0.8627,0.2400,0.1321,0.3000,0.0600,0.0002,0,-5.2734,-273.0836,-0.5267,-5.2734,-273.0836,-0.5267,34.2407,39.0002,0.0200,0.2700,0.0000,0.0000,0.0000,0.0000,0.0000,0.0000
28.6413,43.1832,11.6251,-0.0000,-0.0821,0.1200,1.6200,0.6400,0.0000,-0.3062,-0.3586,0.0003,996,1502,1527,1502,2008,1000,1505,1000,1000,1006,1005,1000,1015,0.0805,0.0593,-0.0023,-0.0184,0.0121,1.0047,0.0528,0.6645,-0.0522,-0.6651,0.8627,0.2400,0.1321,0.8627,0.2400,0.1321,0.3000,0.0600,0.0002,0,-5.2734,-273.0836,-0.5267,-5.2734,-273.0836,-0.5267,34.2072,38.9752,0.0200,0.2700,0.0000,0.0000,0.0000,0.0000,0.0000,0.0000
28.6122,43.1557,11.6049,-0.0000,-0.0000,0.1200,1.6200,0.6400,0.0000,-0.3059,-0.3583,0.0014,996,1502,1527,1502,2008,1000,1505,1000,1000,1006,1005,1000,1015,0.0397,-0.0320,-0.0476,-0.0181,0.0126,1.0009,0.0539,0.6627,-0.0510,-0.6656,0.8627,0.2400,0.1321,0.8627,0.2400,0.1321,0.3000,0.0600,0.0002,0,-5.2734,-273.0836,-0.5267,-5.2734,-273.0836,-0.5267,34.1734,38.9499,0.0200,0.2700,0.0000,0.0000,0.0000,0.0000,0.0000,0.0000
28.5822,43.1282,11.5839,0.0829,-0.0821,0.1200,1.6200,0.6400,0.0000,-0.3056,-0.3581,0.0013,996,1502,1527,1502,2008,1000,1505,1000,1000,1006,1005,1000,1015,0.0391,-0.0186,-0.0229,-0.0180,0.0121,0.9990,0.0538,0.6623,-0.0512,-0.6650,0.8627,0.2400,0.1321,0.8627,0.2400,0.1321,0.3000,0.0600,0.0002,0,-5.2734,-273.0836,-0.5267,-5.2734,-273.0836,-0.5267,34.1397,38.9254,0.0200,0.2700,0.0000,0.0000,0.0000,0.0000,0.0000,0.0000
28.5521,43.1009,11.5628,-0.0000,-0.0821,0.1200,1.6200,0.6400,0.0000,-0.3053,-0.3580,0.0015,996,1502,1527,1502,2008,1000,1505,1000,1000,1006,1005,1000,1015,-0.0073,0.0773,-0.0769,-0.0171,0.0132,1.0036,0.0542,0.6618,-0.0512,-0.6647,0.8627,0.2400,0.1321,0.8627,0.2400,0.1321,0.3000,0.0600,0.0002,0,-5.2734,-273.0836,-0.5267,-5.2734,-273.0836,-0.5267,34.1059,38.9009,0.0200,0.2700,0.0000,0.0000,0.0000,0.0000,0.0000,0.0000
28.5225,43.0736,11.5424,0.0829,-0.0821,0.1200,1.6200,0.6400,0.0000,-0.3051,-0.3576,0.0014,996,1502,1527,1502,2008,1000,1505,1000,1000,1006,1005,1000,1015,0.0491,0.0026,-0.0280,-0.0196,0.0143,1.0002,0.0539,0.6614,-0.0512,-0.6641,0.8627,0.2400,0.1321,0.8627,0.2400,0.1321,0.3000,0.0600,0.0002,0,-5.2734,-273.0836,-0.5267,-5.2734,-273.0836,-0.5267,34.0723,38.8761,0.0200,0.2700,0.0000,0.0000,0.0000,0.0000,0.0000,0.0000
28.4929,43.0466,11.5222,0.0829,-0.0000,0.1200,1.6200,0.6400,0.0000,-0.3047,-0.3575,0.0014,998,1504,1528,1504,2008,1000,1505,1000,1000,1006,1005,1000,1014,-0.0242,0.1044,-0.0459,-0.0196,0.0138,1.0007,0.0542,0.6608,-0.0514,-0.6637,0.8627,0.2400,0.1321,0.8627,0.2400,0.1321,0.3000,0.0600,0.0002,0,-5.2734,-273.0836,-0.5267,-5.2734,-273.0836,-0.5267,34.0380,38.8513,0.0200,0.2700,0.0000,0.0000,0.0000,0.0000,0.0000,0.0000
28.4638,43.0199,11.5023,-0.0000,-0.0821,0.1200,1.6200,0.6400,0.0000,-0.3046,-0.3572,0.0003,996,1502,1527,1502,2008,1000,1505,1000,1000,1006,1005,1000,1014,0.0386,0.0406,-0.0022,-0.0207,0.0153,1.0046,0.0529,0.6615,-0.0524,-0.6621,0.8627,0.2400,0.1321,0.8627,0.2400,0.1321,0.3000,0.0600,0.0002,0,-5.2582,-272.2996,-0.5252,-5.2582,-272.2996,-0.5252,34.0047,38.8270,0.0200,0.2700,0.0000,0.0000,0.0000,0.0000,0.0000,0.0000
28.4341,42.9927,11.4818,0.0829,-0.0821,0.1200,1.6200,0.6400,0.0000,-0.3043,-0.3570,0.0015,996,1502,1527,1502,2008,1000,1505,1000,1000,1006,1005,1000,1015,0.0423,0.0379,-0.0520,-0.0220,0.0135,1.0037,0.0541,0.6598,-0.0512,-0.6628,0.8627,0.2400,0.1321,0.8627,0.2400,0.1321,0.3000,0.0600,0.0002,0,-5.2734,-273.0836,-0.5267,-5.2734,-273.0836,-0.5267,33.9704,38.8027,0.0200,0.2700,0.0000,0.0000,0.0000,0.0000,0.0000,0.0000
28.4045,42.9653,11.4613,-0.0829,-0.0821,0.1200,1.6200,0.6400,0.0000,-0.3040,-0.3567,0.0012,996,1502,1527,1502,2008,1000,1505,1000,1000,1006,1005,1000,1015,0.0199,-0.0001,0.0216,-0.0189,0.0132,1.0019,0.0538,0.6595,-0.0515,-0.6619,0.8627,0.2400,0.1321,0.8627,0.2400,0.1321,0.3000,0.0600,0.0002,0,-5.2734,-273.0836,-0.5267,-5.2734,-273.0836,-0.5267,33.9360,38.7776,0.0200,0.2700,0.0000,0.0000,0.0000,0.0000,0.0000,0.0000
28.3753,42.9376,11.4411,-0.0000,-0.1642,0.1200,1.6200,0.6400,0.0000,-0.3038,-0.3565,0.0014,996,1502,1527,1502,2008,1000,1505,1000,1000,1006,1005,1000,1015,0.0020,0.0221,-0.0365,-0.0200,0.0136,1.0015,0.0541,0.6588,-0.0513,-0.6616,0.8627,0.2400,0.1321,0.8627,0.2400,0.1321,0.3000,0.0600,0.0002,0,-5.2734,-273.0836,-0.5267,-5.2734,-273.0836,-0.5267,33.9023,38.7533,0.0200,0.2700,0.0000,0.0000,0.0000,0.0000,0.0000,0.0000
28.3456,42.9100,11.4206,-0.1657,-0.1642,0.1200,1.6200,0.6400,0.0000,-0.3035,-0.3563,0.0013,996,1502,1527,1502,2008,1000,1505,1000,1000,1006,1005,1000,1015,0.0257,0.0475,-0.0115,-0.0215,0.0115,0.9966,0.0540,0.6585,-0.0514,-0.6611,0.8627,0.2400,0.1321,0.8627,0.2400,0.1321,0.3000,0.0600,0.0002,0,-5.2734,-273.0836,-0.5267,-5.2734,-273.0836,-0.5267,33.8685,38.7292,0.0200,0.2700,0.0000,0.0000,0.0000,0.0000,0.0000,0.0000
28.3166,42.8823,11.4005,0.0829,-0.0821,0.1200,1.6200,0.6400,0.0000,-0.3033,-0.3560,0.0012,998,1504,1528,1504,2008,1000,1505,1000,1000,1006,1005,1000,1015,0.0679,0.0264,0.0239,-0.0233,0.0135,1.0013,0.0539,0.6581,-0.0514,-0.6606,0.8627,0.2400,0.1321,0.8627,0.2400,0.1321,0.3000,0.0600,0.0002,0,-5.2734,-273.0836,-0.5267,-5.2734,-273.0836,-0.5267,33.8354,38.7047,0.0200,0.2700,0.0000,0.0000,0.0000,0.0000,0.0000,0.0000
28.2873,42.8547,11.3801,-0.0829,-0.1642,0.1200,1.6200,0.6400,0.0000,-0.3030,-0.3557,0.0003,996,1502,1527,1502,2008,1000,1505,1000,1000,1006,1005,1000,1015,0.0343,0.0024,0.0102,-0.0231,0.0137,1.0011,0.0530,0.6585,-0.0524,-0.6591,0.8627,0.2400,0.1321,0.8627,0.2400,0.1321,0.3000,0.0600,0.0002,0,-5.2734,-273.0836,-0.5267,-5.2734,-273.0836,-0.5267,33.8020,38.6797,0.0200,0.2700,0.0000,0.0000,0.0000,0.0000,0.0000,0.0000
28.2574,42.8269,11.3596,0.0829,-0.1642,0.1200,1.6200,0.6400,0.0000,-0.3028,-0.3555,0.0014,996,1502,1527,1502,2008,1000,1505,1000,1000,1006,1005,1000,1015,0.0066,0.0262,-0.0297,-0.0184,0.0130,1.0023,0.0542,0.6569,-0.0514,-0.6597,0.8627,0.2400,0.1321,0.8627,0.2400,0.1321,0.3000,0.0600,0.0002,0,-5.2734,-273.0836,-0.5267,-5.2734,-273.0836,-0.5267,33.7690,38.6552,0.0200,0.2700,0.0000,0.0000,0.0000,0.0000,0.0000,0.0000
28.2284,42.7993,11.3398,-0.0829,-0.1642,0.1200,1.6200,0.6400,0.0000,-0.3026,-0.3553,0.0013,996,1502,1527,1502,2008,1000,1505,1000,1000,1006,1005,1000,1015,0.0511,0.0461,0.0151,-0.0190,0.0146,1.0002,0.0540,0.6566,-0.0515,-0.6592,0.8627,0.2400,0.1321,0.8627,0.2400,0.1321,0.3000,0.0600,0.0002,0,-5.2734,-273.0836,-0.5267,-5.2734,-273.0836,-0.5267,33.7363,38.6302,0.0200,0.2700,0.0000,0.0000,0.0000,0.0000,0.0000,0.0000
28.1990,42.7713,11.3197,-0.0000,-0.0821,0.1200,1.6200,0.6400,0.0000,-0.3022,-0.3550,0.0011,996,1502,1527,1502,2008,1000,1505,1000,1000,1006,1005,1000,1015,-0.0131,-0.0137,0.0617,-0.0178,0.0150,0.9994,0.0539,0.6561,-0.0517,-0.6583,0.8627,0.2400,0.1321,0.8627,0.2400,0.1321,0.3000,0.0600,0.0002,0,-5.2734,-273.0836,-0.5267,-5.2734,-273.0836,-0.5267,33.7032,38.6053,0.0200,0.2700,0.0000,0.0000,0.0000,0.0000,0.0000,0.0000
28.1698,42.7433,11.3001,-0.0000,-0.0821,0.1200,1.6200,0.6400,0.0000,-0.3020,-0.3548,0.0013,996,1502,1527,1502,2008,1000,1505,1000,1000,1006,1005,1000,1015,0.0354,-0.0079,0.0123,-0.0212,0.0160,0.9995,0.0540,0.6555,-0.0515,-0.6581,0.8627,0.2400,0.1321,0.8627,0.2400,0.1321,0.3000,0.0600,0.0002,0,-5.2734,-273.0836,-0.5267,-5.2734,-273.0836,-0.5267,33.6696,38.5800,0.0200,0.2700,0.0000,0.0000,0.0000,0.0000,0.0000,0.0000
28.1402,42.7155,11.2798,-0.0000,-0.0821,0.1200,1.6200,0.6400,0.0000,-0.3017,-0.3546,0.0013,998,1504,1528,1502,2008,1000,1505,1000,1000,1006,1005,1000,1015,0.0067,0.0287,-0.0019,-0.0204,0.0134,1.0078,0.0541,0.6550,-0.0515,-0.6576,0.8627,0.2400,0.1321,0.8627,0.2400,0.1321,0.3000,0.0600,0.0002,0,-5.2734,-273.0836,-0.5267,-5.2734,-273.0836,-0.5267,33.6358,38.5554,0.0200,0.2700,0.0000,0.0000,0.0000,0.0000,0.0000,0.0000
28.1104,42.6878,11.2597,0.0829,-0.0821,0.1200,1.6200,0.6400,0.0000,-0.3015,-0.3543,0.0014,996,1502,1527,1502,2008,1000,1505,1000,1000,1006,1005,1000,1015,0.0086,-0.0013,-0.0292,-0.0207,0.0150,0.9994,0.0542,0.6543,-0.0514,-0.6572,0.8627,0.2400,0.1321,0.8627,0.2400,0.1321,0.3000,0.0600,0.0002,0,-5.2734,-273.0836,-0.5267,-5.2734,-273.0836,-0.5267,33.6026,38.5304,0.0200,0.2700,0.0000,0.0000,0.0000,0.0000,0.0000,0.0000
28.0811,42.6599,11.2400,0.0829,-0.0821,0.1200,1.6200,0.6400,0.0000,-0.3013,-0.3541,0.0013,996,1502,1527,1502,2008,1000,1505,1000,1000,1006,1005,1000,1014,0.0409,0.0247,0.0455,-0.0193,0.0135,1.0046,0.0541,0.6541,-0.0516,-0.6566,0.8627,0.2400,0.1321,0.8627,0.2400,0.1321,0.3000,0.0600,0.0002,0,-5.2582,-272.2996,-0.5252,-5.2582,-272.2996,-0.5252,33.5692,38.5060,0.0200,0.2700,0.0000,0.0000,0.0000,0.0000,0.0000,0.0000
28.0516,42.6317,11.2196,-0.0000,-0.0821,0.1200,1.6200,0.6400,0.0000,-0.3010,-0.3537,0.0013,996,1502,1527,1502,2008,1000,1505,1000,1000,1006,1005,1000,1014,0.0387,-0.0493,-0.0089,-0.0171,0.0123,1.0016,0.0540,0.6534,-0.0514,-0.6561,0.8627,0.2400,0.1321,0.8627,0.2400,0.1321,0.3000,0.0600,0.0002,0,-5.2582,-272.2996,-0.5252,-5.2582,-272.2996,-0.5252,33.5355,38.4813,0.0200,0.2700,0.0000,0.0000,0.0000,0.0000,0.0000,0.0000
28.0229,42.6036,11.1999,-0.0000,-0.0821,0.1200,1.6200,0.6400,0.0000,-0.3008,-0.3537,0.0012,996,1502,1527,1502,2008,1000,1505,1000,1000,1006,1005,1000,1015,0.0723,0.0839,0.0481,-0.0197,0.0135,1.0048,0.0540,0.6533,-0.0517,-0.6557,0.8627,0.2400,0.1321,0.8627,0.2400,0.1321,0.3000,0.0600,0.0002,0,-5.2734,-273.0836,-0.5267,-5.2734,-273.0836,-0.5267,33.5015,38.4566,0.0200,0.2700,0.0000,0.0000,0.0000,0.0000,0.0000,0.0000
27.9934,42.5753,11.1797,0.0829,-0.1642,0.1200,1.6200,0.6400,0.0000,-0.3004,-0.3532,0.0013,996,1502,1527,1502,2008,1000,1505,1000,1000,1006,1005,1000,1015,-0.0322,-0.0728,-0.0128,-0.0198,0.0145,1.0031,0.0541,0.6523,-0.0515,-0.6550,0.8627,0.2400,0.1321,0.8627,0.2400,0.1321,0.3000,0.0600,0.0002,0,-5.2734,-273.0836,-0.5267,-5.2734,-273.0836,-0.5267,33.4672,38.4319,0.0200,0.2700,0.0000,0.0000,0.0000,0.0000,0.0000,0.0000
27.9634,42.5472,11.1592,0.0829,-0.0821,0.1200,1.6200,0.6400,0.0000,-0.3002,-0.3532,0.0015,998,1504,1528,1504,2008,1000,1505,1000,1000,1006,1005,1000,1015,0.0199,0.0700,-0.0464,-0.0211,0.0141,1.0024,0.0544,0.6519,-0.0515,-0.6549,0.8627,0.2400,0.1321,0.8627,0.2400,0.1321,0.3000,0.0600,0.0002,0,-5.2734,-273.0836,-0.5267,-5.2734,-273.0836,-0.5267,33.4331,38.4073,0.0200,0.2700,0.0000,0.0000,0.0000,0.0000,0.0000,0.0000
27.9344,42.5192,11.1393,0.0829,-0.0821,0.1200,1.6200,0.6400,0.0000,-0.2999,-0.3528,0.0005,996,1502,1527,1502,2008,1000,1505,1000,1000,1006,1005,1000,1015,-0.0125,-0.0286,-0.0215,-0.0233,0.0154,1.0036,0.0533,0.6523,-0.0524,-0.6532,0.8627,0.2400,0.1321,0.8627,0.2400,0.1321,0.3000,0.0600,0.0002,0,-5.2734,-273.0836,-0.5267,-5.2734,-273.0836,-0.5267,33.3996,38.3825,0.0200,0.2700,0.0000,0.0000,0.0000,0.0000,0.0000,0.0000
27.9045,42.4914,11.1188,0.0829,-0.0000,0.1200,1.6200,0.6400,0.0000,-0.2997,-0.3526,0.0015,996,1502,1527,1502,2008,1000,1505,1000,1000,1006,1005,1000,1015,0.0392,-0.0096,-0.0377,-0.0206,0.0128,1.0062,0.0543,0.6509,-0.0514,-0.6538,0.8627,0.2400,0.1321,0.8627,0.2400,0.1321,0.3000,0.0600,0.0002,0,-5.2734,-273.0836,-0.5267,-5.2734,-273.0836,-0.5267,33.3661,38.3579,0.0200,0.2700,0.0000,0.0000,0.0000,0.0000,0.0000,0.0000
27.8753,42.4637,11.0985,-0.0000,-0.0821,0.1200,1.6200,0.6400,0.0000,-0.2995,-0.3524,0.0015,996,1502,1527,1502,2008,1000,1505,1000,1000,1006,1005,1000,1015,0.0240,-0.0039,-0.0540,-0.0206,0.0145,1.0039,0.0544,0.6503,-0.0514,-0.6533,0.8627,0.2400,0.1321,0.8627,0.2400,0.1321,0.3000,0.0600,0.0002,0,-5.2734,-273.0836,-0.5267,-5.2734,-273.0836,-0.5267,33.3329,38.3331,0.0200,0.2700,0.0000,0.0000,0.0000,0.0000,0.0000,0.0000
27.8459,42.4354,11.0787,-0.0000,-0.0000,0.1200,1.6200,0.6400,0.0000,-0.2992,-0.3520,0.0013,996,1502,1527,1502,2008,1000,1505,1000,1000,1006,1005,1000,1015,0.0179,-0.0550,0.0353,-0.0192,0.0132,1.0036,0.0541,0.6500,-0.0516,-0.6525,0.8627,0.2400,0.1321,0.8627,0.2400,0.1321,0.3000,0.0600,0.0002,0,-5.2734,-273.0836,-0.5267,-5.2734,-273.0836,-0.5267,33.2988,38.3082,0.0200,0.2700,0.0000,0.0000,0.0000,0.0000,0.0000,0.0000
27.8165,42.4072,11.0590,0.0829,-0.0821,0.1200,1.6200,0.6400,0.0000,-0.2990,-0.3519,0.0016,996,1502,1527,1502,2008,1000,1505,1000,1000,1006,1005,1000,1015,0.0597,-0.0064,-0.0625,-0.0187,0.0133,1.0005,0.0544,0.6493,-0.0513,-0.6524,0.8627,0.2400,0.1321,0.8627,0.2400,0.1321,0.3000,0.0600,0.0002,0,-5.2734,-273.0836,-0.5267,-5.2734,-273.0836,-0.5267,33.2644,38.2840,0.0200,0.2700,0.0000,0.0000,0.0000,0.0000,0.0000,0.0000
27.7872,42.3795,11.0382,-0.0829,-0.0821,0.1200,1.6200,0.6400,0.0000,-0.2988,-0.3516,0.0015,998,1504,1528,1504,2008,1000,1505,1000,1000,1006,1005,1000,1015,0.0977,-0.0003,-0.0444,-0.0213,0.0131,0.9991,0.0543,0.6490,-0.0513,-0.6519,0.8627,0.2400,0.1321,0.8627,0.2400,0.1321,0.3000,0.0600,0.0002,0,-5.2734,-273.0836,-0.5267,-5.2734,-273.0836,-0.5267,33.2303,38.2589,0.0200,0.2700,0.0000,0.0000,0.0000,0.0000,0.0000,0.0000
27.7579,42.3514,11.0181,-0.0000,-0.1642,0.1200,1.6200,0.6400,0.0000,-0.2985,-0.3514,0.0013,996,1502,1527,1502,2008,1000,1505,1000,1000,1006,1005,1000,1015,0.0463,0.0056,0.0058,-0.0233,0.0150,1.0024,0.0542,0.6486,-0.0516,-0.6512,0.8627,0.2400,0.1321,0.8627,0.2400,0.1321,0.3000,0.0600,0.0002,0,-5.2734,-273.0836,-0.5267,-5.2734,-273.0836,-0.5267,33.1964,38.2335,0.0200,0.2700,0.0000,0.0000,0.0000,0.0000,0.0000,0.0000
27.7288,42.3232,10.9984,-0.0829,-0.1642,0.1200,1.6200,0.6400,0.0000,-0.2982,-0.3512,0.0013,996,1502,1527,1502,2008,1000,1505,1000,1000,1006,1005,1000,1015,-0.0049,0.0582,0.0347,-0.0220,0.0145,1.0019,0.0543,0.6481,-0.0518,-0.6507,0.8627,0.2400,0.1321,0.8627,0.2400,0.1321,0.3000,0.0600,0.0002,0,-5.2734,-273.0836,-0.5267,-5.2734,-273.0836,-0.5267,33.1632,38.2080,0.0200,0.2700,0.0000,0.0000,0.0000,0.0000,0.0000,0.0000
27.6996,42.2952,10.9790,0.0829,-0.0000,0.1200,1.6200,0.6400,0.0000,-0.2979,-0.3509,0.0013,996,1502,1527,1502,2008,1000,1505,1000,1000,1006,1005,1000,1015,-0.0123,0.0271,0.0254,-0.0205,0.0143,0.9981,0.0543,0.6476,-0.0517,-0.6501,0.8627,0.2400,0.1321,0.8627,0.2400,0.1321,0.3000,0.0600,0.0002,0,-5.2734,-273.0836,-0.5267,-5.2734,-273.0836,-0.5267,33.1295,38.1833,0.0200,0.2700,0.0000,0.0000,0.0000,0.0000,0.0000,0.0000
27.6706,42.2669,10.9595,-0.0829,-0.2462,0.1200,1.6200,0.6400,0.0000,-0.2977,-0.3507,0.0013,996,1502,1527,1502,2008,1000,1505,1000,1000,1006,1005,1000,1014,-0.0053,0.0580,0.0080,-0.0198,0.0128,1.0042,0.0544,0.6471,-0.0517,-0.6497,0.8627,0.2400,0.1321,0.8627,0.2400,0.1321,0.3000,0.0600,0.0002,0,-5.2582,-272.2996,-0.5252,-5.2582,-272.2996,-0.5252,33.0965,38.1583,0.0200,0.2700,0.0000,0.0000,0.0000,0.0000,0.0000,0.0000
27.6414,42.2389,10.9397,-0.0000,-0.0821,0.1200,1.6200,0.6400,0.0000,-0.2974,-0.3504,0.0015,996,1502,1527,1502,2008,1000,1505,1000,1000,1006,1005,1000,1014,0.0061,-0.0290,-0.0452,-0.0199,0.0133,1.0026,0.0544,0.6463,-0.0515,-0.6493,0.8627,0.2400,0.1321,0.8627,0.2400,0.1321,0.3000,0.0600,0.0002,0,-5.2582,-272.2996,-0.5252,-5.2582,-272.2996,-0.5252,33.0637,38.1333,0.0200,0.2700,0.0000,0.0000,0.0000,0.0000,0.0000,0.0000
27.6125,42.2102,10.9203,-0.0829,-0.1642,0.1200,1.6200,0.6400,0.0000,-0.2972,-0.3502,0.0012,998,1504,1528,1504,2008,1000,1505,1000,1000,1006,1005,1000,1015,0.0515,0.0248,0.0780,-0.0224,0.0129,1.0043,0.0542,0.6462,-0.0518,-0.6487,0.8627,0.2400,0.1321,0.8627,0.2400,0.1321,0.3000,0.0600,0.0002,0,-5.2734,-273.0836,-0.5267,-5.2734,-273.0836,-0.5267,33.0308,38.1082,0.0200,0.2700,0.0000,0.0000,0.0000,0.0000,0.0000,0.0000
27.5839,42.1820,10.9013,0.0829,-0.0821,0.1200,1.6200,0.6400,0.0000,-0.2970,-0.3500,0.0004,996,1502,1527,1502,2008,1000,1505,1000,1000,1006,1005,1000,1014,0.0455,0.0251,0.0218,-0.0222,0.0131,1.0002,0.0534,0.6466,-0.0526,-0.6473,0.8627,0.2400,0.1321,0.8627,0.2400,0.1321,0.3000,0.0600,0.0002,0,-5.2582,-272.2996,-0.5252,-5.2582,-272.2996,-0.5252,32.9976,38.0834,0.0200,0.2700,0.0000,0.0000,0.0000,0.0000,0.0000,0.0000
27.5552,42.1537,10.8818,0.0829,-0.1642,0.1200,1.6200,0.6400,0.0000,-0.2967,-0.3496,0.0013,996,1502,1527,1502,2008,1000,1505,1000,1000,1006,1005,1000,1014,0.0062,-0.0334,0.0395,-0.0213,0.0138,0.9976,0.0542,0.6450,-0.0517,-0.6476,0.8627,0.2400,0.1321,0.8627,0.2400,0.1321,0.3000,0.0600,0.0002,0,-5.2582,-272.2996,-0.5252,-5.2582,-272.2996,-0.5252,32.9646,38.0586,0.0200,0.2700,0.0000,0.0000,0.0000,0.0000,0.0000,0.0000
27.5260,42.1251,10.8620,-0.0000,-0.0821,0.1200,1.6200,0.6400,0.0000,-0.2965,-0.3495,0.0014,996,1502,1527,1502,2008,1000,1505,1000,1000,1006,1005,1000,1015,0.0362,0.0780,0.0161,-0.0206,0.0110,1.0005,0.0544,0.6446,-0.0517,-0.6474,0.8627,0.2400,0.1321,0.8627,0.2400,0.1321,0.3000,0.0600,0.0002,0,-5.2734,-273.0836,-0.5267,-5.2734,-273.0836,-0.5267,32.9307,38.0340,0.0200,0.2700,0.0000,0.0000,0.0000,0.0000,0.0000,0.0000
27.4967,42.0966,10.8419,-0.0000,-0.0821,0.1200,1.6200,0.6400,0.0000,-0.2962,-0.3491,0.0015,996,1502,1527,1502,2008,1000,1505,1000,1000,1006,1005,1000,1015,0.0145,-0.0398,-0.0330,-0.0216,0.0120,1.0012,0.0544,0.6438,-0.0514,-0.6468,0.8627,0.2400,0.1321,0.8627,0.2400,0.1321,0.3000,0.0600,0.0002,0,-5.2734,-273.0836,-0.5267,-5.2734,-273.0836,-0.5267,32.8977,38.0088,0.0200,0.2700,0.0000,0.0000,0.0000,0.0000,0.0000,0.0000
27.4678,42.0681,10.8224,0.0829,-0.0821,0.1200,1.6200,0.6400,0.0000,-0.2960,-0.3489,0.0014,996,1502,1527,1502,2008,1000,1505,1000,1000,1006,1005,1000,1015,0.0427,-0.0539,0.0034,-0.0197,0.0133,1.0018,0.0543,0.6435,-0.0515,-0.6462,0.8627,0.2400,0.1321,0.8627,0.2400,0.1321,0.3000,0.0600,0.0002,0,-5.2734,-273.0836,-0.5267,-5.2734,-273.0836,-0.5267,32.8638,37.9837,0.0200,0.2700,0.0000,0.0000,0.0000,0.0000,0.0000,0.0000
27.4392,42.0400,10.8029,-0.0000,-0.0821,0.1200,1.6200,0.6400,0.0000,-0.2958,-0.3488,0.0014,998,1504,1528,1502,2008,1000,1505,1000,1000,1006,1005,1000,1015,0.0969,0.0807,-0.0045,-0.0202,0.0130,1.0008,0.0544,0.6432,-0.0516,-0.6460,0.8627,0.2400,0.1321,0.8627,0.2400,0.1321,0.3000,0.0600,0.0002,0,-5.2734,-273.0836,-0.5267,-5.2734,-273.0836,-0.5267,32.8303,37.9582,0.0200,0.2700,0.0000,0.0000,0.0000,0.0000,0.0000,0.0000
27.4100,42.0121,10.7835,-0.0000,-0.0821,0.1200,1.6200,0.6400,0.0000,-0.2954,-0.3485,0.0005,996,1502,1527,1502,2008,1000,1505,1000,1000,1006,1005,1000,1015,-0.0078,0.0554,-0.0370,-0.0219,0.0134,1.0031,0.0537,0.6434,-0.0526,-0.6445,0.8627,0.2400,0.1321,0.8627,0.2400,0.1321,0.3000,0.0600,0.0002,0,-5.2734,-273.0836,-0.5267,-5.2734,-273.0836,-0.5267,32.7967,37.9328,0.0200,0.2700,0.0000,0.0000,0.0000,0.0000,0.0000,0.0000
27.3804,41.9843,10.7636,0.0829,-0.0000,0.1200,1.6200,0.6400,0.0000,-0.2952,-0.3483,0.0015,996,1502,1527,1502,2008,1000,1505,1000,1000,1006,1005,1000,1015,0.0288,0.0488,-0.0372,-0.0207,0.0134,0.9964,0.0546,0.6420,-0.0515,-0.6450,0.8627,0.2400,0.1321,0.8627,0.2400,0.1321,0.3000,0.0600,0.0002,0,-5.2734,-273.0836,-0.5267,-5.2734,-273.0836,-0.5267,32.7624,37.9068,0.0200,0.2700,0.0000,0.0000,0.0000,0.0000,0.0000,0.0000
27.3507,41.9565,10.7429,0.0829,-0.0000,0.1200,1.6200,0.6400,0.0000,-0.2950,-0.3480,0.0015,996,1502,1527,1502,2008,1000,1505,1000,1000,1006,1005,1000,1015,0.0401,0.0463,-0.0286,-0.0212,0.0126,1.0017,0.0545,0.6415,-0.0516,-0.6445,0.8627,0.2400,0.1321,0.8627,0.2400,0.1321,0.3000,0.0600,0.0002,0,-5.2734,-273.0836,-0.5267,-5.2734,-273.0836,-0.5267,32.7293,37.8815,0.0200,0.2700,0.0000,0.0000,0.0000,0.0000,0.0000,0.0000
27.3219,41.9285,10.7237,-0.0000,-0.0821,0.1200,1.6200,0.6400,0.0000,-0.2947,-0.3478,0.0013,996,1502,1527,1502,2008,1000,1505,1000,1000,1006,1005,1000,1015,0.0199,0.0743,0.0304,-0.0206,0.0126,1.0014,0.0545,0.6412,-0.0518,-0.6439,0.8627,0.2400,0.1321,0.8627,0.2400,0.1321,0.3000,0.0600,0.0002,0,-5.2734,-273.0836,-0.5267,-5.2734,-273.0836,-0.5267,32.6959,37.8555,0.0200,0.2700,0.0000,0.0000,0.0000,0.0000,0.0000,0.0000
27.2930,41.9005,10.7044,-0.0000,-0.1642,0.1200,1.6200,0.6400,0.0000,-0.2945,-0.3475,0.0013,996,1502,1527,1502,2008,1000,1505,1000,1000,1006,1005,1000,1015,0.0335,0.0178,0.0291,-0.0217,0.0131,1.0015,0.0544,0.6407,-0.0518,-0.6433,0.8627,0.2400,0.1321,0.8627,0.2400,0.1321,0.3000,0.0600,0.0002,0,-5.2734,-273.0836,-0.5267,-5.2734,-273.0836,-0.5267,32.6627,37.8301,0.0200,0.2700,0.0000,0.0000,0.0000,0.0000,0.0000,0.0000
27.2643,41.8725,10.6852,-0.0000,-0.0821,0.1200,1.6200,0.6400,0.0000,-0.2943,-0.3474,0.0014,998,1504,1528,1502,2008,1000,1505,1000,1000,1006,1005,1000,1015,0.0626,0.0765,0.0268,-0.0179,0.0106,1.0000,0.0545,0.6402,-0.0517,-0.6430,0.8627,0.2400,0.1321,0.8627,0.2400,0.1321,0.3000,0.0600,0.0002,0,-5.2734,-273.0836,-0.5267,-5.2734,-273.0836,-0.5267,32.6293,37.8044,0.0200,0.2700,0.0000,0.0000,0.0000,0.0000,0.0000,0.0000
27.2354,41.8445,10.6657,-0.0829,-0.0821,0.1200,1.6200,0.6400,0.0000,-0.2939,-0.3471,0.0015,996,1502,1527,1502,2008,1000,1505,1000,1000,1006,1005,1000,1015,0.0035,0.0719,-0.0112,-0.0214,0.0121,0.9966,0.0546,0.6396,-0.0517,-0.6425,0.8627,0.2400,0.1321,0.8627,0.2400,0.1321,0.3000,0.0600,0.0002,0,-5.2734,-273.0836,-0.5267,-5.2734,-273.0836,-0.5267,32.5965,37.7792,0.0200,0.2700,0.0000,0.0000,0.0000,0.0000,0.0000,0.0000
27.2068,41.8165,10.6468,0.0829,-0.0821,0.1200,1.6200,0.6400,0.0000,-0.2937,-0.3469,0.0014,996,1502,1527,1502,2008,1000,1505,1000,1000,1006,1005,1000,1015,0.0256,0.1021,0.0217,-0.0215,0.0148,1.0033,0.0546,0.6393,-0.0518,-0.6420,0.8627,0.2400,0.1321,0.8627,0.2400,0.1321,0.3000,0.0600,0.0002,0,-5.2734,-273.0836,-0.5267,-5.2734,-273.0836,-0.5267,32.5634,37.7540,0.0200,0.2700,0.0000,0.0000,0.0000,0.0000,0.0000,0.0000
27.1785,41.7889,10.6279,-0.0829,-0.1642,0.1200,1.6200,0.6400,0.0000,-0.2935,-0.3466,0.0014,996,1502,1527,1502,2008,1000,1505,1000,1000,1006,1005,1000,1015,0.0194,0.0813,0.0145,-0.0167,0.0152,0.9993,0.0546,0.6387,-0.0518,-0.6415,0.8627,0.2400,0.1321,0.8627,0.2400,0.1321,0.3000,0.0600,0.0002,0,-5.2734,-273.0836,-0.5267,-5.2734,-273.0836,-0.5267,32.5301,37.7281,0.0200,0.2700,0.0000,0.0000,0.0000,0.0000,0.0000,0.0000
27.1494,41.7608,10.6085,-0.0000,-0.0821,0.1200,1.6200,0.6400,0.0000,-0.2932,-0.3463,0.0014,996,1502,1527,1502,2008,1000,1505,1000,1000,1006,1005,1000,1015,-0.0103,0.0118,0.0033,-0.0191,0.0150,1.0007,0.0546,0.6381,-0.0517,-0.6409,0.8627,0.2400,0.1321,0.8627,0.2400,0.1321,0.3000,0.0600,0.0002,0,-5.2734,-273.0836,-0.5267,-5.2734,-273.0836,-0.5267,32.4974,37.7028,0.0200,0.2700,0.0000,0.0000,0.0000,0.0000,0.0000,0.0000
27.1204,41.7326,10.5896,-0.1657,-0.2462,0.1200,1.6200,0.6400,0.0000,-0.2929,-0.3461,0.0013,996,1502,1527,1502,2008,1000,1505,1000,1000,1006,1005,1000,1015,-0.0266,0.0226,0.0423,-0.0207,0.0138,1.0030,0.0545,0.6376,-0.0518,-0.6403,0.8627,0.2400,0.1321,0.8627,0.2400,0.1321,0.3000,0.0600,0.0002,0,-5.2734,-273.0836,-0.5267,-5.2734,-273.0836,-0.5267,32.4645,37.6769,0.0200,0.2700,0.0000,0.0000,0.0000,0.0000,0.0000,0.0000
27.0916,41.7043,10.5705,0.0829,-0.0821,0.1200,1.6200,0.6400,0.0000,-0.2927,-0.3458,0.0013,998,1504,1528,1504,2008,1000,1505,1000,1000,1006,1005,1000,1015,0.0255,0.0156,0.0290,-0.0200,0.0138,1.0002,0.0545,0.6372,-0.0518,-0.6399,0.8627,0.2400,0.1321,0.8627,0.2400,0.1321,0.3000,0.0600,0.0002,0,-5.2734,-273.0836,-0.5267,-5.2734,-273.0836,-0.5267,32.4310,37.6517,0.0200,0.2700,0.0000,0.0000,0.0000,0.0000,0.0000,0.0000
27.0627,41.6753,10.5513,-0.0829,-0.1642,0.1200,1.6200,0.6400,0.0000,-0.2925,-0.3455,0.0015,996,1502,1527,1502,2008,1000,1505,1000,1000,1006,1005,1000,1015,0.0219,-0.0419,-0.0095,-0.0214,0.0141,1.0035,0.0545,0.6365,-0.0515,-0.6395,0.8627,0.2400,0.1321,0.8627,0.2400,0.1321,0.3000,0.0600,0.0002,0,-5.2734,-273.0836,-0.5267,-5.2734,-273.0836,-0.5267,32.3982,37.6261,0.0200,0.2700,0.0000,0.0000,0.0000,0.0000,0.0000,0.0000
27.0335,41.6467,10.5318,-0.0000,-0.0821,0.1200,1.6200,0.6400,0.0000,-0.2922,-0.3453,0.0014,996,1502,1527,1502,2008,1000,1505,1000,1000,1006,1005,1000,1015,0.0018,-0.0037,0.0227,-0.0194,0.0122,1.0025,0.0545,0.6361,-0.0517,-0.6389,0.8627,0.2400,0.1321,0.8627,0.2400,0.1321,0.3000,0.0600,0.0002,0,-5.2734,-273.0836,-0.5267,-5.2734,-273.0836,-0.5267,32.3653,37.6004,0.0200,0.2700,0.0000,0.0000,0.0000,0.0000,0.0000,0.0000
27.0042,41.6178,10.5123,-0.0000,-0.0821,0.1200,1.6200,0.6400,0.0000,-0.2920,-0.3450,0.0015,996,1502,1527,1502,2008,1000,1505,1000,1000,1006,1005,1000,1015,0.0206,-0.0318,0.0073,-0.0201,0.0153,1.0040,0.0546,0.6355,-0.0516,-0.6385,0.8627,0.2400,0.1321,0.8627,0.2400,0.1321,0.3000,0.0600,0.0002,0,-5.2734,-273.0836,-0.5267,-5.2734,-273.0836,-0.5267,32.3321,37.5754,0.0200,0.2700,0.0000,0.0000,0.0000,0.0000,0.0000,0.0000
26.9755,41.5887,10.4935,-0.0000,-0.0821,0.1200,1.6200,0.6400,0.0000,-0.2917,-0.3448,0.0013,996,1502,1527,1502,2008,1000,1505,1000,1000,1006,1005,1000,1015,0.0046,0.0021,0.0629,-0.0200,0.0117,0.9989,0.0545,0.6352,-0.0518,-0.6379,0.8627,0.2400,0.1321,0.8627,0.2400,0.1321,0.3000,0.0600,0.0002,0,-5.2734,-273.0836,-0.5267,-5.2734,-273.0836,-0.5267,32.2984,37.5498,0.0200,0.2700,0.0000,0.0000,0.0000,0.0000,0.0000,0.0000
26.9464,41.5598,10.4738,0.0829,-0.0821,0.1200,1.6200,0.6400,0.0000,-0.2915,-0.3445,0.0016,996,1502,1527,1502,2008,1000,1505,1000,1000,1006,1005,1000,1015,0.0387,-0.0632,-0.0366,-0.0202,0.0097,1.0057,0.0546,0.6344,-0.0514,-0.6376,0.8627,0.2400,0.1321,0.8627,0.2400,0.1321,0.3000,0.0600,0.0002,0,-5.2734,-273.0836,-0.5267,-5.2734,-273.0836,-0.5267,32.2651,37.5232,0.0200,0.2700,0.0000,0.0000,0.0000,0.0000,0.0000,0.0000
26.9174,41.5314,10.4544,-0.0000,-0.0821,0.1200,1.6200,0.6400,0.0000,-0.2912,-0.3444,0.0015,998,1504,1528,1502,2008,1000,1505,1000,1000,1006,1005,1000,1015,0.0038,0.0341,-0.0180,-0.0179,0.0111,1.0025,0.0547,0.6340,-0.0516,-0.6371,0.8627,0.2400,0.1321,0.8627,0.2400,0.1321,0.3000,0.0600,0.0002,0,-5.2734,-273.0836,-0.5267,-5.2734,-273.0836,-0.5267,32.2320,37.4970,0.0200,0.2700,0.0000,0.0000,0.0000,0.0000,0.0000,0.0000
26.8883,41.5028,10.4350,-0.0000,-0.1642,0.1200,1.6200,0.6400,0.0000,-0.2909,-0.3441,0.0013,996,1502,1527,1502,2008,1000,1505,1000,1000,1006,1005,1000,1015,-0.0109,0.0378,0.0591,-0.0193,0.0113,1.0024,0.0545,0.6337,-0.0519,-0.6363,0.8627,0.2400,0.1321,0.8627,0.2400,0.1321,0.3000,0.0600,0.0002,0,-5.2734,-273.0836,-0.5267,-5.2734,-273.0836,-0.5267,32.1990,37.4711,0.0200,0.2700,0.0000,0.0000,0.0000,0.0000,0.0000,0.0000
26.8594,41.4745,10.4161,-0.0000,-0.0821,0.1200,1.6200,0.6400,0.0000,-0.2907,-0.3438,0.0017,996,1502,1527,1502,2008,1000,1505,1000,1000,1006,1005,1000,1015,0.0408,0.0089,-0.0568,-0.0217,0.0171,1.0035,0.0548,0.6329,-0.0514,-0.6362,0.8627,0.2400,0.1321,0.8627,0.2400,0.1321,0.3000,0.0600,0.0002,0,-5.2734,-273.0836,-0.5267,-5.2734,-273.0836,-0.5267,32.1660,37.4454,0.0200,0.2700,0.0000,0.0000,0.0000,0.0000,0.0000,0.0000
26.8309,41.4460,10.3970,0.0829,-0.0821,0.1200,1.6200,0.6400,0.0000,-0.2905,-0.3436,0.0015,996,1502,1527,1502,2008,1000,1505,1000,1000,1006,1005,1000,1014,0.0343,0.0139,-0.0008,-0.0199,0.0158,1.0011,0.0546,0.6326,-0.0517,-0.6355,0.8627,0.2400,0.1321,0.8627,0.2400,0.1321,0.3000,0.0600,0.0002,0,-5.2582,-272.2996,-0.5252,-5.2582,-272.2996,-0.5252,32.1330,37.4201,0.0200,0.2700,0.0000,0.0000,0.0000,0.0000,0.0000,0.0000
26.8023,41.4176,10.3778,-0.0000,-0.0821,0.1200,1.6200,0.6400,0.0000,-0.2902,-0.3434,0.0018,996,1502,1527,1502,2008,1000,1505,1000,1000,1006,1005,1000,1014,0.0089,0.0462,-0.0836,-0.0183,0.0126,1.0025,0.0550,0.6318,-0.0514,-0.6354,0.8627,0.2400,0.1321,0.8627,0.2400,0.1321,0.3000,0.0600,0.0002,0,-5.2582,-272.2996,-0.5252,-5.2582,-272.2996,-0.5252,32.0993,37.3945,0.0200,0.2700,0.0000,0.0000,0.0000,0.0000,0.0000,0.0000
26.7735,41.3893,10.3586,-0.0000,-0.0821,0.1200,1.6200,0.6400,0.0000,-0.2899,-0.3431,0.0017,996,1502,1527,1502,2008,1000,1505,1000,1000,1006,1005,1000,1014,-0.0309,-0.0058,-0.0253,-0.0201,0.0121,1.0033,0.0548,0.6313,-0.0515,-0.6346,0.8627,0.2400,0.1321,0.8627,0.2400,0.1321,0.3000,0.0600,0.0002,0,-5.2582,-272.2996,-0.5252,-5.2582,-272.2996,-0.5252,32.0662,37.3687,0.0200,0.2700,0.0000,0.0000,0.0000,0.0000,0.0000,0.0000
26.7441,41.3611,10.3388,-0.0000,-0.0821,0.1200,1.6200,0.6400,0.0000,-0.2896,-0.3429,0.0019,998,1504,1528,1502,2008,1000,1505,1000,1000,1006,1005,1000,1015,-0.0308,0.0251,-0.1018,-0.0190,0.0124,1.0022,0.0551,0.6307,-0.0514,-0.6344,0.8627,0.2400,0.1321,0.8627,0.2400,0.1321,0.3000,0.0600,0.0002,0,-5.2582,-272.2996,-0.5252,-5.2582,-272.2996,-0.5252,32.0327,37.3426,0.0200,0.2700,0.0000,0.0000,0.0000,0.0000,0.0000,0.0000
26.7148,41.3329,10.3189,-0.0000,-0.0821,0.1200,1.6200,0.6400,0.0000,-0.2895,-0.3426,0.0006,996,1502,1527,1502,2008,1000,1505,1000,1000,1006,1005,1000,1015,0.0237,0.0118,-0.0170,-0.0228,0.0146,1.0010,0.0537,0.6315,-0.0526,-0.6327,0.8627,0.2400,0.1321,0.8627,0.2400,0.1321,0.3000,0.0600,0.0002,0,-5.2734,-273.0836,-0.5267,-5.2734,-273.0836,-0.5267,31.9998,37.3171,0.0200,0.2700,0.0000,0.0000,0.0000,0.0000,0.0000,0.0000
26.6864,41.3036,10.3000,-0.0000,-0.0000,0.1200,1.6200,0.6400,0.0000,-0.2892,-0.3424,0.0015,996,1502,1527,1502,2008,1000,1505,1000,1000,1006,1005,1000,1014,0.0024,0.0244,0.0164,-0.0170,0.0124,1.0013,0.0547,0.6301,-0.0517,-0.6331,0.8627,0.2400,0.1321,0.8627,0.2400,0.1321,0.3000,0.0600,0.0002,0,-5.2582,-272.2996,-0.5252,-5.2582,-272.2996,-0.5252,31.9666,37.2916,0.0200,0.2700,0.0000,0.0000,0.0000,0.0000,0.0000,0.0000
26.6575,41.2750,10.2809,0.0829,-0.0821,0.1200,1.6200,0.6400,0.0000,-0.2890,-0.3422,0.0014,996,1502,1527,1502,2008,1000,1505,1000,1000,1006,1005,1000,1014,0.0177,0.0368,0.0380,-0.0201,0.0141,0.9984,0.0545,0.6298,-0.0518,-0.6325,0.8627,0.2400,0.1321,0.8627,0.2400,0.1321,0.3000,0.0600,0.0002,0,-5.2582,-272.2996,-0.5252,-5.2582,-272.2996,-0.5252,31.9338,37.2657,0.0200,0.2700,0.0000,0.0000,0.0000,0.0000,0.0000,0.0000
26.6294,41.2456,10.2624,-0.0829,-0.1642,0.1200,1.6200,0.6400,0.0000,-0.2888,-0.3418,0.0015,996,1502,1527,1502,2008,1000,1505,1000,1000,1006,1005,1000,1015,0.0856,-0.0444,0.0034,-0.0203,0.0107,0.9977,0.0545,0.6291,-0.0515,-0.6321,0.8627,0.2400,0.1321,0.8627,0.2400,0.1321,0.3000,0.0600,0.0002,0,-5.2734,-273.0836,-0.5267,-5.2734,-273.0836,-0.5267,31.9015,37.2399,0.0200,0.2700,0.0000,0.0000,0.0000,0.0000,0.0000,0.0000
26.6007,41.2170,10.2427,-0.0000,-0.0821,0.1200,1.6200,0.6400,0.0000,-0.2885,-0.3417,0.0016,996,1502,1527,1502,2008,1000,1505,1000,1000,1006,1005,1000,1015,0.0523,0.0407,-0.0307,-0.0187,0.0106,1.0030,0.0547,0.6286,-0.0515,-0.6318,0.8627,0.2400,0.1321,0.8627,0.2400,0.1321,0.3000,0.0600,0.0002,0,-5.2734,-273.0836,-0.5267,-5.2734,-273.0836,-0.5267,31.8680,37.2140,0.0200,0.2700,0.0000,0.0000,0.0000,0.0000,0.0000,0.0000
26.5726,41.1884,10.2241,-0.1657,-0.1642,0.1200,1.6200,0.6400,0.0000,-0.2883,-0.3414,0.0014,998,1504,1528,1502,2008,1000,1505,1000,1000,1006,1005,1000,1015,0.0469,0.0514,0.0312,-0.0192,0.0127,1.0032,0.0546,0.6283,-0.0517,-0.6311,0.8627,0.2400,0.1321,0.8627,0.2400,0.1321,0.3000,0.0600,0.0002,0,-5.2734,-273.0836,-0.5267,-5.2734,-273.0836,-0.5267,31.8347,37.1878,0.0200,0.2700,0.0000,0.0000,0.0000,0.0000,0.0000,0.0000
26.5444,41.1593,10.2055,-0.0000,-0.0000,0.1200,1.6200,0.6400,0.0000,-0.2880,-0.3410,0.0016,996,1502,1527,1502,2008,1000,1505,1000,1000,1006,1005,1000,1015,0.0247,-0.0497,-0.0190,-0.0193,0.0134,1.0053,0.0547,0.6274,-0.0514,-0.6307,0.8627,0.2400,0.1321,0.8627,0.2400,0.1321,0.3000,0.0600,0.0002,0,-5.2734,-273.0836,-0.5267,-5.2734,-273.0836,-0.5267,31.8016,37.1619,0.0200,0.2700,0.0000,0.0000,0.0000,0.0000,0.0000,0.0000
26.5150,41.1301,10.1855,-0.0829,-0.0821,0.1200,1.6200,0.6400,0.0000,-0.2878,-0.3407,0.0017,996,1502,1527,1502,2008,1000,1505,1000,1000,1006,1005,1000,1015,0.0311,-0.1116,-0.0637,-0.0227,0.0133,1.0025,0.0547,0.6268,-0.0513,-0.6302,0.8627,0.2400,0.1321,0.8627,0.2400,0.1321,0.3000,0.0600,0.0002,0,-5.2734,-273.0836,-0.5267,-5.2734,-273.0836,-0.5267,31.7685,37.1360,0.0200,0.2700,0.0000,0.0000,0.0000,0.0000,0.0000,0.0000
26.4859,41.1008,10.1658,-0.0829,-0.1642,0.1200,1.6200,0.6400,0.0000,-0.2876,-0.3406,0.0018,996,1502,1527,1502,2008,1000,1505,1000,1000,1006,1005,1000,1015,0.0771,-0.0091,-0.0434,-0.0189,0.0168,1.0082,0.0548,0.6264,-0.0513,-0.6299,0.8627,0.2400,0.1321,0.8627,0.2400,0.1321,0.3000,0.0600,0.0002,0,-5.2734,-273.0836,-0.5267,-5.2734,-273.0836,-0.5267,31.7351,37.1094,0.0200,0.2700,0.0000,0.0000,0.0000,0.0000,0.0000,0.0000
26.4571,41.0718,10.1458,-0.0829,-0.0821,0.1200,1.6200,0.6400,0.0000,-0.2873,-0.3403,0.0018,996,1502,1527,1502,2008,1000,1505,1000,1000,1006,1005,1000,1015,0.0326,-0.0505,-0.0676,-0.0190,0.0155,1.0031,0.0548,0.6258,-0.0513,-0.6293,0.8627,0.2400,0.1321,0.8627,0.2400,0.1321,0.3000,0.0600,0.0002,0,-5.2734,-273.0836,-0.5267,-5.2734,-273.0836,-0.5267,31.7023,37.0830,0.0200,0.2700,0.0000,0.0000,0.0000,0.0000,0.0000,0.0000
26.4279,41.0432,10.1264,-0.0000,-0.0821,0.1200,1.6200,0.6400,0.0000,-0.2869,-0.3402,0.0015,996,1502,1527,1502,2008,1000,1505,1000,1000,1006,1005,1000,1015,-0.0151,0.0465,0.0203,-0.0201,0.0146,0.9990,0.0547,0.6256,-0.0518,-0.6286,0.8627,0.2400,0.1321,0.8627,0.2400,0.1321,0.3000,0.0600,0.0002,0,-5.2734,-273.0836,-0.5267,-5.2734,-273.0836,-0.5267,31.6695,37.0571,0.0200,0.2700,0.0000,0.0000,0.0000,0.0000,0.0000,0.0000
26.3995,41.0146,10.1078,0.0829,-0.0821,0.1200,1.6200,0.6400,0.0000,-0.2868,-0.3399,0.0018,998,1504,1528,1504,2008,1000,1505,1000,1000,1006,1005,1000,1015,0.0352,0.0572,-0.0482,-0.0203,0.0126,1.0000,0.0550,0.6249,-0.0514,-0.6285,0.8627,0.2400,0.1321,0.8627,0.2400,0.1321,0.3000,0.0600,0.0002,0,-5.2734,-273.0836,-0.5267,-5.2734,-273.0836,-0.5267,31.6361,37.0307,0.0200,0.2700,0.0000,0.0000,0.0000,0.0000,0.0000,0.0000
26.3702,40.9859,10.0888,0.0829,-0.0821,0.1200,1.6200,0.6400,0.0000,-0.2864,-0.3396,0.0005,996,1502,1527,1502,2008,1000,1505,1000,1000,1006,1005,1000,1015,-0.0252,0.0162,0.0253,-0.0210,0.0123,1.0020,0.0537,0.6255,-0.0527,-0.6266,0.8627,0.2400,0.1321,0.8627,0.2400,0.1321,0.3000,0.0600,0.0002,0,-5.2734,-273.0836,-0.5267,-5.2734,-273.0836,-0.5267,31.6024,37.0043,0.0200,0.2700,0.0000,0.0000,0.0000,0.0000,0.0000,0.0000
26.3417,40.9575,10.0701,-0.0000,-0.0000,0.1200,1.6200,0.6400,0.0000,-0.2862,-0.3395,0.0018,996,1502,1527,1502,2008,1000,1505,1000,1000,1006,1005,1000,1015,0.0075,0.0864,-0.0647,-0.0177,0.0145,0.9986,0.0551,0.6239,-0.0515,-0.6275,0.8627,0.2400,0.1321,0.8627,0.2400,0.1321,0.3000,0.0600,0.0002,0,-5.2734,-273.0836,-0.5267,-5.2734,-273.0836,-0.5267,31.5692,36.9779,0.0200,0.2700,0.0000,0.0000,0.0000,0.0000,0.0000,0.0000
26.3130,40.9291,10.0512,0.0829,-0.0821,0.1200,1.6200,0.6400,0.0000,-0.2860,-0.3392,0.0017,996,1502,1527,1502,2008,1000,1505,1000,1000,1006,1005,1000,1015,0.0131,0.0431,-0.0281,-0.0182,0.0125,0.9995,0.0549,0.6235,-0.0515,-0.6268,0.8627,0.2400,0.1321,0.8627,0.2400,0.1321,0.3000,0.0600,0.0002,0,-5.2734,-273.0836,-0.5267,-5.2734,-273.0836,-0.5267,31.5361,36.9522,0.0200,0.2700,0.0000,0.0000,0.0000,0.0000,0.0000,0.0000
26.2846,40.9008,10.0322,-0.0000,-0.0821,0.1200,1.6200,0.6400,0.0000,-0.2857,-0.3389,0.0018,996,1502,1527,1502,2008,1000,1505,1000,1000,1006,1005,1000,1014,0.0184,0.0221,-0.0507,-0.0196,0.0123,1.0015,0.0549,0.6229,-0.0514,-0.6264,0.8627,0.2400,0.1321,0.8627,0.2400,0.1321,0.3000,0.0600,0.0002,0,-5.2582,-272.2996,-0.5252,-5.2582,-272.2996,-0.5252,31.5027,36.9266,0.0200,0.2700,0.0000,0.0000,0.0000,0.0000,0.0000,0.0000
26.2552,40.8725,10.0123,-0.0000,-0.0821,0.1200,1.6200,0.6400,0.0000,-0.2855,-0.3386,0.0018,996,1502,1527,1502,2008,1000,1505,1000,1000,1006,1005,1000,1014,0.0423,0.0000,-0.1006,-0.0201,0.0129,1.0050,0.0550,0.6223,-0.0513,-0.6260,0.8627,0.2400,0.1321,0.8627,0.2400,0.1321,0.3000,0.0600,0.0002,0,-5.2582,-272.2996,-0.5252,-5.2582,-272.2996,-0.5252,31.4699,36.8999,0.0200,0.2700,0.0000,0.0000,0.0000,0.0000,0.0000,0.0000
