roll_imu,pitch_imu,yaw_imu,alpha,beta,roll_des,pitch_des,yaw_des,throttle_des,roll_pid,pitch_pid,yaw_pid,radio_ch1,radio_ch2,radio_ch3,radio_ch4,radio_ch5,radio_ch6,radio_ch7,radio_ch8,radio_ch9,radio_ch10,radio_ch11,radio_ch12,radio_ch13,GyroX,GyroY,GyroZ,AccX,AccY,AccZ,s1_command,s2_command,s3_command,s4_command,kp_roll,ki_roll,kd_roll,kp_pitch,ki_pitch,kd_pitch,kp_yaw,ki_yaw,kd_yaw,failsafeTriggered,kp_alphaRoll,ki_alphaRoll,kd_alphaRoll,kp_betaPitch,ki_betaPitch,kd_betaPitch
0.0000,0.0000,0.0000,9.2229,-2.0229,0.0000,0.0000,0.0000,0.0000,0.0000,0.0000,0.0000,998,1492,1497,1504,1000,1000,1505,1000,1000,1391,1005,1494,1139,0.0000,0.0000,0.0000,0.0000,0.0000,0.0000,0.0000,0.0000,0.0000,0.0000,0.2204,0.0082,0.0438,0.2204,0.0082,0.0438,0.3000,0.0600,0.0002,0,-0.3000,-100.0000,-0.0010,-0.3000,-100.0000,-0.0010
176.1553,67.9003,174.7955,-0.0686,-0.2057,-0.4800,-0.1800,0.6400,0.0000,-0.3914,-0.1500,0.0170,996,1492,1497,1502,1000,1000,1505,1000,1000,1391,1005,1494,1139,0.0141,-0.0342,-0.0289,-0.0118,0.0038,0.9580,-0.2243,0.5244,0.2583,-0.5584,0.2204,0.0082,0.0438,0.2204,0.0082,0.0438,0.3000,0.0600,0.0002,0,-1.9557,-3.5000,-0.0059,-1.9557,-3.5000,-0.0059
176.1528,67.9160,174.7932,-0.0000,-0.2057,-0.4800,-0.1800,0.6400,0.0000,-0.3913,-0.1500,0.0171,996,1492,1497,1502,1000,1000,1505,1000,1000,1391,1005,1494,1139,-0.0512,-0.0900,-0.0412,-0.0111,0.0032,1.0000,-0.2242,0.5243,0.2583,-0.5584,0.2204,0.0082,0.0438,0.2204,0.0082,0.0438,0.3000,0.0600,0.0002,0,-1.9557,-3.5000,-0.0059,-1.9557,-3.5000,-0.0059
176.1490,67.9321,174.7898,-0.0686,-0.1371,-0.4800,-0.1800,0.6400,0.0000,-0.3913,-0.1501,0.0168,996,1492,1497,1502,1000,1000,1505,1000,1000,1391,1005,1494,1139,0.0177,-0.0686,0.0361,-0.0116,0.0040,1.0008,-0.2244,0.5246,0.2581,-0.5583,0.2204,0.0082,0.0438,0.2204,0.0082,0.0438,0.3000,0.0600,0.0002,0,-1.9557,-3.5000,-0.0059,-1.9557,-3.5000,-0.0059
176.1443,67.9483,174.7854,-0.0000,-0.1371,-0.4800,-0.1800,0.6400,0.0000,-0.3913,-0.1501,0.0168,996,1492,1497,1502,1000,1000,1505,1000,1000,1391,1005,1494,1139,-0.0139,-0.1153,0.0296,-0.0121,0.0024,0.9996,-0.2244,0.5246,0.2581,-0.5583,0.2204,0.0082,0.0438,0.2204,0.0082,0.0438,0.3000,0.0600,0.0002,0,-1.9557,-3.5000,-0.0059,-1.9557,-3.5000,-0.0059
176.1397,67.9647,174.7815,-0.0000,-0.2057,-0.4800,-0.1800,0.6400,0.0000,-0.3913,-0.1501,0.0168,996,1492,1497,1502,1000,1000,1505,1000,1000,1391,1005,1493,1139,-0.0189,-0.1006,0.0340,-0.0108,0.0006,1.0024,-0.2243,0.5246,0.2580,-0.5583,0.2204,0.0082,0.0438,0.2204,0.0082,0.0438,0.3000,0.0600,0.0002,0,-1.9557,-3.5000,-0.0059,-1.9557,-3.5000,-0.0059
176.1355,67.9812,174.7772,-0.0000,-0.2057,-0.4800,-0.1800,0.6400,0.0000,-0.3913,-0.1502,0.0169,998,1492,1497,1504,1000,1000,1505,1000,1000,1391,1005,1494,1139,0.0505,-0.0572,0.0166,-0.0095,0.0018,0.9988,-0.2243,0.5247,0.2580,-0.5584,0.2204,0.0082,0.0438,0.2204,0.0082,0.0438,0.3000,0.0600,0.0002,0,-1.9557,-3.5000,-0.0059,-1.9557,-3.5000,-0.0059
176.1313,67.9975,174.7732,-0.0000,-0.1371,-0.4800,-0.1800,0.6400,0.0000,-0.3913,-0.1502,0.0160,996,1492,1497,1502,1000,1000,1505,1000,1000,1391,1005,1494,1139,-0.0808,-0.1261,0.0114,-0.0134,0.0053,0.9974,-0.2251,0.5255,0.2570,-0.5574,0.2204,0.0082,0.0438,0.2204,0.0082,0.0438,0.3000,0.0600,0.0002,0,-1.9557,-3.5000,-0.0059,-1.9557,-3.5000,-0.0059
176.1284,68.0139,174.7712,-0.0000,-0.1371,-0.4800,-0.1800,0.6400,0.0000,-0.3913,-0.1503,0.0169,996,1492,1497,1502,1000,1000,1505,1000,1000,1391,1005,1494,1139,-0.0777,-0.1101,-0.0263,-0.0112,0.0040,1.0034,-0.2241,0.5246,0.2580,-0.5585,0.2204,0.0082,0.0438,0.2204,0.0082,0.0438,0.3000,0.0600,0.0002,0,-1.9557,-3.5000,-0.0059,-1.9557,-3.5000,-0.0059
176.1258,68.0303,174.7689,-0.0686,-0.2057,-0.4800,-0.1800,0.6400,0.0000,-0.3913,-0.1503,0.0171,996,1492,1497,1502,1000,1000,1505,1000,1000,1391,1005,1494,1139,-0.0473,-0.0950,-0.0709,-0.0084,0.0042,0.9984,-0.2238,0.5244,0.2581,-0.5587,0.2204,0.0082,0.0438,0.2204,0.0082,0.0438,0.3000,0.0600,0.0002,0,-1.9557,-3.5000,-0.0059,-1.9557,-3.5000,-0.0059
176.1237,68.0471,174.7675,-0.0686,-0.2057,-0.4800,-0.1800,0.6400,0.0000,-0.3913,-0.1503,0.0170,996,1492,1497,1502,1000,1000,1505,1000,1000,1391,1005,1494,1139,-0.0126,-0.1568,-0.0295,-0.0118,0.0039,1.0017,-0.2240,0.5246,0.2580,-0.5586,0.2204,0.0082,0.0438,0.2204,0.0082,0.0438,0.3000,0.0600,0.0002,0,-1.9557,-3.5000,-0.0059,-1.9557,-3.5000,-0.0059
176.1191,68.0640,174.7633,-0.0000,-0.2057,-0.4800,-0.1800,0.6400,0.0000,-0.3913,-0.1504,0.0170,996,1492,1497,1502,1000,1000,1505,1000,1000,1391,1005,1494,1139,-0.0391,-0.0962,-0.0039,-0.0082,0.0021,1.0045,-0.2239,0.5247,0.2578,-0.5586,0.2204,0.0082,0.0438,0.2204,0.0082,0.0438,0.3000,0.0600,0.0002,0,-1.9557,-3.5000,-0.0059,-1.9557,-3.5000,-0.0059
176.1154,68.0802,174.7597,-0.0686,-0.2057,-0.4800,-0.1800,0.6400,0.0000,-0.3913,-0.1504,0.0170,998,1492,1497,1504,1000,1000,1505,1000,1000,1391,1005,1494,1139,0.0338,-0.1037,-0.0202,-0.0100,0.0017,1.0023,-0.2239,0.5247,0.2579,-0.5587,0.2204,0.0082,0.0438,0.2204,0.0082,0.0438,0.3000,0.0600,0.0002,0,-1.9557,-3.5000,-0.0059,-1.9557,-3.5000,-0.0059
176.1128,68.0974,174.7570,-0.0000,-0.2057,-0.4800,-0.1800,0.6400,0.0000,-0.3913,-0.1504,0.0159,996,1492,1497,1502,1000,1000,1505,1000,1000,1391,1005,1494,1139,0.0087,-0.1116,0.0249,-0.0144,0.0029,1.0011,-0.2249,0.5258,0.2567,-0.5576,0.2204,0.0082,0.0438,0.2204,0.0082,0.0438,0.3000,0.0600,0.0002,0,-1.9557,-3.5000,-0.0059,-1.9557,-3.5000,-0.0059
176.1104,68.1137,174.7550,-0.0000,-0.2057,-0.4800,-0.1800,0.6400,0.0000,-0.3912,-0.1505,0.0171,996,1492,1497,1502,1000,1000,1505,1000,1000,1391,1005,1494,1139,-0.0233,-0.0553,-0.0510,-0.0104,0.0019,0.9962,-0.2237,0.5247,0.2578,-0.5588,0.2204,0.0082,0.0438,0.2204,0.0082,0.0438,0.3000,0.0600,0.0002,0,-1.9557,-3.5000,-0.0059,-1.9557,-3.5000,-0.0059
176.1078,68.1296,174.7525,-0.0686,-0.2057,-0.4800,-0.1800,0.6400,0.0000,-0.3913,-0.1505,0.0170,996,1492,1497,1502,1000,1000,1505,1000,1000,1391,1005,1494,1139,0.0241,-0.0394,-0.0060,-0.0105,0.0033,1.0001,-0.2238,0.5248,0.2577,-0.5588,0.2204,0.0082,0.0438,0.2204,0.0082,0.0438,0.3000,0.0600,0.0002,0,-1.9557,-3.5000,-0.0059,-1.9557,-3.5000,-0.0059
176.1033,68.1455,174.7476,-0.0686,-0.1371,-0.4800,-0.1800,0.6400,0.0000,-0.3912,-0.1506,0.0167,996,1492,1497,1502,1000,1000,1505,1000,1000,1391,1005,1494,1139,-0.0226,-0.0313,0.0670,-0.0110,0.0042,0.9996,-0.2239,0.5251,0.2574,-0.5585,0.2204,0.0082,0.0438,0.2204,0.0082,0.0438,0.3000,0.0600,0.0002,0,-1.9557,-3.5000,-0.0059,-1.9557,-3.5000,-0.0059
176.0988,68.1622,174.7435,-0.1371,-0.4114,-0.4800,-0.1800,0.6400,0.0000,-0.3912,-0.1505,0.0169,996,1492,1497,1502,1000,1000,1505,1000,1000,1391,1005,1494,1139,-0.0582,-0.1784,-0.0006,-0.0094,0.0028,0.9998,-0.2237,0.5248,0.2576,-0.5587,0.2204,0.0082,0.0438,0.2204,0.0082,0.0438,0.3000,0.0600,0.0002,0,-1.9557,-3.5000,-0.0059,-1.9557,-3.5000,-0.0059
176.0946,68.1788,174.7400,-0.0000,-0.0686,-0.4800,-0.1800,0.6400,0.0000,-0.3912,-0.1506,0.0170,998,1492,1497,1504,1000,1000,1505,1000,1000,1391,1005,1494,1139,0.0235,-0.1098,-0.0291,-0.0092,0.0033,1.0027,-0.2236,0.5248,0.2576,-0.5589,0.2204,0.0082,0.0438,0.2204,0.0082,0.0438,0.3000,0.0600,0.0002,0,-1.9557,-3.5000,-0.0059,-1.9557,-3.5000,-0.0059
176.0913,68.1956,174.7374,-0.0686,-0.2743,-0.4800,-0.1800,0.6400,0.0000,-0.3912,-0.1507,0.0161,996,1492,1497,1502,1000,1000,1505,1000,1000,1391,1005,1494,1139,-0.0848,-0.0808,-0.0428,-0.0106,0.0022,1.0008,-0.2244,0.5257,0.2566,-0.5580,0.2204,0.0082,0.0438,0.2204,0.0082,0.0438,0.3000,0.0600,0.0002,0,-1.9557,-3.5000,-0.0059,-1.9557,-3.5000,-0.0059
176.0875,68.2119,174.7341,-0.0686,-0.2057,-0.4800,-0.1800,0.6400,0.0000,-0.3912,-0.1507,0.0168,996,1492,1497,1502,1000,1000,1505,1000,1000,1391,1005,1494,1139,-0.0430,-0.1034,0.0383,-0.0133,0.0045,0.9989,-0.2237,0.5250,0.2573,-0.5587,0.2204,0.0082,0.0438,0.2204,0.0082,0.0438,0.3000,0.0600,0.0002,0,-1.9557,-3.5000,-0.0059,-1.9557,-3.5000,-0.0059
176.0836,68.2289,174.7306,-0.0000,-0.1371,-0.4800,-0.1800,0.6400,0.0000,-0.3912,-0.1507,0.0167,996,1492,1497,1502,1000,1000,1505,1000,1000,1391,1005,1494,1139,-0.0559,-0.1231,0.0690,-0.0092,0.0022,0.9995,-0.2238,0.5252,0.2571,-0.5586,0.2204,0.0082,0.0438,0.2204,0.0082,0.0438,0.3000,0.0600,0.0002,0,-1.9557,-3.5000,-0.0059,-1.9557,-3.5000,-0.0059
176.0798,68.2449,174.7272,-0.0686,-0.2743,-0.4800,-0.1800,0.6400,0.0000,-0.3912,-0.1508,0.0168,996,1492,1497,1502,1000,1000,1505,1000,1000,1391,1005,1494,1139,0.0091,-0.0087,0.0298,-0.0107,0.0005,1.0019,-0.2236,0.5252,0.2572,-0.5588,0.2204,0.0082,0.0438,0.2204,0.0082,0.0438,0.3000,0.0600,0.0002,0,-1.9557,-3.5000,-0.0059,-1.9557,-3.5000,-0.0059
176.0762,68.2605,174.7238,-0.0686,-0.2057,-0.4800,-0.1800,0.6400,0.0000,-0.3912,-0.1508,0.0171,996,1492,1497,1502,1000,1000,1505,1000,1000,1391,1005,1494,1139,-0.0297,-0.0222,-0.0445,-0.0120,0.0048,0.9959,-0.2233,0.5249,0.2574,-0.5591,0.2204,0.0082,0.0438,0.2204,0.0082,0.0438,0.3000,0.0600,0.0002,0,-1.9557,-3.5000,-0.0059,-1.9557,-3.5000,-0.0059
176.0736,68.2769,174.7213,0.0686,-0.2057,-0.4800,-0.1800,0.6400,0.0000,-0.3912,-0.1508,0.0169,998,1492,1497,1504,1000,1000,1505,1000,1000,1391,1005,1494,1139,0.0115,-0.1015,0.0023,-0.0119,0.0007,0.9963,-0.2234,0.5251,0.2573,-0.5589,0.2204,0.0082,0.0438,0.2204,0.0082,0.0438,0.3000,0.0600,0.0002,0,-1.9557,-3.5000,-0.0059,-1.9557,-3.5000,-0.0059
176.0702,68.2929,174.7187,-0.0000,-0.1371,-0.4800,-0.1800,0.6400,0.0000,-0.3911,-0.1509,0.0163,996,1492,1497,1502,1000,1000,1505,1000,1000,1391,1005,1494,1139,-0.1194,-0.0299,-0.1080,-0.0182,-0.0065,1.0002,-0.2239,0.5257,0.2565,-0.5583,0.2204,0.0082,0.0438,0.2204,0.0082,0.0438,0.3000,0.0600,0.0002,0,-1.9557,-3.5000,-0.0059,-1.9557,-3.5000,-0.0059
176.0556,68.3091,174.7036,-0.0000,-0.2057,-0.4800,-0.1800,0.6400,0.0000,-0.3911,-0.1509,0.0145,996,1492,1497,1502,1000,1000,1505,1000,1000,1391,1005,1494,1139,-0.0117,-0.1215,0.8021,0.0098,0.0308,0.9997,-0.2257,0.5275,0.2548,-0.5566,0.2204,0.0082,0.0438,0.2204,0.0082,0.0438,0.3000,0.0600,0.0002,0,-1.9557,-3.5000,-0.0059,-1.9557,-3.5000,-0.0059
176.0527,68.3246,174.7002,0.0686,-0.0686,-0.4800,-0.1800,0.6400,0.0000,-0.3912,-0.1509,0.0193,996,1492,1497,1502,1000,1000,1505,1000,1000,1391,1005,1494,1139,0.1057,-0.2100,-0.7666,-0.0223,-0.0247,1.0152,-0.2210,0.5227,0.2596,-0.5614,0.2204,0.0082,0.0438,0.2204,0.0082,0.0438,0.3000,0.0600,0.0002,0,-1.9557,-3.5000,-0.0059,-1.9557,-3.5000,-0.0059
176.0709,68.3422,174.7204,-0.0000,-0.2057,-0.4800,-0.1800,0.6400,0.0000,-0.3910,-0.1511,0.0192,996,1492,1497,1502,1000,1000,1505,1000,1000,1391,1005,1494,1139,-0.3957,0.1472,-0.7726,-0.0214,0.0053,0.9821,-0.2207,0.5229,0.2591,-0.5613,0.2204,0.0082,0.0438,0.2204,0.0082,0.0438,0.3000,0.0600,0.0002,0,-1.9557,-3.5000,-0.0059,-1.9557,-3.5000,-0.0059
176.0760,68.3587,174.7281,-0.0686,-0.2057,-0.4800,-0.1800,0.6400,0.0000,-0.3912,-0.1509,0.0160,996,1492,1497,1502,1000,1000,1505,1000,1000,1391,1005,1494,1139,0.0206,-0.3140,0.2464,0.0089,0.0236,1.0048,-0.2242,0.5261,0.2563,-0.5581,0.2204,0.0082,0.0438,0.2204,0.0082,0.0438,0.3000,0.0600,0.0002,0,-1.9557,-3.5000,-0.0059,-1.9557,-3.5000,-0.0059
176.0530,68.3739,174.7072,0.0686,0.0686,-0.4800,-0.1800,0.6400,0.0000,-0.3911,-0.1511,0.0149,998,1492,1497,1504,1000,1000,1505,1000,1000,1391,1005,1494,1139,-0.0881,0.0573,0.7035,-0.0082,-0.0015,1.0100,-0.2251,0.5273,0.2548,-0.5571,0.2204,0.0082,0.0438,0.2204,0.0082,0.0438,0.3000,0.0600,0.0002,0,-1.9557,-3.5000,-0.0059,-1.9557,-3.5000,-0.0059
176.0469,68.3912,174.6984,-0.0686,-0.1371,-0.4800,-0.1800,0.6400,0.0000,-0.3912,-0.1511,0.0168,996,1492,1497,1502,1000,1000,1505,1000,1000,1391,1005,1494,1139,0.1133,0.0016,-0.2633,-0.0239,-0.0101,0.9987,-0.2233,0.5255,0.2568,-0.5591,0.2204,0.0082,0.0438,0.2204,0.0082,0.0438,0.3000,0.0600,0.0002,0,-1.9557,-3.5000,-0.0059,-1.9557,-3.5000,-0.0059
176.0581,68.4070,174.7099,-0.0000,-0.2743,-0.4800,-0.1800,0.6400,0.0000,-0.3912,-0.1511,0.0179,996,1492,1497,1502,1000,1000,1505,1000,1000,1391,1005,1494,1139,0.0800,-0.1744,-0.3629,-0.0097,-0.0013,0.9969,-0.2222,0.5244,0.2580,-0.5601,0.2204,0.0082,0.0438,0.2204,0.0082,0.0438,0.3000,0.0600,0.0002,0,-1.9557,-3.5000,-0.0059,-1.9557,-3.5000,-0.0059
176.0501,68.4231,174.7028,-0.0000,-0.1371,-0.4800,-0.1800,0.6400,0.0000,-0.3910,-0.1513,0.0161,996,1492,1497,1502,1000,1000,1505,1000,1000,1391,1005,1494,1139,-0.3798,0.1727,0.2974,-0.0065,0.0253,1.0016,-0.2236,0.5262,0.2558,-0.5583,0.2204,0.0082,0.0438,0.2204,0.0082,0.0438,0.3000,0.0600,0.0002,0,-1.9557,-3.5000,-0.0059,-1.9557,-3.5000,-0.0059
176.0352,68.4396,174.6879,-0.0686,-0.1371,-0.4800,-0.1800,0.6400,0.0000,-0.3911,-0.1512,0.0157,996,1492,1497,1502,1000,1000,1505,1000,1000,1391,1005,1494,1139,0.0532,-0.1880,0.4382,0.0043,0.0128,1.0015,-0.2243,0.5266,0.2556,-0.5580,0.2204,0.0082,0.0438,0.2204,0.0082,0.0438,0.3000,0.0600,0.0002,0,-1.9557,-3.5000,-0.0059,-1.9557,-3.5000,-0.0059
176.0303,68.4539,174.6838,-0.0000,-0.2743,-0.4800,-0.1800,0.6400,0.0000,-0.3911,-0.1513,0.0175,996,1492,1497,1502,1000,1000,1505,1000,1000,1391,1005,1494,1139,0.0339,0.0680,-0.1691,-0.0179,-0.0130,1.0012,-0.2223,0.5249,0.2573,-0.5599,0.2204,0.0082,0.0438,0.2204,0.0082,0.0438,0.3000,0.0600,0.0002,0,-1.9557,-3.5000,-0.0059,-1.9557,-3.5000,-0.0059
176.0327,68.4712,174.6868,-0.0686,-0.2057,-0.4800,-0.1800,0.6400,0.0000,-0.3911,-0.1513,0.0172,998,1492,1497,1504,1000,1000,1505,1000,1000,1391,1005,1494,1139,-0.0378,0.0674,-0.1139,-0.0220,-0.0099,0.9913,-0.2225,0.5252,0.2569,-0.5596,0.2204,0.0082,0.0438,0.2204,0.0082,0.0438,0.3000,0.0600,0.0002,0,-1.9557,-3.5000,-0.0059,-1.9557,-3.5000,-0.0059
176.0206,68.4868,174.6762,-0.0686,-0.0686,-0.4800,-0.1800,0.6400,0.0000,-0.3910,-0.1512,0.0149,996,1492,1497,1502,1000,1000,1505,1000,1000,1391,1005,1494,1139,-0.1653,-0.3595,0.3688,0.0017,0.0087,0.9949,-0.2249,0.5273,0.2547,-0.5571,0.2204,0.0082,0.0438,0.2204,0.0082,0.0438,0.3000,0.0600,0.0002,0,-1.9557,-3.5000,-0.0059,-1.9557,-3.5000,-0.0059
176.0117,68.5041,174.6659,-0.0686,-0.2057,-0.4800,-0.1800,0.6400,0.0000,-0.3910,-0.1513,0.0169,996,1492,1497,1502,1000,1000,1505,1000,1000,1391,1005,1494,1139,-0.1069,-0.1182,0.0350,-0.0044,0.0250,1.0071,-0.2228,0.5254,0.2566,-0.5592,0.2204,0.0082,0.0438,0.2204,0.0082,0.0438,0.3000,0.0600,0.0002,0,-1.9557,-3.5000,-0.0059,-1.9557,-3.5000,-0.0059
176.0140,68.5216,174.6688,-0.0000,-0.3429,-0.4800,-0.1800,0.6400,0.0000,-0.3911,-0.1515,0.0177,996,1492,1497,1502,1000,1000,1505,1000,1000,1391,1005,1493,1139,0.1181,0.0958,-0.2795,-0.0204,-0.0041,1.0085,-0.2219,0.5248,0.2574,-0.5603,0.2204,0.0082,0.0438,0.2204,0.0082,0.0438,0.3000,0.0600,0.0002,0,-1.9557,-3.5000,-0.0059,-1.9557,-3.5000,-0.0059
176.0127,68.5357,174.6685,0.0686,-0.0000,-0.4800,-0.1800,0.6400,0.0000,-0.3910,-0.1514,0.0170,996,1492,1497,1502,1000,1000,1505,1000,1000,1391,1005,1493,1139,-0.1124,-0.0596,-0.0112,-0.0132,0.0091,0.9955,-0.2226,0.5255,0.2565,-0.5594,0.2204,0.0082,0.0438,0.2204,0.0082,0.0438,0.3000,0.0600,0.0002,0,-1.9557,-3.5000,-0.0059,-1.9557,-3.5000,-0.0059
176.0089,68.5525,174.6645,0.0686,-0.0000,-0.4800,-0.1800,0.6400,0.0000,-0.3911,-0.1514,0.0167,996,1492,1497,1502,1000,1000,1505,1000,1000,1391,1005,1494,1139,0.2650,-0.2157,0.0883,-0.0053,0.0101,0.9848,-0.2231,0.5259,0.2564,-0.5592,0.2204,0.0082,0.0438,0.2204,0.0082,0.0438,0.3000,0.0600,0.0002,0,-1.9557,-3.5000,-0.0059,-1.9557,-3.5000,-0.0059
176.0047,68.5700,174.6606,-0.0000,-0.0000,-0.4800,-0.1800,0.6400,0.0000,-0.3911,-0.1515,0.0173,998,1492,1497,1504,1000,1000,1505,1000,1000,1391,1005,1494,1139,0.1372,-0.1282,-0.1230,-0.0171,-0.0222,1.0085,-0.2223,0.5252,0.2569,-0.5599,0.2204,0.0082,0.0438,0.2204,0.0082,0.0438,0.3000,0.0600,0.0002,0,-1.9557,-3.5000,-0.0059,-1.9557,-3.5000,-0.0059
176.0033,68.5865,174.6593,0.0686,-0.1371,-0.4800,-0.1800,0.6400,0.0000,-0.3909,-0.1515,0.0161,996,1492,1497,1502,1000,1000,1505,1000,1000,1391,1005,1494,1139,-0.3117,-0.1249,-0.0372,-0.0115,-0.0024,1.0082,-0.2233,0.5263,0.2555,-0.5585,0.2204,0.0082,0.0438,0.2204,0.0082,0.0438,0.3000,0.0600,0.0002,0,-1.9557,-3.5000,-0.0059,-1.9557,-3.5000,-0.0059
176.0011,68.6021,174.6590,-0.0000,-0.1371,-0.4800,-0.1800,0.6400,0.0000,-0.3910,-0.1516,0.0171,996,1492,1497,1502,1000,1000,1505,1000,1000,1391,1005,1494,1139,-0.1251,-0.0681,-0.0591,0.0017,0.0229,0.9888,-0.2223,0.5255,0.2565,-0.5596,0.2204,0.0082,0.0438,0.2204,0.0082,0.0438,0.3000,0.0600,0.0002,0,-1.9557,-3.5000,-0.0059,-1.9557,-3.5000,-0.0059
175.9977,68.6190,174.6565,-0.0000,-0.0686,-0.4800,-0.1800,0.6400,0.0000,-0.3911,-0.1516,0.0170,996,1492,1497,1502,1000,1000,1505,1000,1000,1391,1005,1494,1139,0.1177,-0.0176,-0.0051,-0.0206,0.0059,1.0078,-0.2225,0.5257,0.2564,-0.5597,0.2204,0.0082,0.0438,0.2204,0.0082,0.0438,0.3000,0.0600,0.0002,0,-1.9557,-3.5000,-0.0059,-1.9557,-3.5000,-0.0059
175.9964,68.6366,174.6547,-0.0000,-0.1371,-0.4800,-0.1800,0.6400,0.0000,-0.3910,-0.1516,0.0174,996,1492,1497,1502,1000,1000,1505,1000,1000,1391,1005,1494,1139,-0.0156,-0.1686,-0.1538,-0.0159,-0.0111,1.0052,-0.2220,0.5252,0.2568,-0.5600,0.2204,0.0082,0.0438,0.2204,0.0082,0.0438,0.3000,0.0600,0.0002,0,-1.9557,-3.5000,-0.0059,-1.9557,-3.5000,-0.0059
175.9957,68.6525,174.6554,-0.0000,-0.2743,-0.4800,-0.1800,0.6400,0.0000,-0.3910,-0.1517,0.0173,996,1492,1497,1502,1000,1000,1505,1000,1000,1391,1005,1494,1139,-0.1125,-0.0919,-0.1467,-0.0089,0.0122,0.9886,-0.2220,0.5253,0.2566,-0.5599,0.2204,0.0082,0.0438,0.2204,0.0082,0.0438,0.3000,0.0600,0.0002,0,-1.9557,-3.5000,-0.0059,-1.9557,-3.5000,-0.0059
175.9921,68.6690,174.6531,-0.0686,-0.1371,-0.4800,-0.1800,0.6400,0.0000,-0.3910,-0.1517,0.0172,998,1492,1497,1504,1000,1000,1505,1000,1000,1391,1005,1494,1139,0.0159,0.0028,-0.0823,-0.0137,0.0076,0.9980,-0.2221,0.5256,0.2564,-0.5599,0.2204,0.0082,0.0438,0.2204,0.0082,0.0438,0.3000,0.0600,0.0002,0,-1.9557,-3.5000,-0.0059,-1.9557,-3.5000,-0.0059
175.9895,68.6858,174.6505,-0.0686,-0.0686,-0.4800,-0.1800,0.6400,0.0000,-0.3910,-0.1517,0.0160,996,1492,1497,1502,1000,1000,1505,1000,1000,1391,1005,1494,1139,-0.0436,-0.1353,0.0094,-0.0084,0.0005,1.0041,-0.2233,0.5267,0.2552,-0.5587,0.2204,0.0082,0.0438,0.2204,0.0082,0.0438,0.3000,0.0600,0.0002,0,-1.9557,-3.5000,-0.0059,-1.9557,-3.5000,-0.0059
175.9867,68.7018,174.6480,-0.0000,-0.0686,-0.4800,-0.1800,0.6400,0.0000,-0.3910,-0.1518,0.0167,996,1492,1497,1502,1000,1000,1505,1000,1000,1391,1005,1494,1139,0.0060,-0.1122,0.0726,-0.0002,0.0018,0.9994,-0.2225,0.5260,0.2559,-0.5595,0.2204,0.0082,0.0438,0.2204,0.0082,0.0438,0.3000,0.0600,0.0002,0,-1.9557,-3.5000,-0.0059,-1.9557,-3.5000,-0.0059
175.9816,68.7182,174.6448,-0.0686,-0.1371,-0.4800,-0.1800,0.6400,0.0000,-0.3910,-0.1519,0.0166,996,1492,1497,1502,1000,1000,1505,1000,1000,1391,1005,1494,1139,-0.0373,0.1004,0.0683,-0.0218,-0.0062,0.9994,-0.2224,0.5262,0.2557,-0.5595,0.2204,0.0082,0.0438,0.2204,0.0082,0.0438,0.3000,0.0600,0.0002,0,-1.9557,-3.5000,-0.0059,-1.9557,-3.5000,-0.0059
175.9758,68.7350,174.6392,-0.0000,-0.0686,-0.4800,-0.1800,0.6400,0.0000,-0.3909,-0.1518,0.0169,996,1492,1497,1502,1000,1000,1505,1000,1000,1391,1005,1494,1139,-0.0785,-0.2542,-0.0088,-0.0184,-0.0051,0.9917,-0.2222,0.5258,0.2561,-0.5596,0.2204,0.0082,0.0438,0.2204,0.0082,0.0438,0.3000,0.0600,0.0002,0,-1.9557,-3.5000,-0.0059,-1.9557,-3.5000,-0.0059
175.9713,68.7514,174.6343,-0.0000,-0.1371,-0.4800,-0.1800,0.6400,0.0000,-0.3909,-0.1519,0.0168,996,1492,1497,1502,1000,1000,1505,1000,1000,1391,1005,1494,1139,-0.1665,-0.0907,0.0493,0.0028,0.0104,1.0044,-0.2222,0.5260,0.2558,-0.5596,0.2204,0.0082,0.0438,0.2204,0.0082,0.0438,0.3000,0.0600,0.0002,0,-1.9557,-3.5000,-0.0059,-1.9557,-3.5000,-0.0059
175.9669,68.7684,174.6302,-0.0000,-0.1371,-0.4800,-0.1800,0.6400,0.0000,-0.3909,-0.1520,0.0170,998,1492,1497,1504,1000,1000,1505,1000,1000,1391,1005,1494,1139,-0.0636,0.0271,-0.0199,-0.0119,0.0206,1.0059,-0.2220,0.5259,0.2559,-0.5599,0.2204,0.0082,0.0438,0.2204,0.0082,0.0438,0.3000,0.0600,0.0002,0,-1.9557,-3.5000,-0.0059,-1.9557,-3.5000,-0.0059
175.9623,68.7846,174.6261,-0.0000,-0.2057,-0.4800,-0.1800,0.6400,0.0000,-0.3910,-0.1519,0.0159,996,1492,1497,1502,1000,1000,1505,1000,1000,1391,1005,1494,1139,0.0729,-0.1195,0.0007,-0.0176,0.0102,0.9984,-0.2231,0.5270,0.2550,-0.5589,0.2204,0.0082,0.0438,0.2204,0.0082,0.0438,0.3000,0.0600,0.0002,0,-1.9557,-3.5000,-0.0059,-1.9557,-3.5000,-0.0059
175.9578,68.8008,174.6220,0.0686,-0.0000,-0.4800,-0.1800,0.6400,0.0000,-0.3910,-0.1520,0.0170,996,1492,1497,1502,1000,1000,1505,1000,1000,1391,1005,1494,1139,0.1972,-0.0961,-0.0200,-0.0025,-0.0047,1.0026,-0.2220,0.5260,0.2560,-0.5600,0.2204,0.0082,0.0438,0.2204,0.0082,0.0438,0.3000,0.0600,0.0002,0,-1.9557,-3.5000,-0.0059,-1.9557,-3.5000,-0.0059
175.9542,68.8180,174.6182,-0.1371,-0.1371,-0.4800,-0.1800,0.6400,0.0000,-0.3910,-0.1521,0.0170,996,1492,1497,1502,1000,1000,1505,1000,1000,1391,1005,1494,1139,0.2610,-0.0495,-0.0280,-0.0112,-0.0053,0.9994,-0.2220,0.5261,0.2560,-0.5601,0.2204,0.0082,0.0438,0.2204,0.0082,0.0438,0.3000,0.0600,0.0002,0,-1.9557,-3.5000,-0.0059,-1.9557,-3.5000,-0.0059
175.9481,68.8353,174.6118,-0.0686,-0.2057,-0.4800,-0.1800,0.6400,0.0000,-0.3909,-0.1521,0.0163,996,1492,1497,1502,1000,1000,1505,1000,1000,1391,1005,1494,1139,0.0321,-0.1082,0.2194,-0.0145,-0.0062,1.0048,-0.2226,0.5267,0.2551,-0.5593,0.2204,0.0082,0.0438,0.2204,0.0082,0.0438,0.3000,0.0600,0.0002,0,-1.9557,-3.5000,-0.0059,-1.9557,-3.5000,-0.0059
175.9421,68.8508,174.6059,-0.0000,-0.1371,-0.4800,-0.1800,0.6400,0.0000,-0.3909,-0.1521,0.0169,996,1492,1497,1502,1000,1000,1505,1000,1000,1391,1005,1494,1139,-0.0081,-0.0548,0.0043,-0.0118,0.0031,0.9958,-0.2218,0.5261,0.2557,-0.5599,0.2204,0.0082,0.0438,0.2204,0.0082,0.0438,0.3000,0.0600,0.0002,0,-1.9557,-3.5000,-0.0059,-1.9557,-3.5000,-0.0059
175.9388,68.8675,174.6027,-0.0000,-0.0686,-0.4800,-0.1800,0.6400,0.0000,-0.3909,-0.1521,0.0171,998,1492,1497,1504,1000,1000,1505,1000,1000,1391,1005,1494,1139,0.0364,-0.1054,-0.0630,-0.0120,0.0031,1.0000,-0.2216,0.5259,0.2559,-0.5602,0.2204,0.0082,0.0438,0.2204,0.0082,0.0438,0.3000,0.0600,0.0002,0,-1.9557,-3.5000,-0.0059,-1.9557,-3.5000,-0.0059
175.9377,68.8846,174.6022,-0.0000,-0.2057,-0.4800,-0.1800,0.6400,0.0000,-0.3909,-0.1522,0.0164,996,1492,1497,1502,1000,1000,1505,1000,1000,1391,1005,1494,1139,0.1272,-0.0713,-0.1568,-0.0140,0.0048,1.0029,-0.2224,0.5267,0.2551,-0.5595,0.2204,0.0082,0.0438,0.2204,0.0082,0.0438,0.3000,0.0600,0.0002,0,-1.9557,-3.5000,-0.0059,-1.9557,-3.5000,-0.0059
175.9353,68.9010,174.6004,0.0686,-0.0686,-0.4800,-0.1800,0.6400,0.0000,-0.3909,-0.1522,0.0169,996,1492,1497,1502,1000,1000,1505,1000,1000,1391,1005,1494,1139,0.1654,-0.0927,0.0068,-0.0067,-0.0039,1.0008,-0.2219,0.5263,0.2556,-0.5600,0.2204,0.0082,0.0438,0.2204,0.0082,0.0438,0.3000,0.0600,0.0002,0,-1.9557,-3.5000,-0.0059,-1.9557,-3.5000,-0.0059
175.9308,68.9174,174.5960,-0.0000,-0.0000,-0.4800,-0.1800,0.6400,0.0000,-0.3909,-0.1523,0.0168,996,1492,1497,1502,1000,1000,1505,1000,1000,1391,1005,1494,1139,0.1579,-0.0474,0.0254,-0.0072,-0.0038,1.0034,-0.2219,0.5264,0.2554,-0.5600,0.2204,0.0082,0.0438,0.2204,0.0082,0.0438,0.3000,0.0600,0.0002,0,-1.9557,-3.5000,-0.0059,-1.9557,-3.5000,-0.0059
175.9278,68.9338,174.5931,0.0686,-0.0686,-0.4800,-0.1800,0.6400,0.0000,-0.3909,-0.1523,0.0169,996,1492,1497,1502,1000,1000,1505,1000,1000,1391,1005,1494,1139,-0.0028,-0.1146,-0.0282,-0.0150,-0.0013,1.0018,-0.2217,0.5262,0.2555,-0.5601,0.2204,0.0082,0.0438,0.2204,0.0082,0.0438,0.3000,0.0600,0.0002,0,-1.9557,-3.5000,-0.0059,-1.9557,-3.5000,-0.0059
175.9261,68.9504,174.5916,-0.0000,-0.2057,-0.4800,-0.1800,0.6400,0.0000,-0.3908,-0.1523,0.0168,996,1492,1497,1502,1000,1000,1505,1000,1000,1391,1005,1494,1139,-0.1327,-0.1138,-0.0188,-0.0106,-0.0006,0.9989,-0.2216,0.5263,0.2553,-0.5600,0.2204,0.0082,0.0438,0.2204,0.0082,0.0438,0.3000,0.0600,0.0002,0,-1.9557,-3.5000,-0.0059,-1.9557,-3.5000,-0.0059
175.9232,68.9668,174.5891,-0.0000,-0.0686,-0.4800,-0.1800,0.6400,0.0000,-0.3908,-0.1524,0.0169,998,1492,1497,1504,1000,1000,1505,1000,1000,1391,1005,1494,1139,-0.1372,-0.0585,0.0119,-0.0146,0.0026,0.9989,-0.2215,0.5263,0.2553,-0.5600,0.2204,0.0082,0.0438,0.2204,0.0082,0.0438,0.3000,0.0600,0.0002,0,-1.9557,-3.5000,-0.0059,-1.9557,-3.5000,-0.0059
175.9217,68.9837,174.5877,-0.0000,-0.2743,-0.4800,-0.1800,0.6400,0.0000,-0.3908,-0.1524,0.0162,996,1492,1497,1502,1000,1000,1505,1000,1000,1391,1005,1494,1139,-0.0225,-0.0849,-0.0908,-0.0134,0.0092,0.9980,-0.2222,0.5270,0.2546,-0.5594,0.2204,0.0082,0.0438,0.2204,0.0082,0.0438,0.3000,0.0600,0.0002,0,-1.9557,-3.5000,-0.0059,-1.9557,-3.5000,-0.0059
175.9230,69.0005,174.5897,-0.0000,-0.1371,-0.4800,-0.1800,0.6400,0.0000,-0.3909,-0.1525,0.0171,996,1492,1497,1502,1000,1000,1505,1000,1000,1391,1005,1494,1139,0.0872,-0.0432,-0.0930,-0.0074,0.0031,1.0007,-0.2213,0.5262,0.2555,-0.5604,0.2204,0.0082,0.0438,0.2204,0.0082,0.0438,0.3000,0.0600,0.0002,0,-1.9557,-3.5000,-0.0059,-1.9557,-3.5000,-0.0059
175.9199,69.0168,174.5872,-0.0686,-0.1371,-0.4800,-0.1800,0.6400,0.0000,-0.3909,-0.1526,0.0168,996,1492,1497,1502,1000,1000,1505,1000,1000,1391,1005,1494,1139,0.0401,0.1247,0.0438,-0.0129,0.0006,1.0011,-0.2215,0.5266,0.2551,-0.5603,0.2204,0.0082,0.0438,0.2204,0.0082,0.0438,0.3000,0.0600,0.0002,0,-1.9557,-3.5000,-0.0059,-1.9557,-3.5000,-0.0059
175.9172,69.0328,174.5850,-0.0000,-0.2057,-0.4800,-0.1800,0.6400,0.0000,-0.3908,-0.1525,0.0173,996,1492,1497,1502,1000,1000,1505,1000,1000,1391,1005,1494,1139,0.0430,-0.0086,-0.1199,-0.0136,0.0008,1.0039,-0.2210,0.5261,0.2556,-0.5607,0.2204,0.0082,0.0438,0.2204,0.0082,0.0438,0.3000,0.0600,0.0002,0,-1.9557,-3.5000,-0.0059,-1.9557,-3.5000,-0.0059
175.9155,69.0490,174.5838,-0.0686,-0.1371,-0.4800,-0.1800,0.6400,0.0000,-0.3908,-0.1526,0.0168,996,1492,1497,1502,1000,1000,1505,1000,1000,1391,1005,1494,1139,-0.0565,-0.0672,0.0160,-0.0083,0.0023,0.9983,-0.2214,0.5265,0.2551,-0.5602,0.2204,0.0082,0.0438,0.2204,0.0082,0.0438,0.3000,0.0600,0.0002,0,-1.9557,-3.5000,-0.0059,-1.9557,-3.5000,-0.0059
175.9119,69.0655,174.5804,-0.0686,-0.1371,-0.4800,-0.1800,0.6400,0.0000,-0.3908,-0.1526,0.0169,998,1492,1497,1504,1000,1000,1505,1000,1000,1391,1005,1494,1139,-0.0917,-0.0958,0.0045,-0.0108,0.0088,0.9914,-0.2213,0.5265,0.2551,-0.5602,0.2204,0.0082,0.0438,0.2204,0.0082,0.0438,0.3000,0.0600,0.0002,0,-1.9557,-3.5000,-0.0059,-1.9557,-3.5000,-0.0059
175.9083,69.0824,174.5775,-0.0686,-0.1371,-0.4800,-0.1800,0.6400,0.0000,-0.3908,-0.1526,0.0160,996,1492,1497,1502,1000,1000,1505,1000,1000,1391,1005,1494,1139,-0.0278,-0.1111,-0.0142,-0.0087,0.0053,0.9959,-0.2222,0.5274,0.2542,-0.5594,0.2204,0.0082,0.0438,0.2204,0.0082,0.0438,0.3000,0.0600,0.0002,0,-1.9557,-3.5000,-0.0059,-1.9557,-3.5000,-0.0059
175.9040,69.0993,174.5734,-0.0686,-0.2057,-0.4800,-0.1800,0.6400,0.0000,-0.3909,-0.1526,0.0162,996,1492,1497,1502,1000,1000,1505,1000,1000,1391,1005,1494,1139,0.1804,-0.1682,0.1628,-0.0114,-0.0011,1.0049,-0.2221,0.5273,0.2544,-0.5597,0.2204,0.0082,0.0438,0.2204,0.0082,0.0438,0.3000,0.0600,0.0002,0,-1.9557,-3.5000,-0.0059,-1.9557,-3.5000,-0.0059
175.8991,69.1158,174.5694,-0.0686,-0.0000,-0.4800,-0.1800,0.6400,0.0000,-0.3907,-0.1527,0.0167,996,1492,1497,1502,1000,1000,1505,1000,1000,1391,1005,1494,1139,-0.1590,-0.0597,0.0632,-0.0125,-0.0027,1.0038,-0.2213,0.5267,0.2547,-0.5601,0.2204,0.0082,0.0438,0.2204,0.0082,0.0438,0.3000,0.0600,0.0002,0,-1.9557,-3.5000,-0.0059,-1.9557,-3.5000,-0.0059
175.8999,69.1328,174.5725,0.0686,-0.1371,-0.4800,-0.1800,0.6400,0.0000,-0.3908,-0.1526,0.0172,996,1492,1497,1502,1000,1000,1505,1000,1000,1391,1005,1494,1139,-0.0519,-0.3297,-0.1167,-0.0004,0.0289,0.9803,-0.2209,0.5261,0.2554,-0.5606,0.2204,0.0082,0.0438,0.2204,0.0082,0.0438,0.3000,0.0600,0.0002,0,-1.9557,-3.5000,-0.0059,-1.9557,-3.5000,-0.0059
175.8971,69.1491,174.5763,-0.0000,-0.3429,-0.4800,-0.1800,0.6400,0.0000,-0.3906,-0.1527,0.0170,996,1492,1497,1502,1000,1000,1505,1000,1000,1391,1005,1494,1139,-0.4916,-0.2415,-0.1321,-0.0162,-0.0319,1.0201,-0.2208,0.5262,0.2549,-0.5603,0.2204,0.0082,0.0438,0.2204,0.0082,0.0438,0.3000,0.0600,0.0002,0,-1.9557,-3.5000,-0.0059,-1.9557,-3.5000,-0.0059
175.8836,69.1651,174.5759,-0.1371,-0.3429,-0.4800,-0.1800,0.6400,0.0000,-0.3901,-0.1528,0.0161,998,1492,1497,1504,1000,1000,1505,1000,1000,1391,1005,1494,1139,-1.4887,-0.0611,0.1877,-0.0252,-0.0064,0.9912,-0.2212,0.5268,0.2534,-0.5590,0.2204,0.0082,0.0438,0.2204,0.0082,0.0438,0.3000,0.0600,0.0002,0,-1.9557,-3.5000,-0.0059,-1.9557,-3.5000,-0.0059
175.8636,69.1805,174.5736,-0.0000,-0.1371,-0.4800,-0.1800,0.6400,0.0000,-0.3898,-0.1528,0.0165,996,1492,1497,1502,1000,1000,1505,1000,1000,1391,1005,1494,1139,-2.0238,-0.1216,-0.1616,-0.0128,-0.0179,1.0027,-0.2205,0.5262,0.2535,-0.5591,0.2204,0.0082,0.0438,0.2204,0.0082,0.0438,0.3000,0.0600,0.0002,0,-1.9557,-3.5000,-0.0059,-1.9557,-3.5000,-0.0059
175.8512,69.1954,174.5840,-0.0686,-0.1371,-0.4800,-0.1800,0.6400,0.0000,-0.3899,-0.1531,0.0185,996,1492,1497,1502,1000,1000,1505,1000,1000,1391,1005,1494,1139,-1.8334,0.4761,-0.5257,-0.0096,-0.0156,0.9938,-0.2183,0.5245,0.2552,-0.5614,0.2204,0.0082,0.0438,0.2204,0.0082,0.0438,0.3000,0.0600,0.0002,0,-1.9557,-3.5000,-0.0059,-1.9557,-3.5000,-0.0059
175.8356,69.2086,174.5864,-0.0686,-0.1371,-0.4800,-0.1800,0.6400,0.0000,-0.3900,-0.1529,0.0173,996,1492,1497,1502,1000,1000,1505,1000,1000,1391,1005,1494,1139,-1.5538,-0.1539,-0.1033,-0.0180,0.0288,1.0247,-0.2198,0.5255,0.2544,-0.5602,0.2204,0.0082,0.0438,0.2204,0.0082,0.0438,0.3000,0.0600,0.0002,0,-1.9557,-3.5000,-0.0059,-1.9557,-3.5000,-0.0059
175.8273,69.2251,174.5960,-0.0686,-0.2743,-0.4800,-0.1800,0.6400,0.0000,-0.3902,-0.1531,0.0193,996,1492,1497,1502,1000,1000,1505,1000,1000,1391,1005,1494,1139,-0.9729,0.3157,-0.8018,-0.0094,-0.0022,0.9830,-0.2178,0.5240,0.2564,-0.5626,0.2204,0.0082,0.0438,0.2204,0.0082,0.0438,0.3000,0.0600,0.0002,0,-1.9557,-3.5000,-0.0059,-1.9557,-3.5000,-0.0059
175.8290,69.2383,174.6072,-0.0000,-0.2057,-0.4800,-0.1800,0.6400,0.0000,-0.3902,-0.1529,0.0174,996,1492,1497,1502,1000,1000,1505,1000,1000,1391,1005,1494,1139,-0.9957,-0.2535,-0.2220,0.0094,0.0377,1.0142,-0.2199,0.5257,0.2547,-0.5604,0.2204,0.0082,0.0438,0.2204,0.0082,0.0438,0.3000,0.0600,0.0002,0,-1.9557,-3.5000,-0.0059,-1.9557,-3.5000,-0.0059
175.8172,69.2580,174.6119,-0.0000,-0.3429,-0.4800,-0.1800,0.6400,0.0000,-0.3901,-0.1533,0.0185,998,1492,1497,1504,2008,1000,1505,1000,1000,1391,1005,1494,1139,-1.2206,0.6499,-0.4946,-0.0209,-0.0313,1.0193,-0.2183,0.5249,0.2552,-0.5619,0.2204,0.0082,0.0438,0.2204,0.0082,0.0438,0.3000,0.0600,0.0002,0,-1.9557,-3.5000,-0.0059,-1.9557,-3.5000,-0.0059
175.8199,69.2677,174.6201,-0.0000,-0.2743,-0.4800,-0.1800,0.6400,0.0000,-0.3903,-0.1529,0.0165,996,1492,1497,1502,2008,1000,1505,1000,1000,1391,1005,1494,1139,-0.6606,-0.3151,-0.1989,0.0114,0.0228,0.9720,-0.2209,0.5267,0.2539,-0.5598,0.2204,0.0082,0.0438,0.2204,0.0082,0.0438,0.3000,0.0600,0.0002,0,-1.9557,-3.5000,-0.0059,-1.9557,-3.5000,-0.0059
175.8079,69.2832,174.6271,-0.0000,-0.2057,-0.4800,-0.1800,0.6400,0.0000,-0.3899,-0.1538,0.0171,996,1492,1497,1502,2008,1000,1505,1000,1000,1391,1005,1494,1139,-1.6818,1.4989,-0.0975,-0.0435,-0.0494,1.0414,-0.2190,0.5265,0.2532,-0.5607,0.2204,0.0082,0.0438,0.2204,0.0082,0.0438,0.3000,0.0600,0.0002,0,-1.9557,-3.5000,-0.0059,-1.9557,-3.5000,-0.0059
175.7650,69.2975,174.5882,-0.0686,-0.1371,-0.4800,-0.1800,0.6400,0.0000,-0.3901,-0.1526,0.0091,996,1492,1497,1502,2008,1000,1505,1000,1000,1391,1005,1494,1139,-0.9212,-1.2318,2.5103,-0.0262,-0.0039,0.9541,-0.2284,0.5336,0.2466,-0.5518,0.2204,0.0082,0.0438,0.2204,0.0082,0.0438,0.3000,0.0600,0.0002,0,-1.9557,-3.5000,-0.0059,-1.9557,-3.5000,-0.0059
175.6523,69.3055,174.4780,-0.0000,-0.1371,-0.4800,-0.1800,0.6400,0.0000,-0.3904,-0.1540,0.0032,996,1492,1497,1502,2008,1000,1505,1000,1000,1391,1005,1494,1139,0.3153,1.9083,4.5489,-0.0089,0.0121,1.0168,-0.2332,0.5411,0.2396,-0.5476,0.2204,0.0082,0.0438,0.2204,0.0082,0.0438,0.3000,0.0600,0.0002,0,-1.9557,-3.5000,-0.0059,-1.9557,-3.5000,-0.0059
