roll_imu,pitch_imu,yaw_imu,alpha,beta,roll_des,pitch_des,yaw_des,throttle_des,roll_pid,pitch_pid,yaw_pid,radio_ch1,radio_ch2,radio_ch3,radio_ch4,radio_ch5,radio_ch6,radio_ch7,radio_ch8,radio_ch9,radio_ch10,radio_ch11,radio_ch12,radio_ch13,GyroX,GyroY,GyroZ,AccX,AccY,AccZ,s1_command,s2_command,s3_command,s4_command,kp_roll,ki_roll,kd_roll,kp_pitch,ki_pitch,kd_pitch,kp_yaw,ki_yaw,kd_yaw,failsafeTriggered,kp_alphaRoll,ki_alphaRoll,kd_alphaRoll,kp_betaPitch,ki_betaPitch,kd_betaPitch
0.0000,0.0000,0.0000,8.6743,-2.1600,0.0000,0.0000,0.0000,0.0000,0.0000,0.0000,0.0000,998,1481,1497,1504,1000,1000,1505,1000,1000,1505,1205,1332,1139,0.0000,0.0000,0.0000,0.0000,0.0000,0.0000,0.0000,0.0000,0.0000,0.0000,0.2204,0.0082,0.0438,0.2204,0.0082,0.0438,0.3000,0.0600,0.0002,0,-0.3000,-100.0000,-0.0010,-0.3000,-100.0000,-0.0010
-24.3112,-16.5670,3.6110,0.0686,0.2743,-1.2000,-0.1800,0.6400,0.0000,0.0530,0.0361,0.0068,996,1480,1497,1502,1000,1000,1505,1000,1000,1505,1205,1332,1139,-0.0253,0.0019,0.0331,0.0018,-0.0083,0.9554,0.0237,-0.0959,-0.0101,0.0823,0.2204,0.0082,0.0438,0.2204,0.0082,0.0438,0.3000,0.0600,0.0002,0,-2.2635,-143.5000,-0.0043,-2.2635,-143.5000,-0.0043
-24.2757,-16.5450,3.6012,0.0686,0.1371,-1.2000,-0.1800,0.6400,0.0000,0.0529,0.0361,0.0069,996,1480,1497,1502,1000,1000,1505,1000,1000,1505,1205,1332,1139,-0.0262,-0.0844,0.0047,0.0006,-0.0114,0.9990,0.0237,-0.0959,-0.0099,0.0821,0.2204,0.0082,0.0438,0.2204,0.0082,0.0438,0.3000,0.0600,0.0002,0,-2.2635,-143.5000,-0.0043,-2.2635,-143.5000,-0.0043
-24.2388,-16.5224,3.5907,0.0686,0.2743,-1.2000,-0.1800,0.6400,0.0000,0.0528,0.0361,0.0070,996,1480,1497,1502,1000,1000,1505,1000,1000,1505,1205,1332,1139,-0.0199,-0.0745,-0.0215,0.0001,-0.0123,1.0001,0.0238,-0.0959,-0.0098,0.0819,0.2204,0.0082,0.0438,0.2204,0.0082,0.0438,0.3000,0.0600,0.0002,0,-2.2635,-143.5000,-0.0043,-2.2635,-143.5000,-0.0043
-24.2023,-16.5004,3.5807,0.1371,0.2057,-1.2000,-0.1800,0.6400,0.0000,0.0528,0.0360,0.0069,996,1480,1497,1502,1000,1000,1505,1000,1000,1505,1205,1332,1139,-0.0956,-0.0885,-0.0013,0.0012,-0.0099,1.0065,0.0237,-0.0957,-0.0098,0.0819,0.2204,0.0082,0.0438,0.2204,0.0082,0.0438,0.3000,0.0600,0.0002,0,-2.2635,-143.5000,-0.0043,-2.2635,-143.5000,-0.0043
-24.1657,-16.4782,3.5706,-0.0000,0.2743,-1.2000,-0.1800,0.6400,0.0000,0.0527,0.0360,0.0069,996,1480,1497,1502,1000,1000,1505,1000,1000,1505,1205,1332,1139,-0.0873,-0.1010,0.0135,-0.0014,-0.0135,1.0013,0.0236,-0.0956,-0.0098,0.0818,0.2204,0.0082,0.0438,0.2204,0.0082,0.0438,0.3000,0.0600,0.0002,0,-2.2635,-143.5000,-0.0043,-2.2635,-143.5000,-0.0043
-24.1289,-16.4556,3.5600,0.0686,0.1371,-1.2000,-0.1800,0.6400,0.0000,0.0526,0.0359,0.0071,998,1481,1497,1504,1000,1000,1505,1000,1000,1505,1205,1332,1139,-0.0523,-0.1166,-0.0652,-0.0002,-0.0123,1.0038,0.0238,-0.0956,-0.0096,0.0814,0.2204,0.0082,0.0438,0.2204,0.0082,0.0438,0.3000,0.0600,0.0002,0,-2.2635,-143.5000,-0.0043,-2.2635,-143.5000,-0.0043
-24.0919,-16.4330,3.5493,0.0686,0.2743,-1.2000,-0.1800,0.6400,0.0000,0.0525,0.0358,0.0061,996,1480,1497,1502,1000,1000,1505,1000,1000,1505,1205,1332,1139,-0.0161,-0.0422,-0.0360,0.0001,-0.0121,1.0028,0.0227,-0.0944,-0.0106,0.0823,0.2204,0.0082,0.0438,0.2204,0.0082,0.0438,0.3000,0.0600,0.0002,0,-2.2635,-143.5000,-0.0043,-2.2635,-143.5000,-0.0043
-24.0548,-16.4103,3.5389,0.0686,0.2057,-1.2000,-0.1800,0.6400,0.0000,0.0524,0.0358,0.0070,996,1480,1497,1502,1000,1000,1505,1000,1000,1505,1205,1332,1139,-0.0113,-0.0510,-0.0249,-0.0016,-0.0107,1.0044,0.0236,-0.0952,-0.0097,0.0812,0.2204,0.0082,0.0438,0.2204,0.0082,0.0438,0.3000,0.0600,0.0002,0,-2.2635,-143.5000,-0.0043,-2.2635,-143.5000,-0.0043
-24.0179,-16.3874,3.5288,0.0686,0.2743,-1.2000,-0.1800,0.6400,0.0000,0.0524,0.0358,0.0069,996,1480,1497,1502,1000,1000,1505,1000,1000,1505,1205,1332,1139,-0.0676,-0.0874,0.0009,-0.0032,-0.0114,1.0016,0.0236,-0.0951,-0.0097,0.0812,0.2204,0.0082,0.0438,0.2204,0.0082,0.0438,0.3000,0.0600,0.0002,0,-2.2635,-143.5000,-0.0043,-2.2635,-143.5000,-0.0043
-23.9811,-16.3643,3.5183,0.1371,0.2743,-1.2000,-0.1800,0.6400,0.0000,0.0523,0.0357,0.0069,996,1480,1497,1502,1000,1000,1505,1000,1000,1505,1205,1332,1139,-0.0019,-0.0692,0.0204,-0.0028,-0.0111,0.9970,0.0234,-0.0948,-0.0097,0.0811,0.2204,0.0082,0.0438,0.2204,0.0082,0.0438,0.3000,0.0600,0.0002,0,-2.2635,-143.5000,-0.0043,-2.2635,-143.5000,-0.0043
-23.9440,-16.3421,3.5082,-0.2057,0.2057,-1.2000,-0.1800,0.6400,0.0000,0.0522,0.0357,0.0070,996,1480,1497,1502,1000,1000,1505,1000,1000,1505,1205,1332,1139,-0.0255,-0.1271,-0.0217,-0.0004,-0.0127,0.9992,0.0235,-0.0949,-0.0095,0.0808,0.2204,0.0082,0.0438,0.2204,0.0082,0.0438,0.3000,0.0600,0.0002,0,-2.2635,-143.5000,-0.0043,-2.2635,-143.5000,-0.0043
-23.9073,-16.3199,3.4983,0.0686,0.0686,-1.2000,-0.1800,0.6400,0.0000,0.0521,0.0356,0.0071,998,1481,1497,1504,1000,1000,1505,1000,1000,1505,1205,1332,1139,-0.0470,-0.1241,-0.0475,0.0018,-0.0090,1.0033,0.0236,-0.0949,-0.0094,0.0806,0.2204,0.0082,0.0438,0.2204,0.0082,0.0438,0.3000,0.0600,0.0002,0,-2.2635,-143.5000,-0.0043,-2.2635,-143.5000,-0.0043
-23.8697,-16.2971,3.4877,-0.0000,0.0686,-1.2000,-0.1800,0.6400,0.0000,0.0520,0.0355,0.0060,996,1480,1497,1502,1000,1000,1505,1000,1000,1505,1205,1332,1139,0.0729,-0.0325,-0.0131,-0.0010,-0.0090,1.0010,0.0224,-0.0935,-0.0105,0.0815,0.2204,0.0082,0.0438,0.2204,0.0082,0.0438,0.3000,0.0600,0.0002,0,-2.2635,-143.5000,-0.0043,-2.2635,-143.5000,-0.0043
-23.8321,-16.2739,3.4773,0.0686,0.2057,-1.2000,-0.1800,0.6400,0.0000,0.0520,0.0355,0.0070,996,1480,1497,1502,1000,1000,1505,1000,1000,1505,1205,1332,1139,-0.0723,0.0123,0.0108,-0.0007,-0.0106,1.0010,0.0235,-0.0944,-0.0095,0.0805,0.2204,0.0082,0.0438,0.2204,0.0082,0.0438,0.3000,0.0600,0.0002,0,-2.2635,-143.5000,-0.0043,-2.2635,-143.5000,-0.0043
-23.7948,-16.2512,3.4672,0.0686,-0.0000,-1.2000,-0.1800,0.6400,0.0000,0.0519,0.0355,0.0068,996,1480,1497,1502,1000,1000,1505,1000,1000,1505,1205,1332,1139,-0.0025,-0.1066,0.0250,-0.0010,-0.0092,0.9937,0.0232,-0.0942,-0.0095,0.0805,0.2204,0.0082,0.0438,0.2204,0.0082,0.0438,0.3000,0.0600,0.0002,0,-2.2635,-143.5000,-0.0043,-2.2635,-143.5000,-0.0043
-23.7580,-16.2290,3.4569,0.0686,0.0686,-1.2000,-0.1800,0.6400,0.0000,0.0518,0.0354,0.0070,996,1480,1497,1502,1000,1000,1505,1000,1000,1505,1205,1332,1139,-0.0479,-0.0753,-0.0316,-0.0002,-0.0099,1.0071,0.0234,-0.0942,-0.0094,0.0802,0.2204,0.0082,0.0438,0.2204,0.0082,0.0438,0.3000,0.0600,0.0002,0,-2.2635,-143.5000,-0.0043,-2.2635,-143.5000,-0.0043
-23.7215,-16.2060,3.4469,0.1371,0.0686,-1.2000,-0.1800,0.6400,0.0000,0.0517,0.0353,0.0070,996,1480,1497,1502,1000,1000,1505,1000,1000,1505,1205,1332,1139,-0.1182,-0.0459,0.0065,0.0011,-0.0091,1.0022,0.0234,-0.0940,-0.0094,0.0801,0.2204,0.0082,0.0438,0.2204,0.0082,0.0438,0.3000,0.0600,0.0002,0,-2.2635,-143.5000,-0.0043,-2.2635,-143.5000,-0.0043
-23.6848,-16.1833,3.4370,0.0686,0.1371,-1.2000,-0.1800,0.6400,0.0000,0.0516,0.0353,0.0070,998,1481,1497,1504,1000,1000,1505,1000,1000,1505,1205,1332,1139,-0.0219,-0.1295,0.0056,0.0020,-0.0113,0.9996,0.0233,-0.0939,-0.0093,0.0800,0.2204,0.0082,0.0438,0.2204,0.0082,0.0438,0.3000,0.0600,0.0002,0,-2.2635,-143.5000,-0.0043,-2.2635,-143.5000,-0.0043
-23.6476,-16.1609,3.4264,0.0686,0.2057,-1.2000,-0.1800,0.6400,0.0000,0.0515,0.0353,0.0063,996,1480,1497,1502,1000,1000,1505,1000,1000,1505,1205,1332,1139,-0.0167,-0.0888,-0.0898,-0.0013,-0.0128,0.9988,0.0225,-0.0931,-0.0100,0.0805,0.2204,0.0082,0.0438,0.2204,0.0082,0.0438,0.3000,0.0600,0.0002,0,-2.2635,-143.5000,-0.0043,-2.2635,-143.5000,-0.0043
-23.6108,-16.1379,3.4163,0.0686,0.2743,-1.2000,-0.1800,0.6400,0.0000,0.0515,0.0352,0.0067,996,1480,1497,1502,1000,1000,1505,1000,1000,1505,1205,1332,1139,-0.0276,0.0399,0.0791,0.0010,-0.0085,0.9980,0.0230,-0.0933,-0.0096,0.0799,0.2204,0.0082,0.0438,0.2204,0.0082,0.0438,0.3000,0.0600,0.0002,0,-2.2635,-143.5000,-0.0043,-2.2635,-143.5000,-0.0043
-23.5740,-16.1146,3.4070,0.0686,0.2743,-1.2000,-0.1800,0.6400,0.0000,0.0514,0.0352,0.0070,996,1480,1497,1502,1000,1000,1505,1000,1000,1505,1205,1332,1139,-0.0672,-0.0740,0.0135,0.0007,-0.0092,0.9999,0.0232,-0.0935,-0.0092,0.0796,0.2204,0.0082,0.0438,0.2204,0.0082,0.0438,0.3000,0.0600,0.0002,0,-2.2635,-143.5000,-0.0043,-2.2635,-143.5000,-0.0043
-23.5371,-16.0916,3.3965,0.0686,0.2743,-1.2000,-0.1800,0.6400,0.0000,0.0513,0.0351,0.0071,996,1480,1497,1502,1000,1000,1505,1000,1000,1505,1205,1332,1139,-0.0417,-0.0418,-0.0435,-0.0005,-0.0100,1.0043,0.0233,-0.0935,-0.0091,0.0793,0.2204,0.0082,0.0438,0.2204,0.0082,0.0438,0.3000,0.0600,0.0002,0,-2.2635,-143.5000,-0.0043,-2.2635,-143.5000,-0.0043
-23.5002,-16.0688,3.3864,0.0686,0.2743,-1.2000,-0.1800,0.6400,0.0000,0.0512,0.0351,0.0071,996,1480,1497,1502,1000,1000,1505,1000,1000,1505,1205,1332,1139,-0.0185,-0.1069,-0.0127,0.0010,-0.0094,0.9991,0.0232,-0.0933,-0.0091,0.0792,0.2204,0.0082,0.0438,0.2204,0.0082,0.0438,0.3000,0.0600,0.0002,0,-2.2635,-143.5000,-0.0043,-2.2635,-143.5000,-0.0043
-23.4628,-16.0458,3.3759,0.0686,0.0686,-1.2000,-0.1800,0.6400,0.0000,0.0512,0.0350,0.0069,998,1481,1497,1504,1000,1000,1505,1000,1000,1505,1205,1332,1139,-0.0893,0.0017,0.0274,0.0004,-0.0103,1.0036,0.0231,-0.0930,-0.0093,0.0793,0.2204,0.0082,0.0438,0.2204,0.0082,0.0438,0.3000,0.0600,0.0002,0,-2.2635,-143.5000,-0.0043,-2.2635,-143.5000,-0.0043
-23.4255,-16.0224,3.3657,-0.0000,0.2057,-1.2000,-0.1800,0.6400,0.0000,0.0510,0.0349,0.0061,996,1480,1497,1502,1000,1000,1505,1000,1000,1505,1205,1332,1139,0.0026,-0.0609,-0.0018,0.0029,-0.0106,1.0014,0.0222,-0.0920,-0.0100,0.0799,0.2204,0.0082,0.0438,0.2204,0.0082,0.0438,0.3000,0.0600,0.0002,0,-2.2635,-143.5000,-0.0043,-2.2635,-143.5000,-0.0043
-23.3883,-16.0001,3.3555,0.0686,0.2057,-1.2000,-0.1800,0.6400,0.0000,0.0510,0.0349,0.0071,996,1480,1497,1502,1000,1000,1505,1000,1000,1505,1205,1332,1139,-0.0452,-0.1046,-0.0450,-0.0026,-0.0102,0.9993,0.0232,-0.0930,-0.0090,0.0788,0.2204,0.0082,0.0438,0.2204,0.0082,0.0438,0.3000,0.0600,0.0002,0,-2.2635,-143.5000,-0.0043,-2.2635,-143.5000,-0.0043
-23.3514,-15.9773,3.3453,0.0686,0.2743,-1.2000,-0.1800,0.6400,0.0000,0.0509,0.0348,0.0072,996,1480,1497,1502,1000,1000,1505,1000,1000,1505,1205,1332,1139,-0.0767,-0.0604,-0.0446,-0.0001,-0.0126,1.0048,0.0232,-0.0929,-0.0089,0.0786,0.2204,0.0082,0.0438,0.2204,0.0082,0.0438,0.3000,0.0600,0.0002,0,-2.2635,-143.5000,-0.0043,-2.2635,-143.5000,-0.0043
-23.3147,-15.9545,3.3354,0.0686,-0.0000,-1.2000,-0.1800,0.6400,0.0000,0.0508,0.0348,0.0070,996,1480,1497,1502,1000,1000,1505,1000,1000,1505,1205,1332,1139,-0.0654,-0.1300,0.0230,0.0019,-0.0102,0.9996,0.0230,-0.0926,-0.0090,0.0787,0.2204,0.0082,0.0438,0.2204,0.0082,0.0438,0.3000,0.0600,0.0002,0,-2.2635,-143.5000,-0.0043,-2.2635,-143.5000,-0.0043
-23.2779,-15.9317,3.3261,0.1371,0.0686,-1.2000,-0.1800,0.6400,0.0000,0.0507,0.0347,0.0068,996,1480,1497,1502,1000,1000,1505,1000,1000,1505,1205,1332,1139,-0.0055,-0.0483,0.0599,0.0019,-0.0128,0.9965,0.0228,-0.0923,-0.0091,0.0786,0.2204,0.0082,0.0438,0.2204,0.0082,0.0438,0.3000,0.0600,0.0002,0,-2.2635,-143.5000,-0.0043,-2.2635,-143.5000,-0.0043
-23.2407,-15.9090,3.3158,0.0686,0.2743,-1.2000,-0.1800,0.6400,0.0000,0.0507,0.0347,0.0072,998,1481,1497,1504,1000,1000,1505,1000,1000,1505,1205,1332,1139,-0.0860,-0.0869,-0.0504,-0.0014,-0.0125,1.0020,0.0232,-0.0926,-0.0087,0.0781,0.2204,0.0082,0.0438,0.2204,0.0082,0.0438,0.3000,0.0600,0.0002,0,-2.2635,-143.5000,-0.0043,-2.2635,-143.5000,-0.0043
-23.2041,-15.8863,3.3058,0.0686,-0.0000,-1.2000,-0.1800,0.6400,0.0000,0.0506,0.0347,0.0062,996,1480,1497,1502,1000,1000,1505,1000,1000,1505,1205,1332,1139,-0.1146,-0.1187,-0.0190,-0.0006,-0.0142,0.9971,0.0221,-0.0915,-0.0097,0.0791,0.2204,0.0082,0.0438,0.2204,0.0082,0.0438,0.3000,0.0600,0.0002,0,-2.2635,-143.5000,-0.0043,-2.2635,-143.5000,-0.0043
-23.1672,-15.8641,3.2960,-0.0000,-0.0686,-1.2000,-0.1800,0.6400,0.0000,0.0505,0.0346,0.0072,996,1480,1497,1502,1000,1000,1505,1000,1000,1505,1205,1332,1139,0.0003,-0.0805,-0.0374,0.0031,-0.0103,0.9985,0.0230,-0.0922,-0.0087,0.0779,0.2204,0.0082,0.0438,0.2204,0.0082,0.0438,0.3000,0.0600,0.0002,0,-2.2635,-143.5000,-0.0043,-2.2635,-143.5000,-0.0043
-23.1302,-15.8416,3.2862,0.0686,0.2057,-1.2000,-0.1800,0.6400,0.0000,0.0504,0.0346,0.0072,996,1480,1497,1502,1000,1000,1505,1000,1000,1505,1205,1332,1139,-0.0925,-0.0739,-0.0421,-0.0014,-0.0091,1.0000,0.0230,-0.0921,-0.0087,0.0778,0.2204,0.0082,0.0438,0.2204,0.0082,0.0438,0.3000,0.0600,0.0002,0,-2.2635,-143.5000,-0.0043,-2.2635,-143.5000,-0.0043
-23.0934,-15.8187,3.2762,0.0686,0.2743,-1.2000,-0.1800,0.6400,0.0000,0.0503,0.0345,0.0071,996,1480,1497,1502,1000,1000,1505,1000,1000,1505,1205,1332,1139,-0.0581,-0.0485,-0.0005,-0.0018,-0.0095,0.9995,0.0229,-0.0919,-0.0088,0.0778,0.2204,0.0082,0.0438,0.2204,0.0082,0.0438,0.3000,0.0600,0.0002,0,-2.2635,-143.5000,-0.0043,-2.2635,-143.5000,-0.0043
-23.0567,-15.7960,3.2668,0.0686,0.0686,-1.2000,-0.1800,0.6400,0.0000,0.0502,0.0345,0.0070,996,1480,1497,1502,1000,1000,1505,1000,1000,1505,1205,1332,1139,-0.0056,-0.0800,0.0422,-0.0002,-0.0117,1.0022,0.0227,-0.0916,-0.0088,0.0777,0.2204,0.0082,0.0438,0.2204,0.0082,0.0438,0.3000,0.0600,0.0002,0,-2.2635,-143.5000,-0.0043,-2.2635,-143.5000,-0.0043
-23.0197,-15.7724,3.2569,0.0686,0.2057,-1.2000,-0.1800,0.6400,0.0000,0.0502,0.0344,0.0070,998,1481,1497,1504,1000,1000,1505,1000,1000,1505,1205,1332,1139,-0.0430,0.0073,0.0305,0.0014,-0.0145,0.9982,0.0228,-0.0915,-0.0088,0.0775,0.2204,0.0082,0.0438,0.2204,0.0082,0.0438,0.3000,0.0600,0.0002,0,-2.2635,-143.5000,-0.0043,-2.2635,-143.5000,-0.0043
-22.9827,-15.7492,3.2465,0.0686,0.2743,-1.2000,-0.1800,0.6400,0.0000,0.0501,0.0343,0.0062,996,1480,1497,1502,1000,1000,1505,1000,1000,1505,1205,1332,1139,0.0203,-0.0544,-0.0505,0.0005,-0.0082,1.0036,0.0219,-0.0906,-0.0095,0.0782,0.2204,0.0082,0.0438,0.2204,0.0082,0.0438,0.3000,0.0600,0.0002,0,-2.2635,-143.5000,-0.0043,-2.2635,-143.5000,-0.0043
-22.9453,-15.7263,3.2362,0.0686,0.2743,-1.2000,-0.1800,0.6400,0.0000,0.0500,0.0343,0.0071,996,1480,1497,1502,1000,1000,1505,1000,1000,1505,1205,1332,1139,-0.0462,-0.0739,-0.0298,-0.0012,-0.0122,0.9993,0.0228,-0.0914,-0.0086,0.0772,0.2204,0.0082,0.0438,0.2204,0.0082,0.0438,0.3000,0.0600,0.0002,0,-2.2635,-143.5000,-0.0043,-2.2635,-143.5000,-0.0043
-22.9082,-15.7029,3.2260,-0.0000,0.1371,-1.2000,-0.1800,0.6400,0.0000,0.0499,0.0342,0.0069,996,1480,1497,1502,1000,1000,1505,1000,1000,1505,1205,1332,1139,-0.0429,0.0080,0.0314,-0.0020,-0.0112,0.9996,0.0226,-0.0911,-0.0088,0.0772,0.2204,0.0082,0.0438,0.2204,0.0082,0.0438,0.3000,0.0600,0.0002,0,-2.2635,-143.5000,-0.0043,-2.2635,-143.5000,-0.0043
-22.8711,-15.6790,3.2161,0.0686,-0.0686,-1.2000,-0.1800,0.6400,0.0000,0.0498,0.0342,0.0072,996,1480,1497,1502,1000,1000,1505,1000,1000,1505,1205,1332,1139,-0.0003,-0.0037,-0.0201,0.0012,-0.0110,1.0006,0.0228,-0.0911,-0.0085,0.0768,0.2204,0.0082,0.0438,0.2204,0.0082,0.0438,0.3000,0.0600,0.0002,0,-2.2635,-143.5000,-0.0043,-2.2635,-143.5000,-0.0043
-22.8336,-15.6560,3.2056,0.0686,0.1371,-1.2000,-0.1800,0.6400,0.0000,0.0497,0.0342,0.0072,996,1480,1497,1502,1000,1000,1505,1000,1000,1505,1205,1332,1139,-0.0217,-0.1303,-0.0432,0.0007,-0.0092,1.0011,0.0228,-0.0911,-0.0084,0.0767,0.2204,0.0082,0.0438,0.2204,0.0082,0.0438,0.3000,0.0600,0.0002,0,-2.2635,-143.5000,-0.0043,-2.2635,-143.5000,-0.0043
-22.7960,-15.6329,3.1956,0.0686,0.2057,-1.2000,-0.1800,0.6400,0.0000,0.0496,0.0341,0.0072,998,1481,1497,1504,1000,1000,1505,1000,1000,1505,1205,1332,1139,0.0437,-0.1478,-0.0138,0.0013,-0.0111,1.0031,0.0227,-0.0909,-0.0084,0.0766,0.2204,0.0082,0.0438,0.2204,0.0082,0.0438,0.3000,0.0600,0.0002,0,-2.2635,-143.5000,-0.0043,-2.2635,-143.5000,-0.0043
-22.7589,-15.6104,3.1856,0.0686,0.2743,-1.2000,-0.1800,0.6400,0.0000,0.0496,0.0341,0.0061,996,1480,1497,1502,1000,1000,1505,1000,1000,1505,1205,1332,1139,-0.1441,-0.1650,-0.0008,0.0036,-0.0104,1.0080,0.0216,-0.0898,-0.0095,0.0776,0.2204,0.0082,0.0438,0.2204,0.0082,0.0438,0.3000,0.0600,0.0002,0,-2.2635,-143.5000,-0.0043,-2.2635,-143.5000,-0.0043
-22.7220,-15.5876,3.1761,0.0686,0.2743,-1.2000,-0.1800,0.6400,0.0000,0.0495,0.0340,0.0072,996,1480,1497,1502,1000,1000,1505,1000,1000,1505,1205,1332,1139,-0.0022,-0.0528,-0.0079,0.0024,-0.0120,1.0016,0.0227,-0.0906,-0.0084,0.0763,0.2204,0.0082,0.0438,0.2204,0.0082,0.0438,0.3000,0.0600,0.0002,0,-2.2635,-143.5000,-0.0043,-2.2635,-143.5000,-0.0043
-22.6850,-15.5641,3.1667,0.1371,0.2057,-1.2000,-0.1800,0.6400,0.0000,0.0494,0.0339,0.0072,996,1480,1497,1502,1000,1000,1505,1000,1000,1505,1205,1332,1139,-0.0242,-0.0805,-0.0118,0.0001,-0.0095,0.9983,0.0227,-0.0906,-0.0083,0.0762,0.2204,0.0082,0.0438,0.2204,0.0082,0.0438,0.3000,0.0600,0.0002,0,-2.2635,-143.5000,-0.0043,-2.2635,-143.5000,-0.0043
-22.6480,-15.5404,3.1569,0.1371,0.0686,-1.2000,-0.1800,0.6400,0.0000,0.0493,0.0339,0.0068,996,1480,1497,1502,1000,1000,1505,1000,1000,1505,1205,1332,1139,-0.0444,-0.0550,0.0670,-0.0021,-0.0110,1.0032,0.0223,-0.0901,-0.0086,0.0764,0.2204,0.0082,0.0438,0.2204,0.0082,0.0438,0.3000,0.0600,0.0002,0,-2.2635,-143.5000,-0.0043,-2.2635,-143.5000,-0.0043
-22.6115,-15.5165,3.1485,0.1371,0.2743,-1.2000,-0.1800,0.6400,0.0000,0.0492,0.0338,0.0070,996,1480,1497,1502,1000,1000,1505,1000,1000,1505,1205,1332,1139,0.0015,-0.0358,0.0324,0.0001,-0.0095,1.0022,0.0225,-0.0901,-0.0084,0.0760,0.2204,0.0082,0.0438,0.2204,0.0082,0.0438,0.3000,0.0600,0.0002,0,-2.2635,-143.5000,-0.0043,-2.2635,-143.5000,-0.0043
-22.5741,-15.4934,3.1378,0.0686,-0.0000,-1.2000,-0.1800,0.6400,0.0000,0.0492,0.0338,0.0073,998,1481,1497,1504,1000,1000,1505,1000,1000,1505,1205,1332,1139,-0.0088,-0.0114,-0.0784,0.0003,-0.0097,0.9997,0.0227,-0.0902,-0.0081,0.0756,0.2204,0.0082,0.0438,0.2204,0.0082,0.0438,0.3000,0.0600,0.0002,0,-2.2635,-143.5000,-0.0043,-2.2635,-143.5000,-0.0043
-22.5369,-15.4695,3.1274,0.0686,0.0686,-1.2000,-0.1800,0.6400,0.0000,0.0491,0.0337,0.0062,996,1480,1497,1502,1000,1000,1505,1000,1000,1505,1205,1332,1139,-0.0160,-0.0141,0.0065,-0.0017,-0.0102,0.9990,0.0215,-0.0889,-0.0092,0.0766,0.2204,0.0082,0.0438,0.2204,0.0082,0.0438,0.3000,0.0600,0.0002,0,-2.2635,-143.5000,-0.0043,-2.2635,-143.5000,-0.0043
-22.4996,-15.4458,3.1174,0.0686,0.2057,-1.2000,-0.1800,0.6400,0.0000,0.0490,0.0337,0.0071,996,1480,1497,1502,1000,1000,1505,1000,1000,1505,1205,1332,1139,-0.0192,-0.0178,-0.0061,0.0005,-0.0124,0.9996,0.0224,-0.0897,-0.0083,0.0756,0.2204,0.0082,0.0438,0.2204,0.0082,0.0438,0.3000,0.0600,0.0002,0,-2.2635,-143.5000,-0.0043,-2.2635,-143.5000,-0.0043
-22.4625,-15.4219,3.1074,-0.0686,-0.0686,-1.2000,-0.1800,0.6400,0.0000,0.0489,0.0336,0.0072,996,1480,1497,1502,1000,1000,1505,1000,1000,1505,1205,1332,1139,0.0010,-0.0423,-0.0183,0.0005,-0.0118,0.9952,0.0225,-0.0897,-0.0081,0.0754,0.2204,0.0082,0.0438,0.2204,0.0082,0.0438,0.3000,0.0600,0.0002,0,-2.2635,-143.5000,-0.0043,-2.2635,-143.5000,-0.0043
-22.4254,-15.3982,3.0977,0.0686,0.1371,-1.2000,-0.1800,0.6400,0.0000,0.0488,0.0336,0.0071,996,1480,1497,1502,1000,1000,1505,1000,1000,1505,1205,1332,1139,-0.0440,-0.0649,0.0179,-0.0013,-0.0123,0.9998,0.0223,-0.0895,-0.0082,0.0754,0.2204,0.0082,0.0438,0.2204,0.0082,0.0438,0.3000,0.0600,0.0002,0,-2.2635,-143.5000,-0.0043,-2.2635,-143.5000,-0.0043
-22.3883,-15.3740,3.0878,0.0686,0.0686,-1.2000,-0.1800,0.6400,0.0000,0.0488,0.0335,0.0072,996,1480,1497,1502,1000,1000,1505,1000,1000,1505,1205,1332,1139,-0.0263,-0.0377,0.0018,0.0002,-0.0125,0.9959,0.0224,-0.0894,-0.0081,0.0751,0.2204,0.0082,0.0438,0.2204,0.0082,0.0438,0.3000,0.0600,0.0002,0,-2.2635,-143.5000,-0.0043,-2.2635,-143.5000,-0.0043
-22.3512,-15.3504,3.0781,0.0686,0.0686,-1.2000,-0.1800,0.6400,0.0000,0.0487,0.0334,0.0072,998,1481,1497,1504,1000,1000,1505,1000,1000,1505,1205,1332,1139,-0.0341,0.0127,-0.0233,-0.0025,-0.0107,0.9993,0.0225,-0.0893,-0.0080,0.0749,0.2204,0.0082,0.0438,0.2204,0.0082,0.0438,0.3000,0.0600,0.0002,0,-2.2635,-143.5000,-0.0043,-2.2635,-143.5000,-0.0043
-22.3141,-15.3272,3.0681,0.1371,0.2057,-1.2000,-0.1800,0.6400,0.0000,0.0486,0.0334,0.0061,996,1480,1497,1502,1000,1000,1505,1000,1000,1505,1205,1332,1139,-0.0843,-0.1432,0.0266,0.0008,-0.0112,1.0032,0.0212,-0.0881,-0.0091,0.0760,0.2204,0.0082,0.0438,0.2204,0.0082,0.0438,0.3000,0.0600,0.0002,0,-2.2635,-143.5000,-0.0043,-2.2635,-143.5000,-0.0043
-22.2776,-15.3038,3.0589,0.1371,0.0686,-1.2000,-0.1800,0.6400,0.0000,0.0485,0.0334,0.0070,996,1480,1497,1502,1000,1000,1505,1000,1000,1505,1205,1332,1139,-0.0527,-0.0960,0.0579,-0.0002,-0.0117,0.9988,0.0221,-0.0889,-0.0082,0.0749,0.2204,0.0082,0.0438,0.2204,0.0082,0.0438,0.3000,0.0600,0.0002,0,-2.2635,-143.5000,-0.0043,-2.2635,-143.5000,-0.0043
-22.2401,-15.2813,3.0494,0.1371,0.2057,-1.2000,-0.1800,0.6400,0.0000,0.0484,0.0333,0.0071,996,1480,1497,1502,1000,1000,1505,1000,1000,1505,1205,1332,1139,0.0272,-0.1167,-0.0223,-0.0005,-0.0110,1.0010,0.0222,-0.0889,-0.0079,0.0746,0.2204,0.0082,0.0438,0.2204,0.0082,0.0438,0.3000,0.0600,0.0002,0,-2.2635,-143.5000,-0.0043,-2.2635,-143.5000,-0.0043
-22.2029,-15.2580,3.0399,0.0686,0.2057,-1.2000,-0.1800,0.6400,0.0000,0.0483,0.0333,0.0069,996,1480,1497,1502,1000,1000,1505,1000,1000,1505,1205,1332,1139,-0.0131,-0.0884,0.0494,0.0000,-0.0127,1.0023,0.0220,-0.0886,-0.0081,0.0747,0.2204,0.0082,0.0438,0.2204,0.0082,0.0438,0.3000,0.0600,0.0002,0,-2.2635,-143.5000,-0.0043,-2.2635,-143.5000,-0.0043
-22.1658,-15.2345,3.0305,0.0686,0.2743,-1.2000,-0.1800,0.6400,0.0000,0.0483,0.0332,0.0072,996,1480,1497,1502,1000,1000,1505,1000,1000,1505,1205,1332,1139,-0.0503,-0.1318,-0.0143,0.0001,-0.0098,0.9993,0.0222,-0.0887,-0.0079,0.0743,0.2204,0.0082,0.0438,0.2204,0.0082,0.0438,0.3000,0.0600,0.0002,0,-2.2635,-143.5000,-0.0043,-2.2635,-143.5000,-0.0043
-22.1289,-15.2118,3.0214,0.0686,-0.0000,-1.2000,-0.1800,0.6400,0.0000,0.0482,0.0332,0.0072,998,1481,1497,1504,1000,1000,1505,1000,1000,1505,1205,1332,1139,-0.0438,-0.1363,0.0085,-0.0002,-0.0111,0.9968,0.0222,-0.0885,-0.0078,0.0742,0.2204,0.0082,0.0438,0.2204,0.0082,0.0438,0.3000,0.0600,0.0002,0,-2.2635,-143.5000,-0.0043,-2.2635,-143.5000,-0.0043
-22.0921,-15.1894,3.0122,0.0686,-0.0000,-1.2000,-0.1800,0.6400,0.0000,0.0481,0.0332,0.0063,996,1480,1497,1502,1000,1000,1505,1000,1000,1505,1205,1332,1139,-0.0735,-0.1702,-0.0389,-0.0011,-0.0093,0.9986,0.0213,-0.0876,-0.0087,0.0750,0.2204,0.0082,0.0438,0.2204,0.0082,0.0438,0.3000,0.0600,0.0002,0,-2.2635,-143.5000,-0.0043,-2.2635,-143.5000,-0.0043
-22.0550,-15.1663,3.0026,0.0686,0.0686,-1.2000,-0.1800,0.6400,0.0000,0.0480,0.0331,0.0072,996,1480,1497,1502,1000,1000,1505,1000,1000,1505,1205,1332,1139,-0.0130,-0.1031,-0.0011,0.0011,-0.0109,1.0045,0.0221,-0.0883,-0.0078,0.0739,0.2204,0.0082,0.0438,0.2204,0.0082,0.0438,0.3000,0.0600,0.0002,0,-2.2635,-143.5000,-0.0043,-2.2635,-143.5000,-0.0043
-22.0179,-15.1429,2.9934,0.0686,0.2057,-1.2000,-0.1800,0.6400,0.0000,0.0480,0.0330,0.0070,996,1480,1497,1502,1000,1000,1505,1000,1000,1505,1205,1332,1139,-0.0880,-0.0505,0.0337,-0.0013,-0.0108,0.9992,0.0220,-0.0880,-0.0079,0.0739,0.2204,0.0082,0.0438,0.2204,0.0082,0.0438,0.3000,0.0600,0.0002,0,-2.2635,-143.5000,-0.0043,-2.2635,-143.5000,-0.0043
-21.9811,-15.1193,2.9842,0.0686,0.2057,-1.2000,-0.1800,0.6400,0.0000,0.0479,0.0329,0.0071,996,1480,1497,1502,1000,1000,1505,1000,1000,1505,1205,1332,1139,-0.0508,-0.0436,0.0277,0.0002,-0.0098,0.9999,0.0221,-0.0880,-0.0078,0.0737,0.2204,0.0082,0.0438,0.2204,0.0082,0.0438,0.3000,0.0600,0.0002,0,-2.2635,-143.5000,-0.0043,-2.2635,-143.5000,-0.0043
-21.9440,-15.0960,2.9747,0.0686,0.2057,-1.2000,-0.1800,0.6400,0.0000,0.0478,0.0329,0.0072,996,1480,1497,1502,1000,1000,1505,1000,1000,1505,1205,1332,1139,0.0116,-0.0864,-0.0154,0.0020,-0.0123,1.0044,0.0221,-0.0879,-0.0076,0.0734,0.2204,0.0082,0.0438,0.2204,0.0082,0.0438,0.3000,0.0600,0.0002,0,-2.2635,-143.5000,-0.0043,-2.2635,-143.5000,-0.0043
-21.9068,-15.0723,2.9654,0.1371,0.2743,-1.2000,-0.1800,0.6400,0.0000,0.0477,0.0328,0.0071,998,1481,1497,1504,1000,1000,1505,1000,1000,1505,1205,1332,1139,-0.0522,-0.0233,0.0162,0.0011,-0.0109,0.9998,0.0220,-0.0877,-0.0077,0.0734,0.2204,0.0082,0.0438,0.2204,0.0082,0.0438,0.3000,0.0600,0.0002,0,-2.2635,-143.5000,-0.0043,-2.2635,-143.5000,-0.0043
-21.8695,-15.0493,2.9556,0.0686,0.0686,-1.2000,-0.1800,0.6400,0.0000,0.0476,0.0329,0.0063,996,1480,1497,1502,1000,1000,1505,1000,1000,1505,1205,1332,1139,0.0027,-0.2484,-0.0346,-0.0003,-0.0116,0.9988,0.0210,-0.0868,-0.0084,0.0742,0.2204,0.0082,0.0438,0.2204,0.0082,0.0438,0.3000,0.0600,0.0002,0,-2.2635,-143.5000,-0.0043,-2.2635,-143.5000,-0.0043
-21.8321,-15.0263,2.9458,0.0686,-0.0000,-1.2000,-0.1800,0.6400,0.0000,0.0475,0.0327,0.0073,996,1480,1497,1502,1000,1000,1505,1000,1000,1505,1205,1332,1139,-0.0575,-0.0345,-0.0454,-0.0039,-0.0099,1.0011,0.0221,-0.0875,-0.0076,0.0730,0.2204,0.0082,0.0438,0.2204,0.0082,0.0438,0.3000,0.0600,0.0002,0,-2.2635,-143.5000,-0.0043,-2.2635,-143.5000,-0.0043
-21.7949,-15.0022,2.9370,0.0686,0.0686,-1.2000,-0.1800,0.6400,0.0000,0.0474,0.0327,0.0068,996,1480,1497,1502,1000,1000,1505,1000,1000,1505,1205,1332,1139,0.0167,-0.0889,0.1076,0.0011,-0.0116,0.9999,0.0216,-0.0870,-0.0079,0.0733,0.2204,0.0082,0.0438,0.2204,0.0082,0.0438,0.3000,0.0600,0.0002,0,-2.2635,-143.5000,-0.0043,-2.2635,-143.5000,-0.0043
-21.7579,-14.9786,2.9278,0.0686,-0.0686,-1.2000,-0.1800,0.6400,0.0000,0.0474,0.0326,0.0071,996,1480,1497,1502,1000,1000,1505,1000,1000,1505,1205,1332,1139,-0.0776,-0.0522,0.0151,-0.0002,-0.0102,1.0003,0.0219,-0.0872,-0.0076,0.0729,0.2204,0.0082,0.0438,0.2204,0.0082,0.0438,0.3000,0.0600,0.0002,0,-2.2635,-143.5000,-0.0043,-2.2635,-143.5000,-0.0043
-21.7203,-14.9547,2.9182,0.0686,0.0686,-1.2000,-0.1800,0.6400,0.0000,0.0473,0.0326,0.0074,996,1480,1497,1502,1000,1000,1505,1000,1000,1505,1205,1332,1139,0.0339,-0.0968,-0.0460,0.0014,-0.0080,1.0031,0.0220,-0.0873,-0.0073,0.0725,0.2204,0.0082,0.0438,0.2204,0.0082,0.0438,0.3000,0.0600,0.0002,0,-2.2635,-143.5000,-0.0043,-2.2635,-143.5000,-0.0043
-21.6825,-14.9311,2.9083,-0.0686,-0.0000,-1.2000,-0.1800,0.6400,0.0000,0.0472,0.0325,0.0072,998,1481,1497,1504,1000,1000,1505,1000,1000,1505,1205,1332,1139,-0.0054,-0.0289,-0.0143,0.0009,-0.0138,1.0049,0.0219,-0.0869,-0.0075,0.0725,0.2204,0.0082,0.0438,0.2204,0.0082,0.0438,0.3000,0.0600,0.0002,0,-2.2635,-143.5000,-0.0043,-2.2635,-143.5000,-0.0043
-21.6455,-14.9079,2.8992,0.1371,0.2743,-1.2000,-0.1800,0.6400,0.0000,0.0471,0.0325,0.0063,996,1480,1497,1502,1000,1000,1505,1000,1000,1505,1205,1332,1139,-0.0692,-0.1203,-0.0194,-0.0000,-0.0105,0.9993,0.0210,-0.0860,-0.0083,0.0733,0.2204,0.0082,0.0438,0.2204,0.0082,0.0438,0.3000,0.0600,0.0002,0,-2.2635,-143.5000,-0.0043,-2.2635,-143.5000,-0.0043
-21.6087,-14.8843,2.8898,0.0686,-0.0000,-1.2000,-0.1800,0.6400,0.0000,0.0470,0.0324,0.0073,996,1480,1497,1502,1000,1000,1505,1000,1000,1505,1205,1332,1139,0.0107,-0.0674,-0.0124,-0.0014,-0.0115,1.0035,0.0219,-0.0867,-0.0073,0.0722,0.2204,0.0082,0.0438,0.2204,0.0082,0.0438,0.3000,0.0600,0.0002,0,-2.2635,-143.5000,-0.0043,-2.2635,-143.5000,-0.0043
-21.5714,-14.8606,2.8802,0.0686,-0.1371,-1.2000,-0.1800,0.6400,0.0000,0.0470,0.0324,0.0071,996,1480,1497,1502,1000,1000,1505,1000,1000,1505,1205,1332,1139,-0.0558,-0.0568,0.0427,0.0016,-0.0095,1.0045,0.0217,-0.0864,-0.0075,0.0723,0.2204,0.0082,0.0438,0.2204,0.0082,0.0438,0.3000,0.0600,0.0002,0,-2.2635,-143.5000,-0.0043,-2.2635,-143.5000,-0.0043
-21.5341,-14.8370,2.8710,0.0686,-0.0686,-1.2000,-0.1800,0.6400,0.0000,0.0469,0.0323,0.0073,996,1480,1497,1502,1000,1000,1505,1000,1000,1505,1205,1332,1139,0.0292,-0.0929,-0.0171,0.0014,-0.0138,1.0049,0.0218,-0.0865,-0.0072,0.0719,0.2204,0.0082,0.0438,0.2204,0.0082,0.0438,0.3000,0.0600,0.0002,0,-2.2635,-143.5000,-0.0043,-2.2635,-143.5000,-0.0043
-21.4971,-14.8131,2.8619,0.1371,0.2743,-1.2000,-0.1800,0.6400,0.0000,0.0468,0.0323,0.0072,996,1480,1497,1502,1000,1000,1505,1000,1000,1505,1205,1332,1139,-0.0352,-0.0421,0.0242,-0.0002,-0.0101,1.0005,0.0218,-0.0863,-0.0073,0.0718,0.2204,0.0082,0.0438,0.2204,0.0082,0.0438,0.3000,0.0600,0.0002,0,-2.2635,-143.5000,-0.0043,-2.2635,-143.5000,-0.0043
-21.4601,-14.7893,2.8526,0.0686,0.0686,-1.2000,-0.1800,0.6400,0.0000,0.0467,0.0322,0.0072,998,1481,1497,1504,1000,1000,1505,1000,1000,1505,1205,1332,1139,-0.0788,-0.0641,0.0075,0.0032,-0.0101,1.0033,0.0217,-0.0862,-0.0073,0.0717,0.2204,0.0082,0.0438,0.2204,0.0082,0.0438,0.3000,0.0600,0.0002,0,-2.2635,-143.5000,-0.0043,-2.2635,-143.5000,-0.0043
-21.4232,-14.7658,2.8435,0.0686,0.0686,-1.2000,-0.1800,0.6400,0.0000,0.0466,0.0322,0.0064,996,1480,1497,1502,1000,1000,1505,1000,1000,1505,1205,1332,1139,-0.0606,-0.0564,0.0030,-0.0013,-0.0092,1.0020,0.0208,-0.0852,-0.0081,0.0725,0.2204,0.0082,0.0438,0.2204,0.0082,0.0438,0.3000,0.0600,0.0002,0,-2.2635,-143.5000,-0.0043,-2.2635,-143.5000,-0.0043
-21.3862,-14.7422,2.8340,0.0686,0.2743,-1.2000,-0.1800,0.6400,0.0000,0.0465,0.0321,0.0074,996,1480,1497,1502,1000,1000,1505,1000,1000,1505,1205,1332,1139,-0.0179,-0.0868,-0.0443,0.0007,-0.0097,1.0027,0.0218,-0.0860,-0.0071,0.0713,0.2204,0.0082,0.0438,0.2204,0.0082,0.0438,0.3000,0.0600,0.0002,0,-2.2635,-143.5000,-0.0043,-2.2635,-143.5000,-0.0043
-21.3484,-14.7185,2.8243,0.1371,0.2743,-1.2000,-0.1800,0.6400,0.0000,0.0464,0.0321,0.0071,996,1480,1497,1502,1000,1000,1505,1000,1000,1505,1205,1332,1139,0.0691,-0.0370,0.0372,-0.0016,-0.0096,1.0014,0.0215,-0.0856,-0.0073,0.0714,0.2204,0.0082,0.0438,0.2204,0.0082,0.0438,0.3000,0.0600,0.0002,0,-2.2635,-143.5000,-0.0043,-2.2635,-143.5000,-0.0043
-21.3110,-14.6945,2.8156,0.0686,0.2743,-1.2000,-0.1800,0.6400,0.0000,0.0464,0.0321,0.0074,996,1480,1497,1502,1000,1000,1505,1000,1000,1505,1205,1332,1139,-0.0109,-0.1370,-0.0384,0.0002,-0.0107,0.9954,0.0217,-0.0858,-0.0070,0.0711,0.2204,0.0082,0.0438,0.2204,0.0082,0.0438,0.3000,0.0600,0.0002,0,-2.2635,-143.5000,-0.0043,-2.2635,-143.5000,-0.0043
-21.2735,-14.6712,2.8064,0.0686,0.2057,-1.2000,-0.1800,0.6400,0.0000,0.0463,0.0320,0.0074,996,1480,1497,1502,1000,1000,1505,1000,1000,1505,1205,1332,1139,-0.0398,-0.1109,-0.0271,-0.0006,-0.0097,1.0024,0.0217,-0.0857,-0.0069,0.0709,0.2204,0.0082,0.0438,0.2204,0.0082,0.0438,0.3000,0.0600,0.0002,0,-2.2635,-143.5000,-0.0043,-2.2635,-143.5000,-0.0043
-21.2365,-14.6478,2.7972,0.0686,0.0686,-1.2000,-0.1800,0.6400,0.0000,0.0462,0.0319,0.0074,998,1481,1497,1504,1000,1000,1505,1000,1000,1505,1205,1332,1139,0.0230,-0.1377,-0.0303,-0.0037,-0.0109,1.0001,0.0216,-0.0855,-0.0069,0.0708,0.2204,0.0082,0.0438,0.2204,0.0082,0.0438,0.3000,0.0600,0.0002,0,-2.2635,-143.5000,-0.0043,-2.2635,-143.5000,-0.0043
-21.1993,-14.6244,2.7881,0.0686,-0.0686,-1.2000,-0.1800,0.6400,0.0000,0.0461,0.0318,0.0065,996,1480,1497,1502,1000,1000,1505,1000,1000,1505,1205,1332,1139,-0.0344,-0.0288,-0.0544,-0.0001,-0.0111,0.9976,0.0208,-0.0845,-0.0078,0.0715,0.2204,0.0082,0.0438,0.2204,0.0082,0.0438,0.3000,0.0600,0.0002,0,-2.2635,-143.5000,-0.0043,-2.2635,-143.5000,-0.0043
-21.1616,-14.6009,2.7782,0.0686,0.2057,-1.2000,-0.1800,0.6400,0.0000,0.0460,0.0318,0.0073,996,1480,1497,1502,1000,1000,1505,1000,1000,1505,1205,1332,1139,0.0138,-0.0615,-0.0316,0.0008,-0.0093,1.0003,0.0216,-0.0852,-0.0069,0.0705,0.2204,0.0082,0.0438,0.2204,0.0082,0.0438,0.3000,0.0600,0.0002,0,-2.2635,-143.5000,-0.0043,-2.2635,-143.5000,-0.0043
-21.1242,-14.5775,2.7692,0.0686,-0.0686,-1.2000,-0.1800,0.6400,0.0000,0.0460,0.0318,0.0073,996,1480,1497,1502,1000,1000,1505,1000,1000,1505,1205,1332,1139,-0.0356,-0.0505,-0.0064,0.0011,-0.0120,0.9987,0.0216,-0.0851,-0.0069,0.0704,0.2204,0.0082,0.0438,0.2204,0.0082,0.0438,0.3000,0.0600,0.0002,0,-2.2635,-143.5000,-0.0043,-2.2635,-143.5000,-0.0043
-21.0867,-14.5541,2.7602,0.0686,-0.0000,-1.2000,-0.1800,0.6400,0.0000,0.0459,0.0317,0.0072,996,1480,1497,1502,1000,1000,1505,1000,1000,1505,1205,1332,1139,-0.0065,-0.1161,0.0402,0.0044,-0.0117,0.9999,0.0213,-0.0848,-0.0070,0.0704,0.2204,0.0082,0.0438,0.2204,0.0082,0.0438,0.3000,0.0600,0.0002,0,-2.2635,-143.5000,-0.0043,-2.2635,-143.5000,-0.0043
-21.0493,-14.5306,2.7513,0.1371,0.2057,-1.2000,-0.1800,0.6400,0.0000,0.0458,0.0317,0.0073,996,1480,1497,1502,1000,1000,1505,1000,1000,1505,1205,1332,1139,0.0068,-0.0489,-0.0133,0.0007,-0.0109,1.0011,0.0215,-0.0848,-0.0068,0.0701,0.2204,0.0082,0.0438,0.2204,0.0082,0.0438,0.3000,0.0600,0.0002,0,-2.2635,-143.5000,-0.0043,-2.2635,-143.5000,-0.0043
-21.0118,-14.5068,2.7420,0.0686,-0.0000,-1.2000,-0.1800,0.6400,0.0000,0.0457,0.0316,0.0075,998,1481,1497,1504,1000,1000,1505,1000,1000,1505,1205,1332,1139,-0.0596,-0.0782,-0.0644,0.0003,-0.0126,0.9983,0.0217,-0.0849,-0.0066,0.0698,0.2204,0.0082,0.0438,0.2204,0.0082,0.0438,0.3000,0.0600,0.0002,0,-2.2635,-143.5000,-0.0043,-2.2635,-143.5000,-0.0043
-20.9753,-14.4837,2.7331,0.0686,-0.0000,-1.2000,-0.1800,0.6400,0.0000,0.0457,0.0316,0.0062,996,1480,1497,1502,1000,1000,1505,1000,1000,1505,1205,1332,1139,-0.0471,-0.1607,0.0479,-0.0004,-0.0099,1.0000,0.0203,-0.0835,-0.0078,0.0710,0.2204,0.0082,0.0438,0.2204,0.0082,0.0438,0.3000,0.0600,0.0002,0,-2.2635,-143.5000,-0.0043,-2.2635,-143.5000,-0.0043
-20.9379,-14.4608,2.7244,0.0686,0.2743,-1.2000,-0.1800,0.6400,0.0000,0.0455,0.0316,0.0072,996,1480,1497,1502,1000,1000,1505,1000,1000,1505,1205,1332,1139,0.0184,-0.1775,0.0446,0.0012,-0.0096,0.9999,0.0211,-0.0843,-0.0068,0.0699,0.2204,0.0082,0.0438,0.2204,0.0082,0.0438,0.3000,0.0600,0.0002,0,-2.2635,-143.5000,-0.0043,-2.2635,-143.5000,-0.0043
-20.9002,-14.4370,2.7154,-0.0686,-0.1371,-1.2000,-0.1800,0.6400,0.0000,0.0455,0.0314,0.0074,996,1480,1497,1502,1000,1000,1505,1000,1000,1505,1205,1332,1139,-0.0184,-0.0489,-0.0157,0.0008,-0.0107,1.0005,0.0214,-0.0843,-0.0067,0.0695,0.2204,0.0082,0.0438,0.2204,0.0082,0.0438,0.3000,0.0600,0.0002,0,-2.2635,-143.5000,-0.0043,-2.2635,-143.5000,-0.0043
-20.8628,-14.4133,2.7064,0.1371,-0.0000,-1.2000,-0.1800,0.6400,0.0000,0.0454,0.0315,0.0073,996,1480,1497,1502,1000,1000,1505,1000,1000,1505,1205,1332,1139,0.0005,-0.2219,0.0291,0.0034,-0.0107,1.0011,0.0212,-0.0841,-0.0067,0.0696,0.2204,0.0082,0.0438,0.2204,0.0082,0.0438,0.3000,0.0600,0.0002,0,-2.2635,-143.5000,-0.0043,-2.2635,-143.5000,-0.0043
-20.8251,-14.3900,2.6972,0.0686,-0.0000,-1.2000,-0.1800,0.6400,0.0000,0.0453,0.0313,0.0076,996,1480,1497,1502,1000,1000,1505,1000,1000,1505,1205,1332,1139,0.0222,-0.0480,-0.0999,0.0033,-0.0117,0.9959,0.0216,-0.0843,-0.0063,0.0690,0.2204,0.0082,0.0438,0.2204,0.0082,0.0438,0.3000,0.0600,0.0002,0,-2.2635,-143.5000,-0.0043,-2.2635,-143.5000,-0.0043
-20.7879,-14.3662,2.6877,0.0686,-0.0686,-1.2000,-0.1800,0.6400,0.0000,0.0452,0.0313,0.0073,998,1481,1497,1504,1000,1000,1505,1000,1000,1505,1205,1332,1139,-0.0464,-0.0989,-0.0017,0.0005,-0.0106,1.0000,0.0213,-0.0839,-0.0066,0.0692,0.2204,0.0082,0.0438,0.2204,0.0082,0.0438,0.3000,0.0600,0.0002,0,-2.2635,-143.5000,-0.0043,-2.2635,-143.5000,-0.0043
-20.7507,-14.3422,2.6783,0.0686,0.2057,-1.2000,-0.1800,0.6400,0.0000,0.0452,0.0312,0.0063,996,1480,1497,1502,1000,1000,1505,1000,1000,1505,1205,1332,1139,-0.0657,-0.0543,-0.0039,0.0007,-0.0101,1.0025,0.0202,-0.0827,-0.0076,0.0701,0.2204,0.0082,0.0438,0.2204,0.0082,0.0438,0.3000,0.0600,0.0002,0,-2.2635,-143.5000,-0.0043,-2.2635,-143.5000,-0.0043
-20.7138,-14.3182,2.6694,0.1371,0.2057,-1.2000,-0.1800,0.6400,0.0000,0.0451,0.0312,0.0074,996,1480,1497,1502,1000,1000,1505,1000,1000,1505,1205,1332,1139,-0.0324,-0.0954,-0.0105,-0.0016,-0.0138,1.0029,0.0213,-0.0837,-0.0065,0.0689,0.2204,0.0082,0.0438,0.2204,0.0082,0.0438,0.3000,0.0600,0.0002,0,-2.2635,-143.5000,-0.0043,-2.2635,-143.5000,-0.0043
-20.6763,-14.2946,2.6601,0.1371,0.2057,-1.2000,-0.1800,0.6400,0.0000,0.0450,0.0311,0.0073,996,1480,1497,1502,1000,1000,1505,1000,1000,1505,1205,1332,1139,-0.0414,-0.0925,-0.0086,-0.0001,-0.0112,0.9976,0.0212,-0.0835,-0.0065,0.0688,0.2204,0.0082,0.0438,0.2204,0.0082,0.0438,0.3000,0.0600,0.0002,0,-2.2635,-143.5000,-0.0043,-2.2635,-143.5000,-0.0043
-20.6391,-14.2710,2.6513,0.0686,0.1371,-1.2000,-0.1800,0.6400,0.0000,0.0449,0.0311,0.0073,996,1480,1497,1502,1000,1000,1505,1000,1000,1505,1205,1332,1139,-0.0216,-0.1139,0.0285,0.0013,-0.0097,0.9991,0.0210,-0.0833,-0.0065,0.0688,0.2204,0.0082,0.0438,0.2204,0.0082,0.0438,0.3000,0.0600,0.0002,0,-2.2635,-143.5000,-0.0043,-2.2635,-143.5000,-0.0043
-20.6018,-14.2477,2.6424,0.0686,0.2743,-1.2000,-0.1800,0.6400,0.0000,0.0448,0.0311,0.0075,996,1480,1497,1502,1000,1000,1505,1000,1000,1505,1205,1332,1139,-0.0646,-0.1330,-0.0423,-0.0000,-0.0094,0.9995,0.0212,-0.0834,-0.0063,0.0684,0.2204,0.0082,0.0438,0.2204,0.0082,0.0438,0.3000,0.0600,0.0002,0,-2.2635,-143.5000,-0.0043,-2.2635,-143.5000,-0.0043
-20.5650,-14.2239,2.6335,0.0686,0.2743,-1.2000,-0.1800,0.6400,0.0000,0.0447,0.0310,0.0073,998,1481,1497,1504,1000,1000,1505,1000,1000,1505,1205,1332,1139,-0.0340,-0.0743,0.0191,0.0011,-0.0112,1.0020,0.0210,-0.0830,-0.0065,0.0685,0.2204,0.0082,0.0438,0.2204,0.0082,0.0438,0.3000,0.0600,0.0002,0,-2.2635,-143.5000,-0.0043,-2.2635,-143.5000,-0.0043
-20.5277,-14.2000,2.6249,0.0686,0.2057,-1.2000,-0.1800,0.6400,0.0000,0.0446,0.0309,0.0063,996,1480,1497,1502,1000,1000,1505,1000,1000,1505,1205,1332,1139,0.0090,-0.0208,0.0107,-0.0017,-0.0125,1.0008,0.0201,-0.0819,-0.0074,0.0692,0.2204,0.0082,0.0438,0.2204,0.0082,0.0438,0.3000,0.0600,0.0002,0,-2.2635,-143.5000,-0.0043,-2.2635,-143.5000,-0.0043
-20.4905,-14.1760,2.6159,0.0686,0.2743,-1.2000,-0.1800,0.6400,0.0000,0.0446,0.0309,0.0072,996,1480,1497,1502,1000,1000,1505,1000,1000,1505,1205,1332,1139,-0.0456,-0.0446,0.0462,-0.0031,-0.0114,1.0038,0.0210,-0.0827,-0.0065,0.0682,0.2204,0.0082,0.0438,0.2204,0.0082,0.0438,0.3000,0.0600,0.0002,0,-2.2635,-143.5000,-0.0043,-2.2635,-143.5000,-0.0043
-20.4532,-14.1521,2.6068,0.0686,-0.0000,-1.2000,-0.1800,0.6400,0.0000,0.0445,0.0309,0.0075,996,1480,1497,1502,1000,1000,1505,1000,1000,1505,1205,1332,1139,-0.0319,-0.1316,-0.0404,-0.0006,-0.0095,1.0020,0.0211,-0.0828,-0.0062,0.0679,0.2204,0.0082,0.0438,0.2204,0.0082,0.0438,0.3000,0.0600,0.0002,0,-2.2635,-143.5000,-0.0043,-2.2635,-143.5000,-0.0043
-20.4160,-14.1281,2.5974,0.0686,-0.0686,-1.2000,-0.1800,0.6400,0.0000,0.0444,0.0308,0.0072,996,1480,1497,1502,1000,1000,1505,1000,1000,1505,1205,1332,1139,-0.0407,-0.1052,0.0343,0.0002,-0.0114,0.9984,0.0208,-0.0824,-0.0064,0.0680,0.2204,0.0082,0.0438,0.2204,0.0082,0.0438,0.3000,0.0600,0.0002,0,-2.2635,-143.5000,-0.0043,-2.2635,-143.5000,-0.0043
-20.3790,-14.1038,2.5890,0.1371,-0.0000,-1.2000,-0.1800,0.6400,0.0000,0.0443,0.0307,0.0074,996,1480,1497,1502,1000,1000,1505,1000,1000,1505,1205,1332,1139,-0.0336,-0.1326,-0.0158,-0.0006,-0.0121,0.9963,0.0210,-0.0825,-0.0062,0.0676,0.2204,0.0082,0.0438,0.2204,0.0082,0.0438,0.3000,0.0600,0.0002,0,-2.2635,-143.5000,-0.0043,-2.2635,-143.5000,-0.0043
-20.3415,-14.0796,2.5801,0.0686,0.0686,-1.2000,-0.1800,0.6400,0.0000,0.0442,0.0307,0.0075,998,1481,1497,1504,1000,1000,1505,1000,1000,1505,1205,1332,1139,0.0497,-0.1218,-0.0328,0.0016,-0.0128,1.0013,0.0210,-0.0824,-0.0061,0.0674,0.2204,0.0082,0.0438,0.2204,0.0082,0.0438,0.3000,0.0600,0.0002,0,-2.2635,-143.5000,-0.0043,-2.2635,-143.5000,-0.0043
-20.3039,-14.0558,2.5713,0.0686,0.2743,-1.2000,-0.1800,0.6400,0.0000,0.0442,0.0306,0.0064,996,1480,1497,1502,1000,1000,1505,1000,1000,1505,1205,1332,1139,0.0090,-0.1050,-0.0036,-0.0008,-0.0138,0.9969,0.0199,-0.0812,-0.0071,0.0684,0.2204,0.0082,0.0438,0.2204,0.0082,0.0438,0.3000,0.0600,0.0002,0,-2.2635,-143.5000,-0.0043,-2.2635,-143.5000,-0.0043
-20.2667,-14.0318,2.5627,0.1371,0.2743,-1.2000,-0.1800,0.6400,0.0000,0.0441,0.0306,0.0074,996,1480,1497,1502,1000,1000,1505,1000,1000,1505,1205,1332,1139,0.0011,-0.0617,0.0107,0.0002,-0.0124,1.0042,0.0209,-0.0820,-0.0062,0.0673,0.2204,0.0082,0.0438,0.2204,0.0082,0.0438,0.3000,0.0600,0.0002,0,-2.2635,-143.5000,-0.0043,-2.2635,-143.5000,-0.0043
-20.2294,-14.0075,2.5543,-0.0000,0.2743,-1.2000,-0.1800,0.6400,0.0000,0.0440,0.0305,0.0073,996,1480,1497,1502,1000,1000,1505,1000,1000,1505,1205,1332,1139,0.0079,-0.1325,0.0514,0.0003,-0.0115,0.9986,0.0207,-0.0818,-0.0062,0.0673,0.2204,0.0082,0.0438,0.2204,0.0082,0.0438,0.3000,0.0600,0.0002,0,-2.2635,-143.5000,-0.0043,-2.2635,-143.5000,-0.0043
-20.1923,-13.9836,2.5464,-0.0000,-0.0686,-1.2000,-0.1800,0.6400,0.0000,0.0439,0.0305,0.0074,996,1480,1497,1502,1000,1000,1505,1000,1000,1505,1205,1332,1139,-0.0142,-0.1225,0.0263,-0.0014,-0.0124,1.0017,0.0208,-0.0818,-0.0061,0.0670,0.2204,0.0082,0.0438,0.2204,0.0082,0.0438,0.3000,0.0600,0.0002,0,-2.2635,-143.5000,-0.0043,-2.2635,-143.5000,-0.0043
-20.1548,-13.9600,2.5378,0.0686,-0.0000,-1.2000,-0.1800,0.6400,0.0000,0.0438,0.0304,0.0074,996,1480,1497,1502,1000,1000,1505,1000,1000,1505,1205,1332,1139,0.0179,-0.0873,-0.0064,0.0021,-0.0113,0.9974,0.0208,-0.0816,-0.0060,0.0669,0.2204,0.0082,0.0438,0.2204,0.0082,0.0438,0.3000,0.0600,0.0002,0,-2.2635,-143.5000,-0.0043,-2.2635,-143.5000,-0.0043
-20.1171,-13.9357,2.5289,0.0686,0.1371,-1.2000,-0.1800,0.6400,0.0000,0.0438,0.0303,0.0075,998,1481,1497,1504,1000,1000,1505,1000,1000,1505,1205,1332,1139,-0.0329,-0.0265,-0.0245,0.0004,-0.0131,1.0036,0.0210,-0.0816,-0.0059,0.0666,0.2204,0.0082,0.0438,0.2204,0.0082,0.0438,0.3000,0.0600,0.0002,0,-2.2635,-143.5000,-0.0043,-2.2635,-143.5000,-0.0043
-20.0802,-13.9114,2.5195,0.0686,0.1371,-1.2000,-0.1800,0.6400,0.0000,0.0437,0.0303,0.0067,996,1480,1497,1502,1000,1000,1505,1000,1000,1505,1205,1332,1139,-0.0757,-0.1045,-0.1068,-0.0017,-0.0116,0.9980,0.0201,-0.0807,-0.0067,0.0673,0.2204,0.0082,0.0438,0.2204,0.0082,0.0438,0.3000,0.0600,0.0002,0,-2.2635,-143.5000,-0.0043,-2.2635,-143.5000,-0.0043
-20.0433,-13.8872,2.5104,0.0686,0.2743,-1.2000,-0.1800,0.6400,0.0000,0.0436,0.0302,0.0073,996,1480,1497,1502,1000,1000,1505,1000,1000,1505,1205,1332,1139,-0.0193,-0.0509,0.0173,-0.0007,-0.0121,1.0036,0.0207,-0.0811,-0.0060,0.0665,0.2204,0.0082,0.0438,0.2204,0.0082,0.0438,0.3000,0.0600,0.0002,0,-2.2635,-143.5000,-0.0043,-2.2635,-143.5000,-0.0043
-20.0061,-13.8632,2.5017,0.0686,-0.0686,-1.2000,-0.1800,0.6400,0.0000,0.0435,0.0302,0.0075,996,1480,1497,1502,1000,1000,1505,1000,1000,1505,1205,1332,1139,-0.0849,-0.0977,-0.0340,-0.0029,-0.0100,1.0021,0.0208,-0.0812,-0.0058,0.0662,0.2204,0.0082,0.0438,0.2204,0.0082,0.0438,0.3000,0.0600,0.0002,0,-2.2635,-143.5000,-0.0043,-2.2635,-143.5000,-0.0043
-19.9692,-13.8388,2.4932,-0.0000,0.0686,-1.2000,-0.1800,0.6400,0.0000,0.0435,0.0301,0.0073,996,1480,1497,1502,1000,1000,1505,1000,1000,1505,1205,1332,1139,-0.0836,-0.0470,0.0532,0.0005,-0.0101,0.9994,0.0206,-0.0809,-0.0060,0.0663,0.2204,0.0082,0.0438,0.2204,0.0082,0.0438,0.3000,0.0600,0.0002,0,-2.2635,-143.5000,-0.0043,-2.2635,-143.5000,-0.0043
-19.9319,-13.8147,2.4850,-0.0000,0.0686,-1.2000,-0.1800,0.6400,0.0000,0.0433,0.0301,0.0073,996,1480,1497,1502,1000,1000,1505,1000,1000,1505,1205,1332,1139,0.0525,-0.1004,0.0395,0.0014,-0.0113,0.9989,0.0205,-0.0807,-0.0059,0.0661,0.2204,0.0082,0.0438,0.2204,0.0082,0.0438,0.3000,0.0600,0.0002,0,-2.2635,-143.5000,-0.0043,-2.2635,-143.5000,-0.0043
-19.8940,-13.7902,2.4762,-0.0000,0.0686,-1.2000,-0.1800,0.6400,0.0000,0.0433,0.0300,0.0074,998,1481,1497,1504,1000,1000,1505,1000,1000,1505,1205,1332,1139,-0.0143,-0.0571,0.0242,-0.0001,-0.0100,1.0012,0.0206,-0.0807,-0.0059,0.0659,0.2204,0.0082,0.0438,0.2204,0.0082,0.0438,0.3000,0.0600,0.0002,0,-2.2635,-143.5000,-0.0043,-2.2635,-143.5000,-0.0043
-19.8566,-13.7658,2.4679,0.0686,0.2743,-1.2000,-0.1800,0.6400,0.0000,0.0432,0.0300,0.0065,996,1480,1497,1502,1000,1000,1505,1000,1000,1505,1205,1332,1139,0.0307,-0.1368,-0.0167,0.0006,-0.0118,0.9952,0.0197,-0.0797,-0.0066,0.0666,0.2204,0.0082,0.0438,0.2204,0.0082,0.0438,0.3000,0.0600,0.0002,0,-2.2635,-143.5000,-0.0043,-2.2635,-143.5000,-0.0043
-19.8185,-13.7417,2.4598,0.0686,0.1371,-1.2000,-0.1800,0.6400,0.0000,0.0431,0.0299,0.0074,996,1480,1497,1502,1000,1000,1505,1000,1000,1505,1205,1332,1139,0.0185,-0.0939,0.0033,0.0037,-0.0123,1.0003,0.0206,-0.0804,-0.0057,0.0656,0.2204,0.0082,0.0438,0.2204,0.0082,0.0438,0.3000,0.0600,0.0002,0,-2.2635,-143.5000,-0.0043,-2.2635,-143.5000,-0.0043
-19.7808,-13.7173,2.4514,0.1371,0.2743,-1.2000,-0.1800,0.6400,0.0000,0.0430,0.0298,0.0071,996,1480,1497,1502,1000,1000,1505,1000,1000,1505,1205,1332,1139,-0.0091,0.0093,0.1138,0.0013,-0.0106,1.0027,0.0202,-0.0799,-0.0061,0.0658,0.2204,0.0082,0.0438,0.2204,0.0082,0.0438,0.3000,0.0600,0.0002,0,-2.2635,-143.5000,-0.0043,-2.2635,-143.5000,-0.0043
-19.7434,-13.6921,2.4431,0.0686,0.2057,-1.2000,-0.1800,0.6400,0.0000,0.0429,0.0298,0.0074,996,1480,1497,1502,1000,1000,1505,1000,1000,1505,1205,1332,1139,-0.0513,-0.0585,0.0226,-0.0004,-0.0088,1.0002,0.0205,-0.0801,-0.0057,0.0654,0.2204,0.0082,0.0438,0.2204,0.0082,0.0438,0.3000,0.0600,0.0002,0,-2.2635,-143.5000,-0.0043,-2.2635,-143.5000,-0.0043
-19.7060,-13.6682,2.4349,0.0686,-0.0000,-1.2000,-0.1800,0.6400,0.0000,0.0428,0.0298,0.0075,996,1480,1497,1502,1000,1000,1505,1000,1000,1505,1205,1332,1139,0.0392,-0.0668,0.0079,0.0003,-0.0123,0.9963,0.0205,-0.0800,-0.0056,0.0651,0.2204,0.0082,0.0438,0.2204,0.0082,0.0438,0.3000,0.0600,0.0002,0,-2.2635,-143.5000,-0.0043,-2.2635,-143.5000,-0.0043
-19.6685,-13.6436,2.4265,0.0686,0.2743,-1.2000,-0.1800,0.6400,0.0000,0.0428,0.0297,0.0074,998,1481,1497,1504,1000,1000,1505,1000,1000,1505,1205,1332,1139,-0.0336,-0.0385,0.0123,0.0008,-0.0122,1.0056,0.0205,-0.0799,-0.0057,0.0651,0.2204,0.0082,0.0438,0.2204,0.0082,0.0438,0.3000,0.0600,0.0002,0,-2.2635,-143.5000,-0.0043,-2.2635,-143.5000,-0.0043
-19.6316,-13.6192,2.4179,0.1371,0.2743,-1.2000,-0.1800,0.6400,0.0010,0.0427,0.0297,0.0063,1001,1480,1497,1502,1000,1000,1505,1000,1000,1505,1205,1332,1139,-0.0169,-0.1314,0.0523,0.0000,-0.0085,1.0044,0.0203,-0.0777,-0.0057,0.0670,0.2204,0.0082,0.0438,0.2204,0.0082,0.0438,0.3000,0.0600,0.0002,0,-2.2635,-143.5000,-0.0043,-2.2635,-143.5000,-0.0043
-19.5944,-13.5958,2.4094,0.1371,0.2057,-1.2000,-0.1800,0.6400,0.0050,0.0426,0.0296,0.0075,1005,1480,1497,1502,1000,1000,1505,1000,1000,1505,1205,1332,1139,-0.0934,-0.1264,-0.0104,-0.0008,-0.0119,0.9985,0.0255,-0.0747,-0.0006,0.0698,0.2204,0.0082,0.0438,0.2204,0.0082,0.0438,0.3000,0.0600,0.0002,0,-2.2635,-143.5000,-0.0043,-2.2635,-143.5000,-0.0043
-19.5574,-13.5718,2.4012,0.1371,0.1371,-1.2000,-0.1800,0.6400,0.0060,0.0425,0.0296,0.0074,1006,1480,1497,1502,1000,1000,1505,1000,1000,1505,1205,1332,1139,0.0368,-0.1921,0.0210,-0.0007,-0.0105,1.0006,0.0263,-0.0735,0.0005,0.0707,0.2204,0.0082,0.0438,0.2204,0.0082,0.0438,0.3000,0.0600,0.0002,0,-2.2635,-143.5000,-0.0043,-2.2635,-143.5000,-0.0043
-19.5195,-13.5472,2.3929,0.0686,0.2743,-1.2000,-0.1800,0.6400,0.0060,0.0424,0.0295,0.0075,1006,1480,1497,1502,1000,1000,1505,1000,1000,1505,1205,1332,1139,-0.0317,-0.0269,0.0007,-0.0024,-0.0127,1.0051,0.0264,-0.0734,0.0005,0.0705,0.2204,0.0082,0.0438,0.2204,0.0082,0.0438,0.3000,0.0600,0.0002,0,-2.2635,-143.5000,-0.0043,-2.2635,-143.5000,-0.0043
-19.4822,-13.5222,2.3842,-0.0000,0.1371,-1.2000,-0.1800,0.6400,0.0060,0.0424,0.0294,0.0075,1006,1480,1497,1502,1000,1000,1505,1000,1000,1505,1205,1332,1139,-0.0490,-0.0721,-0.0128,0.0001,-0.0126,1.0008,0.0264,-0.0733,0.0006,0.0703,0.2204,0.0082,0.0438,0.2204,0.0082,0.0438,0.3000,0.0600,0.0002,0,-2.2635,-143.5000,-0.0043,-2.2635,-143.5000,-0.0043
-19.4451,-13.4979,2.3763,0.0686,-0.0000,-1.2000,-0.1800,0.6400,0.0060,0.0423,0.0294,0.0073,1008,1481,1497,1504,1000,1000,1505,1000,1000,1505,1205,1332,1139,-0.0547,-0.0650,0.0566,0.0023,-0.0118,1.0011,0.0263,-0.0730,0.0004,0.0703,0.2204,0.0082,0.0438,0.2204,0.0082,0.0438,0.3000,0.0600,0.0002,0,-2.2635,-143.5000,-0.0043,-2.2635,-143.5000,-0.0043
-19.4082,-13.4739,2.3687,-0.0686,-0.0686,-1.2000,-0.1800,0.6400,0.0060,0.0422,0.0294,0.0063,1006,1480,1497,1502,1000,1000,1505,1000,1000,1505,1205,1332,1139,-0.0557,-0.1426,0.0797,-0.0008,-0.0082,1.0013,0.0251,-0.0718,-0.0006,0.0713,0.2204,0.0082,0.0438,0.2204,0.0082,0.0438,0.3000,0.0600,0.0002,0,-2.2635,-143.5000,-0.0043,-2.2635,-143.5000,-0.0043
-19.3710,-13.4500,2.3609,0.0686,0.2743,-1.2000,-0.1800,0.6400,0.0060,0.0421,0.0293,0.0075,1006,1480,1497,1502,1000,1000,1505,1000,1000,1505,1205,1332,1139,-0.0257,-0.1669,-0.0189,-0.0014,-0.0106,0.9940,0.0263,-0.0730,0.0007,0.0699,0.2204,0.0082,0.0438,0.2204,0.0082,0.0438,0.3000,0.0600,0.0002,0,-2.2635,-143.5000,-0.0043,-2.2635,-143.5000,-0.0043
-19.3339,-13.4258,2.3526,0.0686,0.2743,-1.2000,-0.1800,0.6400,0.0060,0.0420,0.0292,0.0075,1006,1480,1497,1502,1000,1000,1505,1000,1000,1505,1205,1332,1139,0.0276,-0.0508,-0.0076,-0.0001,-0.0110,1.0009,0.0263,-0.0727,0.0007,0.0697,0.2204,0.0082,0.0438,0.2204,0.0082,0.0438,0.3000,0.0600,0.0002,0,-2.2635,-143.5000,-0.0043,-2.2635,-143.5000,-0.0043
-19.2959,-13.4013,2.3437,0.0686,0.0686,-1.2000,-0.1800,0.6400,0.0260,0.0419,0.0291,0.0077,1026,1480,1497,1502,1000,1000,1505,1000,1000,1505,1205,1332,1139,0.0084,0.0081,-0.0798,0.0017,-0.0115,1.0031,0.0465,-0.0528,0.0209,0.0893,0.2204,0.0082,0.0438,0.2204,0.0082,0.0438,0.3000,0.0600,0.0002,0,-2.2635,-143.5000,-0.0043,-2.2635,-143.5000,-0.0043
-19.2578,-13.3767,2.3342,-0.0000,0.0686,-1.2000,-0.1800,0.6400,0.0340,0.0418,0.0291,0.0075,1034,1480,1497,1502,1000,1000,1505,1000,1000,1505,1205,1332,1139,0.0340,0.0012,-0.0161,0.0010,-0.0118,1.0011,0.0543,-0.0445,0.0288,0.0974,0.2204,0.0082,0.0438,0.2204,0.0082,0.0438,0.3000,0.0600,0.0002,0,-2.2635,-143.5000,-0.0043,-2.2635,-143.5000,-0.0043
-19.2201,-13.3523,2.3254,0.0686,0.2057,-1.2000,-0.1800,0.6400,0.0510,0.0418,0.0291,0.0078,1058,1481,1497,1504,1000,1000,1505,1000,1000,1505,1205,1332,1139,-0.0043,-0.0564,-0.0955,0.0001,-0.0094,0.9989,0.0715,-0.0276,0.0461,0.1140,0.2204,0.0082,0.0438,0.2204,0.0082,0.0438,0.3000,0.0600,0.0002,0,-2.2635,-143.5000,-0.0043,-2.2635,-143.5000,-0.0043
-19.1827,-13.3283,2.3168,0.0686,0.2057,-1.2000,-0.1800,0.6400,0.0860,0.0417,0.0290,0.0064,1086,1480,1497,1502,1000,1000,1505,1000,1000,1505,1205,1332,1139,-0.0466,-0.1277,0.0473,-0.0021,-0.0106,0.9991,0.1050,0.0089,0.0797,0.1504,0.2204,0.0082,0.0438,0.2204,0.0082,0.0438,0.3000,0.0600,0.0002,0,-2.2635,-143.5000,-0.0043,-2.2635,-143.5000,-0.0043
-19.1457,-13.3040,2.3086,0.2057,0.2057,-1.2000,-0.1800,0.6400,0.0950,0.0416,0.0290,0.0077,1095,1480,1497,1502,1000,1000,1505,1000,1000,1505,1205,1332,1139,-0.1037,-0.0955,-0.0612,0.0011,-0.0129,0.9958,0.1153,0.0167,0.0900,0.1580,0.2204,0.0082,0.0438,0.2204,0.0082,0.0438,0.3000,0.0600,0.0002,0,-2.2635,-143.5000,-0.0043,-2.2635,-143.5000,-0.0043
-19.1088,-13.2799,2.3005,0.1371,0.2743,-1.2000,-0.1800,0.6400,0.1160,0.0415,0.0290,0.0075,1116,1480,1497,1502,1000,1000,1505,1000,1000,1505,1205,1332,1139,-0.0188,-0.1621,0.0187,0.0000,-0.0136,0.9999,0.1361,0.0380,0.1109,0.1790,0.2204,0.0082,0.0438,0.2204,0.0082,0.0438,0.3000,0.0600,0.0002,0,-2.2635,-143.5000,-0.0043,-2.2635,-143.5000,-0.0043
-19.0717,-13.2562,2.2923,-0.0000,0.0686,-1.2000,-0.1800,0.6400,0.1250,0.0415,0.0289,0.0078,1125,1480,1497,1502,1000,1000,1505,1000,1000,1505,1205,1332,1139,-0.0682,-0.0965,-0.0721,0.0000,-0.0114,1.0028,0.1454,0.0468,0.1202,0.1876,0.2204,0.0082,0.0438,0.2204,0.0082,0.0438,0.3000,0.0600,0.0002,0,-2.2635,-143.5000,-0.0043,-2.2635,-143.5000,-0.0043
-19.0346,-13.2322,2.2838,0.0686,-0.0000,-1.2000,-0.1800,0.6400,0.1360,0.0414,0.0289,0.0075,1136,1480,1497,1502,1000,1000,1505,1000,1000,1505,1205,1332,1139,-0.0298,-0.1281,0.0096,-0.0012,-0.0108,1.0006,0.1560,0.0583,0.1310,0.1987,0.2204,0.0082,0.0438,0.2204,0.0082,0.0438,0.3000,0.0600,0.0002,0,-2.2635,-143.5000,-0.0043,-2.2635,-143.5000,-0.0043
-18.9972,-13.2078,2.2755,0.0686,-0.0000,-1.2000,-0.1800,0.6400,0.1400,0.0413,0.0288,0.0075,1141,1481,1497,1504,1000,1000,1505,1000,1000,1505,1205,1332,1139,-0.0372,-0.0797,0.0268,-0.0003,-0.0124,1.0014,0.1600,0.0624,0.1350,0.2026,0.2204,0.0082,0.0438,0.2204,0.0082,0.0438,0.3000,0.0600,0.0002,0,-2.2635,-143.5000,-0.0043,-2.2635,-143.5000,-0.0043
-18.9601,-13.1830,2.2678,-0.0000,0.2057,-1.2000,-0.1800,0.6400,0.1410,0.0412,0.0288,0.0065,1141,1480,1497,1502,1000,1000,1505,1000,1000,1505,1205,1332,1139,-0.0476,-0.0888,0.0251,0.0006,-0.0112,0.9991,0.1599,0.0645,0.1350,0.2045,0.2204,0.0082,0.0438,0.2204,0.0082,0.0438,0.3000,0.0600,0.0002,0,-2.2635,-143.5000,-0.0043,-2.2635,-143.5000,-0.0043
-18.9228,-13.1582,2.2595,0.1371,0.2743,-1.2000,-0.1800,0.6400,0.1410,0.0411,0.0287,0.0075,1141,1480,1497,1502,1000,1000,1505,1000,1000,1505,1205,1332,1139,-0.0263,-0.0443,0.0041,-0.0021,-0.0083,1.0004,0.1609,0.0637,0.1361,0.2033,0.2204,0.0082,0.0438,0.2204,0.0082,0.0438,0.3000,0.0600,0.0002,0,-2.2635,-143.5000,-0.0043,-2.2635,-143.5000,-0.0043
-18.8854,-13.1341,2.2508,0.0686,0.2743,-1.2000,-0.1800,0.6400,0.1410,0.0410,0.0287,0.0075,1141,1480,1497,1502,1000,1000,1505,1000,1000,1505,1205,1332,1139,-0.0406,-0.0866,-0.0170,0.0019,-0.0113,1.0076,0.1609,0.0638,0.1362,0.2032,0.2204,0.0082,0.0438,0.2204,0.0082,0.0438,0.3000,0.0600,0.0002,0,-2.2635,-143.5000,-0.0043,-2.2635,-143.5000,-0.0043
-18.8478,-13.1094,2.2420,0.0686,-0.0000,-1.2000,-0.1800,0.6400,0.1410,0.0409,0.0286,0.0077,1141,1480,1497,1502,1000,1000,1505,1000,1000,1505,1205,1332,1139,-0.0028,0.0089,-0.0576,0.0015,-0.0120,0.9981,0.1611,0.0638,0.1363,0.2028,0.2204,0.0082,0.0438,0.2204,0.0082,0.0438,0.3000,0.0600,0.0002,0,-2.2635,-143.5000,-0.0043,-2.2635,-143.5000,-0.0043
-18.8099,-13.0845,2.2331,0.0686,0.2743,-1.2000,-0.1800,0.6400,0.1410,0.0408,0.0286,0.0075,1141,1480,1497,1502,1000,1000,1505,1000,1000,1505,1205,1332,1139,0.0640,-0.0393,-0.0012,0.0011,-0.0093,1.0048,0.1607,0.0641,0.1362,0.2029,0.2204,0.0082,0.0438,0.2204,0.0082,0.0438,0.3000,0.0600,0.0002,0,-2.2635,-143.5000,-0.0043,-2.2635,-143.5000,-0.0043
-18.7716,-13.0593,2.2247,0.0686,0.1371,-1.2000,-0.1800,0.6400,0.1500,0.0408,0.0285,0.0076,1153,1481,1497,1504,1000,1000,1505,1000,1000,1505,1205,1332,1139,0.0342,-0.0325,-0.0085,-0.0010,-0.0107,1.0003,0.1699,0.0731,0.1454,0.2117,0.2204,0.0082,0.0438,0.2204,0.0082,0.0438,0.3000,0.0600,0.0002,0,-2.2635,-143.5000,-0.0043,-2.2635,-143.5000,-0.0043
-18.7337,-13.0343,2.2160,0.0686,0.2057,-1.2000,-0.1800,0.6400,0.1600,0.0407,0.0285,0.0065,1160,1480,1497,1502,1000,1000,1505,1000,1000,1505,1205,1332,1139,-0.0395,-0.0102,0.0226,0.0003,-0.0120,0.9995,0.1788,0.0843,0.1543,0.2226,0.2204,0.0082,0.0438,0.2204,0.0082,0.0438,0.3000,0.0600,0.0002,0,-2.2635,-143.5000,-0.0043,-2.2635,-143.5000,-0.0043
-18.6967,-13.0098,2.2078,-0.0686,-0.1371,-1.2000,-0.1800,0.6400,0.1610,0.0406,0.0285,0.0076,1161,1480,1497,1502,1000,1000,1505,1000,1000,1505,1205,1332,1139,-0.0553,-0.1094,-0.0280,0.0012,-0.0123,1.0002,0.1808,0.0842,0.1565,0.2225,0.2204,0.0082,0.0438,0.2204,0.0082,0.0438,0.3000,0.0600,0.0002,0,-2.2635,-143.5000,-0.0043,-2.2635,-143.5000,-0.0043
-18.6596,-12.9859,2.2001,0.1371,-0.0000,-1.2000,-0.1800,0.6400,0.1790,0.0406,0.0284,0.0075,1179,1480,1497,1502,1000,1000,1505,1000,1000,1505,1205,1332,1139,-0.0650,-0.1027,0.0198,0.0006,-0.0080,1.0030,0.1986,0.1025,0.1744,0.2405,0.2204,0.0082,0.0438,0.2204,0.0082,0.0438,0.3000,0.0600,0.0002,0,-2.2635,-143.5000,-0.0043,-2.2635,-143.5000,-0.0043
-18.6219,-12.9619,2.1917,0.0686,0.2057,-1.2000,-0.1800,0.6400,0.1840,0.0404,0.0284,0.0076,1184,1480,1497,1502,1000,1000,1505,1000,1000,1505,1205,1332,1139,0.0023,-0.1312,-0.0168,-0.0018,-0.0102,0.9954,0.2037,0.1076,0.1796,0.2452,0.2204,0.0082,0.0438,0.2204,0.0082,0.0438,0.3000,0.0600,0.0002,0,-2.2635,-143.5000,-0.0043,-2.2635,-143.5000,-0.0043
-18.5843,-12.9377,2.1833,0.0686,0.0686,-1.2000,-0.1800,0.6400,0.1860,0.0404,0.0283,0.0078,1186,1480,1497,1502,1000,1000,1505,1000,1000,1505,1205,1332,1139,-0.0229,-0.0666,-0.0730,-0.0002,-0.0117,1.0027,0.2059,0.1095,0.1818,0.2469,0.2204,0.0082,0.0438,0.2204,0.0082,0.0438,0.3000,0.0600,0.0002,0,-2.2635,-143.5000,-0.0043,-2.2635,-143.5000,-0.0043
-18.5467,-12.9133,2.1749,0.1371,0.2743,-1.2000,-0.1800,0.6400,0.1860,0.0403,0.0283,0.0077,1186,1481,1497,1504,1000,1000,1505,1000,1000,1505,1205,1332,1139,-0.0137,-0.0346,-0.0404,-0.0013,-0.0120,1.0040,0.2057,0.1097,0.1817,0.2469,0.2204,0.0082,0.0438,0.2204,0.0082,0.0438,0.3000,0.0600,0.0002,0,-2.2635,-143.5000,-0.0043,-2.2635,-143.5000,-0.0043
-18.5095,-12.8884,2.1663,0.0686,0.0686,-1.2000,-0.1800,0.6400,0.1860,0.0402,0.0282,0.0067,1186,1480,1497,1502,1000,1000,1505,1000,1000,1505,1205,1332,1139,-0.0874,-0.0568,-0.0134,0.0001,-0.0109,1.0029,0.2047,0.1108,0.1807,0.2478,0.2204,0.0082,0.0438,0.2204,0.0082,0.0438,0.3000,0.0600,0.0002,0,-2.2635,-143.5000,-0.0043,-2.2635,-143.5000,-0.0043
-18.4723,-12.8642,2.1583,0.0686,0.2057,-1.2000,-0.1800,0.6400,0.1860,0.0401,0.0282,0.0075,1186,1480,1497,1502,1000,1000,1505,1000,1000,1505,1205,1332,1139,-0.0556,-0.1213,0.0418,-0.0017,-0.0087,1.0018,0.2054,0.1102,0.1816,0.2469,0.2204,0.0082,0.0438,0.2204,0.0082,0.0438,0.3000,0.0600,0.0002,0,-2.2635,-143.5000,-0.0043,-2.2635,-143.5000,-0.0043
-18.4354,-12.8399,2.1505,0.0686,0.2743,-1.2000,-0.1800,0.6400,0.1860,0.0401,0.0282,0.0077,1186,1480,1497,1502,1000,1000,1505,1000,1000,1505,1205,1332,1139,-0.0654,-0.0926,-0.0205,0.0003,-0.0108,1.0039,0.2056,0.1101,0.1818,0.2466,0.2204,0.0082,0.0438,0.2204,0.0082,0.0438,0.3000,0.0600,0.0002,0,-2.2635,-143.5000,-0.0043,-2.2635,-143.5000,-0.0043
-18.3980,-12.8159,2.1422,0.1371,0.2057,-1.2000,-0.1800,0.6400,0.1860,0.0400,0.0281,0.0077,1186,1480,1497,1502,1000,1000,1505,1000,1000,1505,1205,1332,1139,-0.0998,-0.1173,-0.0314,-0.0010,-0.0115,1.0021,0.2055,0.1102,0.1818,0.2464,0.2204,0.0082,0.0438,0.2204,0.0082,0.0438,0.3000,0.0600,0.0002,0,-2.2635,-143.5000,-0.0043,-2.2635,-143.5000,-0.0043
-18.3611,-12.7916,2.1340,0.0686,0.2057,-1.2000,-0.1800,0.6400,0.1860,0.0399,0.0281,0.0077,1186,1480,1497,1502,1000,1000,1505,1000,1000,1505,1205,1332,1139,-0.0199,-0.1303,-0.0449,-0.0016,-0.0118,0.9994,0.2055,0.1103,0.1820,0.2462,0.2204,0.0082,0.0438,0.2204,0.0082,0.0438,0.3000,0.0600,0.0002,0,-2.2635,-143.5000,-0.0043,-2.2635,-143.5000,-0.0043
-18.3232,-12.7679,2.1259,0.0686,0.0686,-1.2000,-0.1800,0.6400,0.1860,0.0398,0.0280,0.0072,1187,1481,1497,1504,1000,1000,1505,1000,1000,1505,1205,1332,1139,-0.0309,-0.0767,0.0997,0.0111,-0.0010,1.0026,0.2049,0.1110,0.1814,0.2467,0.2204,0.0082,0.0438,0.2204,0.0082,0.0438,0.3000,0.0600,0.0002,0,-2.2635,-143.5000,-0.0043,-2.2635,-143.5000,-0.0043
-18.2896,-12.7386,2.1295,0.0686,0.1371,-1.2000,-0.1800,0.6400,0.1860,0.0398,0.0281,0.0009,1186,1480,1497,1502,1000,1000,1505,1000,1000,1505,1205,1332,1139,-0.1024,-0.3382,1.9147,-0.0122,-0.0161,0.9921,0.1985,0.1173,0.1752,0.2530,0.2204,0.0082,0.0438,0.2204,0.0082,0.0438,0.3000,0.0600,0.0002,0,-2.2635,-143.5000,-0.0043,-2.2635,-143.5000,-0.0043
-18.2550,-12.7129,2.1340,0.0686,0.0686,-1.2000,-0.1800,0.6400,0.1860,0.0396,0.0279,0.0078,1186,1480,1497,1502,1000,1000,1505,1000,1000,1505,1205,1332,1139,0.0672,0.1079,0.0606,0.0080,-0.0047,1.0006,0.2055,0.1108,0.1820,0.2457,0.2204,0.0082,0.0438,0.2204,0.0082,0.0438,0.3000,0.0600,0.0002,0,-2.2635,-143.5000,-0.0043,-2.2635,-143.5000,-0.0043
-18.2126,-12.6924,2.1128,0.0686,0.2057,-1.2000,-0.1800,0.6400,0.1860,0.0395,0.0279,0.0151,1186,1480,1497,1502,1000,1000,1505,1000,1000,1505,1205,1332,1139,0.1764,-0.0906,-2.4033,0.0194,0.0059,1.0044,0.2127,0.1035,0.1895,0.2383,0.2204,0.0082,0.0438,0.2204,0.0082,0.0438,0.3000,0.0600,0.0002,0,-2.2635,-143.5000,-0.0043,-2.2635,-143.5000,-0.0043
-18.1690,-12.6719,2.0822,0.1371,0.0686,-1.2000,-0.1800,0.6400,0.1860,0.0394,0.0277,0.0100,1186,1480,1497,1502,1000,1000,1505,1000,1000,1505,1205,1332,1139,0.2078,0.2086,-1.0071,-0.0176,-0.0330,1.0007,0.2077,0.1089,0.1844,0.2431,0.2204,0.0082,0.0438,0.2204,0.0082,0.0438,0.3000,0.0600,0.0002,0,-2.2635,-143.5000,-0.0043,-2.2635,-143.5000,-0.0043
-18.1351,-12.6428,2.0871,0.1371,0.2057,-1.2000,-0.1800,0.6400,0.1860,0.0395,0.0278,-0.0024,1186,1480,1497,1502,1000,1000,1505,1000,1000,1505,1205,1332,1139,-0.3080,-0.1406,3.2097,-0.0253,-0.0151,0.9937,0.1952,0.1211,0.1719,0.2558,0.2204,0.0082,0.0438,0.2204,0.0082,0.0438,0.3000,0.0600,0.0002,0,-2.2635,-143.5000,-0.0043,-2.2635,-143.5000,-0.0043
-18.1038,-12.6139,2.1059,0.0686,0.1371,-1.2000,-0.1800,0.6400,0.1860,0.0393,0.0279,0.0065,1188,1481,1497,1504,1000,1000,1505,1000,1000,1505,1205,1332,1139,0.0767,-0.3584,0.6104,0.0383,-0.0074,1.0132,0.2039,0.1123,0.1811,0.2466,0.2204,0.0082,0.0438,0.2204,0.0082,0.0438,0.3000,0.0600,0.0002,0,-2.2635,-143.5000,-0.0043,-2.2635,-143.5000,-0.0043
-18.0610,-12.5940,2.0836,0.1371,0.2057,-1.2000,-0.1800,0.6400,0.1860,0.0393,0.0277,0.0135,1186,1480,1497,1502,1000,1000,1505,1000,1000,1505,1205,1332,1139,-0.2906,0.0213,-2.2626,0.0188,-0.0265,1.0126,0.2111,0.1055,0.1878,0.2396,0.2204,0.0082,0.0438,0.2204,0.0082,0.0438,0.3000,0.0600,0.0002,0,-2.2635,-143.5000,-0.0043,-2.2635,-143.5000,-0.0043
-18.0233,-12.5687,2.0676,0.1371,0.1371,-1.2000,-0.1800,0.6400,0.1890,0.0394,0.0275,0.0045,1189,1480,1497,1502,1000,1000,1505,1000,1000,1505,1205,1332,1139,-0.5974,0.4427,0.9335,-0.0434,-0.0045,0.9820,0.2054,0.1176,0.1816,0.2513,0.2204,0.0082,0.0438,0.2204,0.0082,0.0438,0.3000,0.0600,0.0002,0,-2.2635,-143.5000,-0.0043,-2.2635,-143.5000,-0.0043
-17.9932,-12.5376,2.0757,-0.0000,-0.0686,-1.2000,-0.1800,0.6400,0.1900,0.0391,0.0277,0.0036,1190,1480,1497,1502,1000,1000,1505,1000,1000,1505,1205,1332,1139,-0.1451,-0.3547,1.4406,-0.0082,-0.0059,1.0042,0.2049,0.1196,0.1822,0.2533,0.2204,0.0082,0.0438,0.2204,0.0082,0.0438,0.3000,0.0600,0.0002,0,-2.2635,-143.5000,-0.0043,-2.2635,-143.5000,-0.0043
-17.9525,-12.5139,2.0624,-0.0000,-0.0000,-1.2000,-0.1800,0.6400,0.2050,0.0388,0.0276,0.0155,1205,1480,1497,1502,1000,1000,1505,1000,1000,1505,1205,1332,1139,0.3852,-0.0080,-2.4708,0.0301,-0.0079,1.0041,0.2317,0.1232,0.2092,0.2559,0.2204,0.0082,0.0438,0.2204,0.0082,0.0438,0.3000,0.0600,0.0002,0,-2.2635,-143.5000,-0.0043,-2.2635,-143.5000,-0.0043
-17.9040,-12.5008,2.0232,0.0686,0.2057,-1.2000,-0.1800,0.6400,0.2090,0.0388,0.0274,0.0147,1209,1480,1497,1502,1000,1000,1505,1000,1000,1505,1205,1332,1139,0.1615,0.3643,-2.5479,-0.0016,-0.0287,0.9987,0.2352,0.1281,0.2123,0.2604,0.2204,0.0082,0.0438,0.2204,0.0082,0.0438,0.3000,0.0600,0.0002,0,-2.2635,-143.5000,-0.0043,-2.2635,-143.5000,-0.0043
-17.8677,-12.4735,2.0149,0.1371,0.1371,-1.2000,-0.1800,0.6400,0.2110,0.0390,0.0275,0.0012,1211,1481,1497,1504,1000,1000,1505,1000,1000,1505,1205,1332,1139,-0.5761,-0.0770,2.0262,-0.0164,-0.0069,0.9894,0.2237,0.1433,0.2007,0.2764,0.2204,0.0082,0.0438,0.2204,0.0082,0.0438,0.3000,0.0600,0.0002,0,-2.2635,-143.5000,-0.0043,-2.2635,-143.5000,-0.0043
-17.8352,-12.4442,2.0225,0.0686,0.2743,-1.2000,-0.1800,0.6400,0.2110,0.0387,0.0275,0.0073,1211,1480,1497,1502,1000,1000,1505,1000,1000,1505,1205,1332,1139,0.0857,-0.1975,0.0188,0.0144,0.0119,1.0138,0.2294,0.1375,0.2071,0.2699,0.2204,0.0082,0.0438,0.2204,0.0082,0.0438,0.3000,0.0600,0.0002,0,-2.2635,-143.5000,-0.0043,-2.2635,-143.5000,-0.0043
-17.7916,-12.4270,1.9973,0.1371,0.0686,-1.2000,-0.1800,0.6400,0.2110,0.0385,0.0275,0.0155,1211,1480,1497,1502,1000,1000,1505,1000,1000,1505,1205,1332,1139,0.2597,-0.2704,-2.5783,0.0078,-0.0232,1.0032,0.2375,0.1295,0.2155,0.2616,0.2204,0.0082,0.0438,0.2204,0.0082,0.0438,0.3000,0.0600,0.0002,0,-2.2635,-143.5000,-0.0043,-2.2635,-143.5000,-0.0043
-17.7499,-12.4067,1.9720,0.1371,0.2743,-1.2000,-0.1800,0.6400,0.2110,0.0386,0.0274,0.0075,1211,1480,1497,1502,1000,1000,1505,1000,1000,1505,1205,1332,1139,-0.0877,-0.0145,-0.1350,-0.0200,-0.0213,0.9948,0.2297,0.1376,0.2073,0.2694,0.2204,0.0082,0.0438,0.2204,0.0082,0.0438,0.3000,0.0600,0.0002,0,-2.2635,-143.5000,-0.0043,-2.2635,-143.5000,-0.0043
-17.7184,-12.3772,1.9798,0.1371,0.2743,-1.2000,-0.1800,0.6400,0.2110,0.0385,0.0274,0.0018,1211,1480,1497,1502,1000,1000,1505,1000,1000,1505,1205,1332,1139,-0.1912,-0.2013,2.0153,0.0105,-0.0012,1.0016,0.2240,0.1432,0.2017,0.2751,0.2204,0.0082,0.0438,0.2204,0.0082,0.0438,0.3000,0.0600,0.0002,0,-2.2635,-143.5000,-0.0043,-2.2635,-143.5000,-0.0043
-17.6817,-12.3500,1.9790,-0.0000,0.0686,-1.2000,-0.1800,0.6400,0.2110,0.0383,0.0272,0.0103,1211,1480,1497,1502,1000,1000,1505,1000,1000,1505,1205,1332,1139,0.1059,0.0571,-0.7484,0.0074,0.0031,1.0107,0.2324,0.1351,0.2102,0.2662,0.2204,0.0082,0.0438,0.2204,0.0082,0.0438,0.3000,0.0600,0.0002,0,-2.2635,-143.5000,-0.0043,-2.2635,-143.5000,-0.0043
-17.6398,-12.3288,1.9566,0.1371,0.2057,-1.2000,-0.1800,0.6400,0.2110,0.0383,0.0271,0.0104,1213,1481,1497,1504,1000,1000,1505,1000,1000,1505,1205,1332,1139,0.0257,0.1982,-1.0355,-0.0053,-0.0288,0.9990,0.2326,0.1352,0.2103,0.2660,0.2204,0.0082,0.0438,0.2204,0.0082,0.0438,0.3000,0.0600,0.0002,0,-2.2635,-143.5000,-0.0043,-2.2635,-143.5000,-0.0043
-17.6062,-12.3000,1.9544,0.2057,0.2057,-1.2000,-0.1800,0.6400,0.2110,0.0384,0.0272,0.0011,1211,1480,1497,1502,1000,1000,1505,1000,1000,1505,1205,1332,1139,-0.4167,-0.1605,1.8244,0.0054,-0.0119,0.9938,0.2232,0.1443,0.2009,0.2756,0.2204,0.0082,0.0438,0.2204,0.0082,0.0438,0.3000,0.0600,0.0002,0,-2.2635,-143.5000,-0.0043,-2.2635,-143.5000,-0.0043
-17.5739,-12.2687,1.9644,0.1371,0.2057,-1.2000,-0.1800,0.6400,0.2110,0.0381,0.0272,0.0048,1211,1480,1497,1502,1000,1000,1505,1000,1000,1505,1205,1332,1139,0.0952,-0.1396,1.0888,-0.0053,-0.0001,1.0025,0.2267,0.1410,0.2048,0.2715,0.2204,0.0082,0.0438,0.2204,0.0082,0.0438,0.3000,0.0600,0.0002,0,-2.2635,-143.5000,-0.0043,-2.2635,-143.5000,-0.0043
-17.5339,-12.2471,1.9565,0.1371,-0.0000,-1.2000,-0.1800,0.6400,0.2110,0.0380,0.0271,0.0098,1211,1480,1497,1502,1000,1000,1505,1000,1000,1505,1205,1332,1139,0.1998,-0.0854,-0.6768,0.0089,-0.0193,0.9929,0.2317,0.1361,0.2100,0.2662,0.2204,0.0082,0.0438,0.2204,0.0082,0.0438,0.3000,0.0600,0.0002,0,-2.2635,-143.5000,-0.0043,-2.2635,-143.5000,-0.0043
-17.4948,-12.2229,1.9469,0.0686,0.0686,-1.2000,-0.1800,0.6400,0.2110,0.0380,0.0271,0.0055,1211,1480,1497,1502,1000,1000,1505,1000,1000,1505,1205,1332,1139,-0.1261,-0.2308,0.6171,0.0032,-0.0183,1.0032,0.2274,0.1403,0.2056,0.2706,0.2204,0.0082,0.0438,0.2204,0.0082,0.0438,0.3000,0.0600,0.0002,0,-2.2635,-143.5000,-0.0043,-2.2635,-143.5000,-0.0043
-17.4624,-12.1938,1.9543,0.1371,0.1371,-1.2000,-0.1800,0.6400,0.2110,0.0380,0.0270,0.0030,1211,1480,1497,1502,1000,1000,1505,1000,1000,1505,1205,1332,1139,-0.1594,-0.0905,1.5957,-0.0052,0.0084,0.9998,0.2250,0.1430,0.2031,0.2730,0.2204,0.0082,0.0438,0.2204,0.0082,0.0438,0.3000,0.0600,0.0002,0,-2.2635,-143.5000,-0.0043,-2.2635,-143.5000,-0.0043
-17.4260,-12.1684,1.9536,0.0686,0.2057,-1.2000,-0.1800,0.6400,0.2110,0.0378,0.0270,0.0093,1213,1481,1497,1504,1000,1000,1505,1000,1000,1505,1205,1332,1139,0.1062,-0.0886,-0.4229,0.0098,-0.0116,0.9992,0.2311,0.1369,0.2095,0.2664,0.2204,0.0082,0.0438,0.2204,0.0082,0.0438,0.3000,0.0600,0.0002,0,-2.2635,-143.5000,-0.0043,-2.2635,-143.5000,-0.0043
-17.3857,-12.1468,1.9385,0.0686,0.2057,-1.2000,-0.1800,0.6400,0.2110,0.0377,0.0271,0.0077,1211,1480,1497,1502,1000,1000,1505,1000,1000,1505,1205,1332,1139,0.0609,-0.3898,-0.4129,-0.0009,-0.0380,1.0084,0.2293,0.1385,0.2081,0.2681,0.2204,0.0082,0.0438,0.2204,0.0082,0.0438,0.3000,0.0600,0.0002,0,-2.2635,-143.5000,-0.0043,-2.2635,-143.5000,-0.0043
-17.3516,-12.1207,1.9363,-0.0000,-0.0000,-1.2000,-0.1800,0.6400,0.2110,0.0378,0.0269,0.0044,1211,1480,1497,1502,1000,1000,1505,1000,1000,1505,1205,1332,1139,-0.3537,-0.0301,1.0954,-0.0108,-0.0020,1.0000,0.2263,0.1419,0.2045,0.2713,0.2204,0.0082,0.0438,0.2204,0.0082,0.0438,0.3000,0.0600,0.0002,0,-2.2635,-143.5000,-0.0043,-2.2635,-143.5000,-0.0043
-17.3165,-12.0938,1.9354,0.0686,0.2743,-1.2000,-0.1800,0.6400,0.2110,0.0376,0.0268,0.0081,1211,1480,1497,1502,1000,1000,1505,1000,1000,1505,1205,1332,1139,-0.1082,-0.0016,-0.0399,-0.0009,0.0007,0.9976,0.2299,0.1385,0.2083,0.2673,0.2204,0.0082,0.0438,0.2204,0.0082,0.0438,0.3000,0.0600,0.0002,0,-2.2635,-143.5000,-0.0043,-2.2635,-143.5000,-0.0043
-17.2757,-12.0715,1.9196,0.0686,0.0686,-1.2000,-0.1800,0.6400,0.2110,0.0375,0.0268,0.0109,1211,1480,1497,1502,1000,1000,1505,1000,1000,1505,1205,1332,1139,-0.0131,-0.0890,-1.0664,0.0119,-0.0186,0.9949,0.2326,0.1358,0.2112,0.2644,0.2204,0.0082,0.0438,0.2204,0.0082,0.0438,0.3000,0.0600,0.0002,0,-2.2635,-143.5000,-0.0043,-2.2635,-143.5000,-0.0043
-17.2368,-12.0482,1.9049,0.0686,0.2057,-1.2000,-0.1800,0.6400,0.2110,0.0374,0.0268,0.0072,1211,1480,1497,1502,1000,1000,1505,1000,1000,1505,1205,1332,1139,-0.0267,-0.1021,0.0663,0.0007,-0.0128,1.0115,0.2289,0.1396,0.2076,0.2679,0.2204,0.0082,0.0438,0.2204,0.0082,0.0438,0.3000,0.0600,0.0002,0,-2.2635,-143.5000,-0.0043,-2.2635,-143.5000,-0.0043
-17.2016,-12.0235,1.9004,-0.0000,-0.0686,-1.2000,-0.1800,0.6400,0.2110,0.0373,0.0267,0.0077,1213,1481,1497,1504,1000,1000,1505,1000,1000,1505,1205,1332,1139,-0.0154,-0.1183,0.0535,-0.0034,-0.0090,0.9966,0.2293,0.1392,0.2081,0.2673,0.2204,0.0082,0.0438,0.2204,0.0082,0.0438,0.3000,0.0600,0.0002,0,-2.2635,-143.5000,-0.0043,-2.2635,-143.5000,-0.0043
-17.1624,-12.0009,1.8875,0.0686,0.1371,-1.2000,-0.1800,0.6400,0.2110,0.0372,0.0267,0.0101,1211,1480,1497,1502,1000,1000,1505,1000,1000,1505,1205,1332,1139,0.0828,-0.2444,-1.0711,-0.0057,-0.0139,0.9997,0.2316,0.1370,0.2106,0.2648,0.2204,0.0082,0.0438,0.2204,0.0082,0.0438,0.3000,0.0600,0.0002,0,-2.2635,-143.5000,-0.0043,-2.2635,-143.5000,-0.0043
-17.1205,-11.9795,1.8689,0.0686,0.2057,-1.2000,-0.1800,0.6400,0.2110,0.0371,0.0266,0.0100,1211,1480,1497,1502,1000,1000,1505,1000,1000,1505,1205,1332,1139,0.0668,-0.0450,-0.8016,0.0027,-0.0092,1.0025,0.2315,0.1373,0.2105,0.2648,0.2204,0.0082,0.0438,0.2204,0.0082,0.0438,0.3000,0.0600,0.0002,0,-2.2635,-143.5000,-0.0043,-2.2635,-143.5000,-0.0043
-17.0833,-11.9549,1.8593,0.0686,0.1371,-1.2000,-0.1800,0.6400,0.2110,0.0372,0.0266,0.0072,1211,1480,1497,1502,1000,1000,1505,1000,1000,1505,1205,1332,1139,-0.2237,0.0004,0.1598,0.0042,-0.0039,1.0063,0.2288,0.1401,0.2076,0.2675,0.2204,0.0082,0.0438,0.2204,0.0082,0.0438,0.3000,0.0600,0.0002,0,-2.2635,-143.5000,-0.0043,-2.2635,-143.5000,-0.0043
-17.0463,-11.9290,1.8504,0.1371,0.2743,-1.2000,-0.1800,0.6400,0.2110,0.0370,0.0265,0.0087,1211,1480,1497,1502,1000,1000,1505,1000,1000,1505,1205,1332,1139,0.0385,-0.0539,-0.3430,-0.0027,-0.0150,0.9942,0.2301,0.1388,0.2093,0.2658,0.2204,0.0082,0.0438,0.2204,0.0082,0.0438,0.3000,0.0600,0.0002,0,-2.2635,-143.5000,-0.0043,-2.2635,-143.5000,-0.0043
-17.0050,-11.9061,1.8284,0.2057,0.2057,-1.2000,-0.1800,0.6400,0.2110,0.0368,0.0264,0.0148,1211,1480,1497,1502,1000,1000,1505,1000,1000,1505,1205,1332,1139,0.1058,0.0520,-2.2762,-0.0280,-0.0411,1.0031,0.2362,0.1329,0.2154,0.2595,0.2204,0.0082,0.0438,0.2204,0.0082,0.0438,0.3000,0.0600,0.0002,0,-2.2635,-143.5000,-0.0043,-2.2635,-143.5000,-0.0043
-16.9627,-11.8863,1.8030,0.1371,0.2743,-1.2000,-0.1800,0.6400,0.2110,0.0369,0.0264,0.0087,1213,1481,1497,1504,1000,1000,1505,1000,1000,1505,1205,1332,1139,-0.2019,0.0253,-0.4272,0.0252,0.0098,0.9965,0.2301,0.1390,0.2092,0.2657,0.2204,0.0082,0.0438,0.2204,0.0082,0.0438,0.3000,0.0600,0.0002,0,-2.2635,-143.5000,-0.0043,-2.2635,-143.5000,-0.0043
-16.9278,-11.8577,1.8021,0.1371,0.2743,-1.2000,-0.1800,0.6400,0.2110,0.0367,0.0265,0.0028,1211,1480,1497,1502,1000,1000,1505,1000,1000,1505,1205,1332,1139,-0.0576,-0.2084,1.3270,0.0117,0.0022,1.0172,0.2241,0.1450,0.2036,0.2714,0.2204,0.0082,0.0438,0.2204,0.0082,0.0438,0.3000,0.0600,0.0002,0,-2.2635,-143.5000,-0.0043,-2.2635,-143.5000,-0.0043
-16.8911,-11.8292,1.8038,0.0686,0.3429,-1.2000,-0.1800,0.6400,0.2110,0.0366,0.0263,0.0070,1211,1480,1497,1502,1000,1000,1505,1000,1000,1505,1205,1332,1139,0.0929,0.0468,0.3577,-0.0249,-0.0121,0.9920,0.2283,0.1411,0.2077,0.2669,0.2204,0.0082,0.0438,0.2204,0.0082,0.0438,0.3000,0.0600,0.0002,0,-2.2635,-143.5000,-0.0043,-2.2635,-143.5000,-0.0043
-16.8521,-11.8044,1.7921,0.1371,0.1371,-1.2000,-0.1800,0.6400,0.2110,0.0365,0.0264,0.0098,1211,1480,1497,1502,1000,1000,1505,1000,1000,1505,1205,1332,1139,0.0529,-0.3546,-0.6605,-0.0057,-0.0159,1.0030,0.2308,0.1383,0.2107,0.2642,0.2204,0.0082,0.0438,0.2204,0.0082,0.0438,0.3000,0.0600,0.0002,0,-2.2635,-143.5000,-0.0043,-2.2635,-143.5000,-0.0043
-16.8150,-11.7798,1.7845,0.0686,0.1371,-1.2000,-0.1800,0.6400,0.2110,0.0365,0.0264,0.0045,1211,1480,1497,1502,1000,1000,1505,1000,1000,1505,1205,1332,1139,-0.1887,-0.3146,0.9962,0.0143,-0.0082,1.0008,0.2257,0.1436,0.2053,0.2694,0.2204,0.0082,0.0438,0.2204,0.0082,0.0438,0.3000,0.0600,0.0002,0,-2.2635,-143.5000,-0.0043,-2.2635,-143.5000,-0.0043
-16.7824,-11.7508,1.7949,0.1371,0.2743,-1.2000,-0.1800,0.6400,0.2110,0.0365,0.0262,0.0030,1211,1480,1497,1502,1000,1000,1505,1000,1000,1505,1205,1332,1139,-0.2027,-0.0265,1.6858,-0.0062,-0.0160,1.0095,0.2242,0.1454,0.2037,0.2707,0.2204,0.0082,0.0438,0.2204,0.0082,0.0438,0.3000,0.0600,0.0002,0,-2.2635,-143.5000,-0.0043,-2.2635,-143.5000,-0.0043
-16.7456,-11.7232,1.7952,0.0686,0.0686,-1.2000,-0.1800,0.6400,0.2110,0.0363,0.0263,0.0078,1213,1481,1497,1504,1000,1000,1505,1000,1000,1505,1205,1332,1139,0.0483,-0.3728,0.0415,-0.0009,-0.0060,1.0033,0.2288,0.1406,0.2088,0.2658,0.2204,0.0082,0.0438,0.2204,0.0082,0.0438,0.3000,0.0600,0.0002,0,-2.2635,-143.5000,-0.0043,-2.2635,-143.5000,-0.0043
-16.7083,-11.6968,1.7874,0.0686,0.2743,-1.2000,-0.1800,0.6400,0.2110,0.0363,0.0262,0.0053,1211,1480,1497,1502,1000,1000,1505,1000,1000,1505,1205,1332,1139,-0.1170,-0.1812,0.4353,-0.0042,-0.0121,1.0003,0.2264,0.1432,0.2062,0.2681,0.2204,0.0082,0.0438,0.2204,0.0082,0.0438,0.3000,0.0600,0.0002,0,-2.2635,-143.5000,-0.0043,-2.2635,-143.5000,-0.0043
-16.6746,-11.6706,1.7909,0.0686,0.0686,-1.2000,-0.1800,0.6400,0.2110,0.0362,0.0261,0.0036,1211,1480,1497,1502,1000,1000,1505,1000,1000,1505,1205,1332,1139,-0.1112,-0.1022,1.3920,0.0008,-0.0153,0.9992,0.2247,0.1451,0.2045,0.2697,0.2204,0.0082,0.0438,0.2204,0.0082,0.0438,0.3000,0.0600,0.0002,0,-2.2635,-143.5000,-0.0043,-2.2635,-143.5000,-0.0043
-16.6395,-11.6434,1.7948,-0.0000,0.1371,-1.2000,-0.1800,0.6400,0.2110,0.0361,0.0260,0.0064,1211,1480,1497,1502,1000,1000,1505,1000,1000,1505,1205,1332,1139,-0.1112,-0.0337,0.5323,-0.0051,-0.0193,0.9953,0.2275,0.1424,0.2073,0.2667,0.2204,0.0082,0.0438,0.2204,0.0082,0.0438,0.3000,0.0600,0.0002,0,-2.2635,-143.5000,-0.0043,-2.2635,-143.5000,-0.0043
-16.6019,-11.6184,1.7874,0.0686,0.0686,-1.2000,-0.1800,0.6400,0.2110,0.0360,0.0259,0.0083,1211,1480,1497,1502,1000,1000,1505,1000,1000,1505,1205,1332,1139,-0.0200,-0.0108,-0.1780,0.0026,-0.0104,1.0043,0.2293,0.1408,0.2092,0.2647,0.2204,0.0082,0.0438,0.2204,0.0082,0.0438,0.3000,0.0600,0.0002,0,-2.2635,-143.5000,-0.0043,-2.2635,-143.5000,-0.0043
-16.5652,-11.5936,1.7810,0.0686,0.2057,-1.2000,-0.1800,0.6400,0.2110,0.0360,0.0259,0.0065,1211,1480,1497,1502,1000,1000,1505,1000,1000,1505,1205,1332,1139,-0.2554,0.0191,0.3894,-0.0048,-0.0125,1.0018,0.2277,0.1426,0.2074,0.2664,0.2204,0.0082,0.0438,0.2204,0.0082,0.0438,0.3000,0.0600,0.0002,0,-2.2635,-143.5000,-0.0043,-2.2635,-143.5000,-0.0043
-16.5293,-11.5676,1.7787,0.0686,0.1371,-1.2000,-0.1800,0.6400,0.2110,0.0359,0.0259,0.0068,1213,1481,1497,1504,1000,1000,1505,1000,1000,1505,1205,1332,1139,-0.0651,-0.0830,0.3654,0.0005,-0.0108,0.9951,0.2277,0.1425,0.2078,0.2660,0.2204,0.0082,0.0438,0.2204,0.0082,0.0438,0.3000,0.0600,0.0002,0,-2.2635,-143.5000,-0.0043,-2.2635,-143.5000,-0.0043
-16.4916,-11.5434,1.7699,-0.0686,-0.0686,-1.2000,-0.1800,0.6400,0.2140,0.0357,0.0260,0.0086,1214,1480,1497,1502,1000,1000,1505,1000,1000,1505,1205,1332,1139,0.1235,-0.3849,-0.6561,0.0138,0.0063,1.0025,0.2323,0.1437,0.2129,0.2671,0.2204,0.0082,0.0438,0.2204,0.0082,0.0438,0.3000,0.0600,0.0002,0,-2.2635,-143.5000,-0.0043,-2.2635,-143.5000,-0.0043
-16.4493,-11.5254,1.7426,-0.0000,0.2743,-1.2000,-0.1800,0.6400,0.2150,0.0356,0.0258,0.0184,1215,1480,1497,1502,1000,1000,1505,1000,1000,1505,1205,1332,1139,0.0826,0.0151,-3.3726,0.0116,-0.0071,1.0069,0.2432,0.1352,0.2235,0.2580,0.2204,0.0082,0.0438,0.2204,0.0082,0.0438,0.3000,0.0600,0.0002,0,-2.2635,-143.5000,-0.0043,-2.2635,-143.5000,-0.0043
-16.4018,-11.5099,1.6928,-0.0000,-0.0686,-1.2000,-0.1800,0.6400,0.2150,0.0355,0.0257,0.0230,1215,1480,1497,1502,1000,1000,1505,1000,1000,1505,1205,1332,1139,0.2214,0.1923,-4.8923,0.0011,-0.0281,1.0044,0.2478,0.1309,0.2282,0.2531,0.2204,0.0082,0.0438,0.2204,0.0082,0.0438,0.3000,0.0600,0.0002,0,-2.2635,-143.5000,-0.0043,-2.2635,-143.5000,-0.0043
-16.3465,-11.4958,1.6202,0.1371,0.1371,-1.2000,-0.1800,0.6400,0.2150,0.0351,0.0253,0.0307,1215,1480,1497,1502,1000,1000,1505,1000,1000,1505,1205,1332,1139,0.7035,0.9398,-7.4128,-0.0067,-0.0106,0.9996,0.2555,0.1239,0.2359,0.2447,0.2204,0.0082,0.0438,0.2204,0.0082,0.0438,0.3000,0.0600,0.0002,0,-2.2635,-143.5000,-0.0043,-2.2635,-143.5000,-0.0043
-16.2780,-11.4830,1.5176,0.0686,0.1371,-1.2000,-0.1800,0.6400,0.2150,0.0347,0.0250,0.0369,1215,1480,1497,1502,1000,1000,1505,1000,1000,1505,1205,1332,1139,1.2261,1.5827,-9.7477,0.0199,-0.0263,0.9841,0.2616,0.1183,0.2422,0.2379,0.2204,0.0082,0.0438,0.2204,0.0082,0.0438,0.3000,0.0600,0.0002,0,-2.2635,-143.5000,-0.0043,-2.2635,-143.5000,-0.0043
-16.2094,-11.4651,1.4197,0.0686,0.1371,-1.2000,-0.1800,0.6400,0.2150,0.0347,0.0252,0.0282,1215,1481,1497,1504,1000,1000,1505,1000,1000,1505,1205,1332,1139,0.9919,1.1260,-6.9833,-0.0027,-0.0180,0.9968,0.2527,0.1269,0.2337,0.2467,0.2204,0.0082,0.0438,0.2204,0.0082,0.0438,0.3000,0.0600,0.0002,0,-2.2635,-143.5000,-0.0043,-2.2635,-143.5000,-0.0043
-16.1453,-11.4388,1.3543,0.0686,0.1371,-1.2000,-0.1800,0.6400,0.2150,0.0343,0.0249,0.0178,1215,1480,1497,1502,1000,1000,1505,1000,1000,1505,1205,1332,1139,1.6397,1.7331,-3.6839,-0.0083,0.0003,1.0125,0.2422,0.1380,0.2234,0.2563,0.2204,0.0082,0.0438,0.2204,0.0082,0.0438,0.3000,0.0600,0.0002,0,-2.2635,-143.5000,-0.0043,-2.2635,-143.5000,-0.0043
-16.0850,-11.4079,1.3318,0.0686,0.4114,-1.2000,-0.1800,0.6400,0.2150,0.0341,0.0255,0.0024,1215,1480,1497,1502,1000,1000,1505,1000,1000,1505,1205,1332,1139,1.6670,0.1152,1.5804,0.0202,-0.0252,0.9695,0.2260,0.1529,0.2088,0.2722,0.2204,0.0082,0.0438,0.2204,0.0082,0.0438,0.3000,0.0600,0.0002,0,-2.2635,-143.5000,-0.0043,-2.2635,-143.5000,-0.0043
-16.0418,-11.3740,1.3774,0.0686,0.0686,-1.2000,-0.1800,0.6400,0.2150,0.0340,0.0259,-0.0154,1215,1480,1497,1502,1000,1000,1505,1000,1000,1505,1205,1332,1139,1.8173,-0.7853,7.6194,0.0471,-0.0401,1.0135,0.2077,0.1706,0.1915,0.2902,0.2204,0.0082,0.0438,0.2204,0.0082,0.0438,0.3000,0.0600,0.0002,0,-2.2635,-143.5000,-0.0043,-2.2635,-143.5000,-0.0043
-16.0085,-11.3244,1.4750,0.0686,-0.1371,-1.2000,-0.1800,0.6400,0.2150,0.0347,0.0259,-0.0298,1215,1480,1497,1502,1000,1000,1505,1000,1000,1505,1205,1332,1139,-0.0333,-1.1661,12.3664,-0.0352,-0.0062,0.9612,0.1939,0.1842,0.1764,0.3055,0.2204,0.0082,0.0438,0.2204,0.0082,0.0438,0.3000,0.0600,0.0002,0,-2.2635,-143.5000,-0.0043,-2.2635,-143.5000,-0.0043
-15.9990,-11.2767,1.6263,0.1371,-0.0000,-1.2000,-0.1800,0.6400,0.2150,0.0341,0.0257,-0.0425,1215,1480,1497,1502,1000,1000,1505,1000,1000,1505,1205,1332,1139,1.2877,-0.9707,16.6636,-0.0136,0.0070,1.0458,0.1809,0.1977,0.1641,0.3173,0.2204,0.0082,0.0438,0.2204,0.0082,0.0438,0.3000,0.0600,0.0002,0,-2.2635,-143.5000,-0.0043,-2.2635,-143.5000,-0.0043
-15.9962,-11.1907,1.8056,0.0686,0.2057,-1.2000,-0.1800,0.6400,0.2150,0.0354,0.0253,-0.0485,1215,1481,1497,1504,1000,1000,1505,1000,1000,1505,1205,1332,1139,-1.5836,-0.4317,18.7306,-0.0051,-0.0434,0.9488,0.1765,0.2028,0.1565,0.3242,0.2204,0.0082,0.0438,0.2204,0.0082,0.0438,0.3000,0.0600,0.0002,0,-2.2635,-143.5000,-0.0043,-2.2635,-143.5000,-0.0043
-16.0035,-11.1163,1.9951,0.0686,0.1371,-1.2000,-0.1800,0.6400,0.2150,0.0340,0.0244,-0.0505,1215,1480,1497,1502,1000,1000,1505,1000,1000,1505,1205,1332,1139,1.6141,1.3992,19.0226,-0.0093,0.0069,1.0512,0.1741,0.2072,0.1549,0.3238,0.2204,0.0082,0.0438,0.2204,0.0082,0.0438,0.3000,0.0600,0.0002,0,-2.2635,-143.5000,-0.0043,-2.2635,-143.5000,-0.0043
-16.0055,-11.0189,2.1783,0.0686,-0.0000,-1.2000,-0.1800,0.6400,0.2150,0.0354,0.0248,-0.0474,1215,1480,1497,1502,1000,1000,1505,1000,1000,1505,1205,1332,1139,-1.5698,-0.0851,18.3910,-0.0336,-0.0285,0.9614,0.1781,0.2022,0.1570,0.3226,0.2204,0.0082,0.0438,0.2204,0.0082,0.0438,0.3000,0.0600,0.0002,0,-2.2635,-143.5000,-0.0043,-2.2635,-143.5000,-0.0043
-15.9864,-10.9415,2.3421,0.1371,0.0686,-1.2000,-0.1800,0.6400,0.2150,0.0335,0.0241,-0.0381,1215,1480,1497,1502,1000,1000,1505,1000,1000,1505,1205,1332,1139,2.5055,1.2519,15.2849,-0.0140,0.0142,1.0321,0.1864,0.1955,0.1675,0.3107,0.2204,0.0082,0.0438,0.2204,0.0082,0.0438,0.3000,0.0600,0.0002,0,-2.2635,-143.5000,-0.0043,-2.2635,-143.5000,-0.0043
-15.9716,-10.8746,2.4730,0.1371,-0.0686,-1.2000,-0.1800,0.6400,0.2150,0.0344,0.0247,-0.0275,1215,1480,1497,1502,1000,1000,1505,1000,1000,1505,1205,1332,1139,0.3640,-0.5172,11.8255,0.0431,-0.0091,1.0066,0.1972,0.1834,0.1777,0.3017,0.2204,0.0082,0.0438,0.2204,0.0082,0.0438,0.3000,0.0600,0.0002,0,-2.2635,-143.5000,-0.0043,-2.2635,-143.5000,-0.0043
-15.9227,-10.8261,2.5592,0.0686,-0.0000,-1.2000,-0.1800,0.6400,0.2150,0.0337,0.0246,-0.0111,1215,1480,1497,1502,1000,1000,1505,1000,1000,1505,1205,1332,1139,1.9356,-0.4393,6.3980,0.0221,-0.0216,1.0043,0.2130,0.1679,0.1948,0.2843,0.2204,0.0082,0.0438,0.2204,0.0082,0.0438,0.3000,0.0600,0.0002,0,-2.2635,-143.5000,-0.0043,-2.2635,-143.5000,-0.0043
-15.8873,-10.7899,2.5873,0.1371,0.0686,-1.2000,-0.1800,0.6400,0.2150,0.0335,0.0239,0.0049,1215,1481,1497,1504,1000,1000,1505,1000,1000,1505,1205,1332,1139,2.0056,1.0121,1.1048,0.0059,-0.1100,1.0066,0.2296,0.1527,0.2102,0.2675,0.2204,0.0082,0.0438,0.2204,0.0082,0.0438,0.3000,0.0600,0.0002,0,-2.2635,-143.5000,-0.0043,-2.2635,-143.5000,-0.0043
-15.8214,-10.7653,2.5654,0.1371,0.2057,-1.2000,-0.1800,0.6400,0.2150,0.0343,0.0243,0.0189,1215,1480,1497,1502,1000,1000,1505,1000,1000,1505,1205,1332,1139,-0.0988,-0.0814,-3.8916,0.0429,-0.0274,1.0024,0.2440,0.1375,0.2239,0.2547,0.2204,0.0082,0.0438,0.2204,0.0082,0.0438,0.3000,0.0600,0.0002,0,-2.2635,-143.5000,-0.0043,-2.2635,-143.5000,-0.0043
-15.7722,-10.7451,2.4868,0.1371,0.0686,-1.2000,-0.1800,0.6400,0.2150,0.0336,0.0238,0.0353,1215,1480,1497,1502,1000,1000,1505,1000,1000,1505,1205,1332,1139,1.1988,0.9714,-9.0490,0.0123,-0.0099,0.9613,0.2601,0.1223,0.2404,0.2372,0.2204,0.0082,0.0438,0.2204,0.0082,0.0438,0.3000,0.0600,0.0002,0,-2.2635,-143.5000,-0.0043,-2.2635,-143.5000,-0.0043
-15.7099,-10.7449,2.3620,0.0686,0.2743,-1.2000,-0.1800,0.6400,0.2150,0.0350,0.0232,0.0464,1215,1480,1497,1502,1000,1000,1505,1000,1000,1505,1205,1332,1139,-2.1557,2.3140,-12.8916,-0.0117,-0.0369,1.0251,0.2732,0.1104,0.2496,0.2268,0.2204,0.0082,0.0438,0.2204,0.0082,0.0438,0.3000,0.0600,0.0002,0,-2.2635,-143.5000,-0.0043,-2.2635,-143.5000,-0.0043
-15.6661,-10.7508,2.2019,0.0686,-0.0686,-1.2000,-0.1800,0.6400,0.2150,0.0343,0.0245,0.0568,1215,1480,1497,1502,1000,1000,1505,1000,1000,1505,1205,1332,1139,-0.9237,-0.5215,-16.3114,0.0232,-0.0055,0.9693,0.2817,0.0994,0.2620,0.2170,0.2204,0.0082,0.0438,0.2204,0.0082,0.0438,0.3000,0.0600,0.0002,0,-2.2635,-143.5000,-0.0043,-2.2635,-143.5000,-0.0043
-15.6103,-10.7629,2.0138,0.0686,-0.0686,-1.2000,-0.1800,0.6400,0.2150,0.0348,0.0241,0.0607,1215,1480,1497,1502,1000,1000,1505,1000,1000,1505,1205,1332,1139,-2.3070,0.4677,-17.6505,-0.0159,-0.0460,1.0128,0.2865,0.0954,0.2650,0.2132,0.2204,0.0082,0.0438,0.2204,0.0082,0.0438,0.3000,0.0600,0.0002,0,-2.2635,-143.5000,-0.0043,-2.2635,-143.5000,-0.0043
-15.5414,-10.8001,1.8259,-0.0000,0.0686,-1.2000,-0.1800,0.6400,0.2150,0.0333,0.0244,0.0605,1215,1481,1497,1504,1000,1000,1505,1000,1000,1505,1205,1332,1139,0.8923,-0.1322,-17.5735,0.0043,-0.0087,0.9938,0.2843,0.0968,0.2666,0.2123,0.2204,0.0082,0.0438,0.2204,0.0082,0.0438,0.3000,0.0600,0.0002,0,-2.2635,-143.5000,-0.0043,-2.2635,-143.5000,-0.0043
-15.4642,-10.8267,1.6441,0.0686,0.0686,-1.2000,-0.1800,0.6400,0.2150,0.0331,0.0254,0.0559,1215,1480,1497,1502,1000,1000,1505,1000,1000,1505,1205,1332,1139,0.9628,-2.2672,-16.3569,0.0174,0.0202,0.9720,0.2785,0.1006,0.2633,0.2176,0.2204,0.0082,0.0438,0.2204,0.0082,0.0438,0.3000,0.0600,0.0002,0,-2.2635,-143.5000,-0.0043,-2.2635,-143.5000,-0.0043
-15.3776,-10.8525,1.4836,0.0686,0.2743,-1.2000,-0.1800,0.6400,0.2150,0.0328,0.0242,0.0486,1215,1480,1497,1502,1000,1000,1505,1000,1000,1505,1205,1332,1139,1.1852,0.6946,-13.7020,-0.0031,0.0006,1.0261,0.2722,0.1094,0.2551,0.2234,0.2204,0.0082,0.0438,0.2204,0.0082,0.0438,0.3000,0.0600,0.0002,0,-2.2635,-143.5000,-0.0043,-2.2635,-143.5000,-0.0043
-15.3094,-10.8692,1.3562,0.0686,0.1371,-1.2000,-0.1800,0.6400,0.2150,0.0327,0.0249,0.0388,1215,1480,1497,1502,1000,1000,1505,1000,1000,1505,1205,1332,1139,1.0082,-0.6669,-10.4951,-0.0196,-0.0037,0.9869,0.2616,0.1187,0.2459,0.2338,0.2204,0.0082,0.0438,0.2204,0.0082,0.0438,0.3000,0.0600,0.0002,0,-2.2635,-143.5000,-0.0043,-2.2635,-143.5000,-0.0043
-15.2536,-10.8538,1.2605,0.0686,0.0686,-1.2000,-0.1800,0.6400,0.2150,0.0336,0.0244,0.0259,1215,1480,1497,1502,1000,1000,1505,1000,1000,1505,1205,1332,1139,-1.2902,0.2522,-6.1973,-0.0318,-0.0195,0.9857,0.2501,0.1311,0.2317,0.2471,0.2204,0.0082,0.0438,0.2204,0.0082,0.0438,0.3000,0.0600,0.0002,0,-2.2635,-143.5000,-0.0043,-2.2635,-143.5000,-0.0043
-15.2152,-10.8385,1.2072,0.0686,0.1371,-1.2000,-0.1800,0.6400,0.2150,0.0330,0.0238,0.0161,1215,1480,1497,1502,1000,1000,1505,1000,1000,1505,1205,1332,1139,-0.1894,1.7006,-2.8367,0.0045,0.0026,1.0352,0.2403,0.1421,0.2218,0.2557,0.2204,0.0082,0.0438,0.2204,0.0082,0.0438,0.3000,0.0600,0.0002,0,-2.2635,-143.5000,-0.0043,-2.2635,-143.5000,-0.0043
-15.1911,-10.7985,1.1865,0.0686,0.2057,-1.2000,-0.1800,0.6400,0.2150,0.0335,0.0246,0.0056,1215,1481,1497,1504,1000,1000,1505,1000,1000,1505,1205,1332,1139,-1.3052,-0.3734,0.6980,-0.0370,-0.0320,0.9786,0.2295,0.1513,0.2118,0.2674,0.2204,0.0082,0.0438,0.2204,0.0082,0.0438,0.3000,0.0600,0.0002,0,-2.2635,-143.5000,-0.0043,-2.2635,-143.5000,-0.0043
-15.1599,-10.7547,1.1980,-0.0000,0.1371,-1.2000,-0.1800,0.6400,0.2150,0.0328,0.0234,-0.0038,1215,1480,1497,1502,1000,1000,1505,1000,1000,1505,1205,1332,1139,-0.0314,2.2328,3.5371,-0.0130,-0.0121,1.0106,0.2206,0.1626,0.2017,0.2750,0.2204,0.0082,0.0438,0.2204,0.0082,0.0438,0.3000,0.0600,0.0002,0,-2.2635,-143.5000,-0.0043,-2.2635,-143.5000,-0.0043
-15.1399,-10.7148,1.2369,0.0686,0.2743,-1.2000,-0.1800,0.6400,0.2150,0.0329,0.0245,-0.0077,1215,1480,1497,1502,1000,1000,1505,1000,1000,1505,1205,1332,1139,-0.3056,-0.5454,5.2063,0.0229,-0.0001,0.9883,0.2157,0.1653,0.1989,0.2801,0.2204,0.0082,0.0438,0.2204,0.0082,0.0438,0.3000,0.0600,0.0002,0,-2.2635,-143.5000,-0.0043,-2.2635,-143.5000,-0.0043
-15.1069,-10.6614,1.2908,0.0686,0.2057,-1.2000,-0.1800,0.6400,0.2150,0.0328,0.0241,-0.0125,1215,1480,1497,1502,1000,1000,1505,1000,1000,1505,1205,1332,1139,-0.1149,0.1707,6.8335,-0.0012,0.0060,0.9901,0.2112,0.1707,0.1938,0.2843,0.2204,0.0082,0.0438,0.2204,0.0082,0.0438,0.3000,0.0600,0.0002,0,-2.2635,-143.5000,-0.0043,-2.2635,-143.5000,-0.0043
-15.0860,-10.6279,1.3609,0.0686,0.2057,-1.2000,-0.1800,0.6400,0.2150,0.0325,0.0240,-0.0143,1215,1480,1497,1502,1000,1000,1505,1000,1000,1505,1205,1332,1139,0.2901,0.3198,7.4258,0.0174,-0.0109,1.0414,0.2093,0.1728,0.1921,0.2858,0.2204,0.0082,0.0438,0.2204,0.0082,0.0438,0.3000,0.0600,0.0002,0,-2.2635,-143.5000,-0.0043,-2.2635,-143.5000,-0.0043
-15.0566,-10.5837,1.4311,0.1371,0.2743,-1.2000,-0.1800,0.6400,0.2150,0.0327,0.0249,-0.0140,1215,1480,1497,1502,1000,1000,1505,1000,1000,1505,1205,1332,1139,-0.1499,-2.0619,7.4049,-0.0004,0.0223,0.9498,0.2088,0.1714,0.1933,0.2865,0.2204,0.0082,0.0438,0.2204,0.0082,0.0438,0.3000,0.0600,0.0002,0,-2.2635,-143.5000,-0.0043,-2.2635,-143.5000,-0.0043
-15.0296,-10.5441,1.4958,0.0686,-0.0686,-1.2000,-0.1800,0.6400,0.2150,0.0323,0.0234,-0.0119,1215,1481,1497,1504,1000,1000,1505,1000,1000,1505,1205,1332,1139,0.4998,1.2132,6.6202,-0.0046,-0.0283,1.0316,0.2120,0.1712,0.1942,0.2826,0.2204,0.0082,0.0438,0.2204,0.0082,0.0438,0.3000,0.0600,0.0002,0,-2.2635,-143.5000,-0.0043,-2.2635,-143.5000,-0.0043
-14.9973,-10.5078,1.5541,0.1371,-0.0686,-1.2000,-0.1800,0.6400,0.2150,0.0322,0.0243,-0.0087,1215,1480,1497,1502,1000,1000,1505,1000,1000,1505,1205,1332,1139,0.6255,-0.9315,5.3184,-0.0244,0.0066,0.9932,0.2142,0.1673,0.1984,0.2802,0.2204,0.0082,0.0438,0.2204,0.0082,0.0438,0.3000,0.0600,0.0002,0,-2.2635,-143.5000,-0.0043,-2.2635,-143.5000,-0.0043
-14.9675,-10.4599,1.5954,0.1371,0.0686,-1.2000,-0.1800,0.6400,0.2150,0.0324,0.0236,-0.0050,1215,1480,1497,1502,1000,1000,1505,1000,1000,1505,1205,1332,1139,0.0569,0.3876,4.3550,-0.0060,-0.0311,1.0080,0.2188,0.1641,0.2012,0.2760,0.2204,0.0082,0.0438,0.2204,0.0082,0.0438,0.3000,0.0600,0.0002,0,-2.2635,-143.5000,-0.0043,-2.2635,-143.5000,-0.0043
-14.9273,-10.4233,1.6258,0.1371,-0.0000,-1.2000,-0.1800,0.6400,0.2150,0.0320,0.0235,-0.0010,1215,1480,1497,1502,1000,1000,1505,1000,1000,1505,1205,1332,1139,0.6714,0.5105,2.9855,-0.0278,-0.0233,0.9804,0.2225,0.1606,0.2054,0.2715,0.2204,0.0082,0.0438,0.2204,0.0082,0.0438,0.3000,0.0600,0.0002,0,-2.2635,-143.5000,-0.0043,-2.2635,-143.5000,-0.0043
-14.9012,-10.3836,1.6410,0.0686,-0.0000,-1.2000,-0.1800,0.6400,0.2150,0.0323,0.0233,0.0028,1215,1480,1497,1502,1000,1000,1505,1000,1000,1505,1205,1332,1139,-0.0086,0.6880,1.7032,0.0107,-0.0221,1.0322,0.2267,0.1566,0.2089,0.2678,0.2204,0.0082,0.0438,0.2204,0.0082,0.0438,0.3000,0.0600,0.0002,0,-2.2635,-143.5000,-0.0043,-2.2635,-143.5000,-0.0043
-14.8621,-10.3520,1.6471,-0.0000,-0.1371,-1.2000,-0.1800,0.6400,0.2150,0.0326,0.0238,0.0052,1215,1480,1497,1502,1000,1000,1505,1000,1000,1505,1205,1332,1139,-0.9551,-0.6572,0.9310,0.0154,0.0343,0.9845,0.2289,0.1534,0.2114,0.2663,0.2204,0.0082,0.0438,0.2204,0.0082,0.0438,0.3000,0.0600,0.0002,0,-2.2635,-143.5000,-0.0043,-2.2635,-143.5000,-0.0043
-14.8369,-10.3202,1.6412,0.1371,-0.0000,-1.2000,-0.1800,0.6400,0.2150,0.0321,0.0230,0.0081,1215,1481,1497,1504,1000,1000,1505,1000,1000,1505,1205,1332,1139,-0.0155,1.0105,-0.0451,-0.0066,-0.0679,0.9959,0.2322,0.1517,0.2140,0.2621,0.2204,0.0082,0.0438,0.2204,0.0082,0.0438,0.3000,0.0600,0.0002,0,-2.2635,-143.5000,-0.0043,-2.2635,-143.5000,-0.0043
-14.7976,-10.3065,1.6314,-0.0686,-0.1371,-1.2000,-0.1800,0.6400,0.2150,0.0324,0.0240,0.0101,1215,1480,1497,1502,1000,1000,1505,1000,1000,1505,1205,1332,1139,-0.7817,-1.2335,-1.0547,0.0065,0.0530,1.0074,0.2335,0.1485,0.2168,0.2612,0.2204,0.0082,0.0438,0.2204,0.0082,0.0438,0.3000,0.0600,0.0002,0,-2.2635,-143.5000,-0.0043,-2.2635,-143.5000,-0.0043
-14.7664,-10.2828,1.6112,0.0686,-0.0686,-1.2000,-0.1800,0.6400,0.2150,0.0317,0.0238,0.0120,1215,1480,1497,1502,1000,1000,1505,1000,1000,1505,1205,1332,1139,0.4803,-0.7941,-1.3168,0.0270,-0.0065,0.9997,0.2349,0.1475,0.2190,0.2585,0.2204,0.0082,0.0438,0.2204,0.0082,0.0438,0.3000,0.0600,0.0002,0,-2.2635,-143.5000,-0.0043,-2.2635,-143.5000,-0.0043
-14.7146,-10.2737,1.5909,0.1371,-0.0686,-1.2000,-0.1800,0.6400,0.2150,0.0318,0.0235,0.0129,1215,1480,1497,1502,1000,1000,1505,1000,1000,1505,1205,1332,1139,0.0575,-0.3106,-1.6835,-0.0184,0.0238,0.9796,0.2361,0.1468,0.2196,0.2575,0.2204,0.0082,0.0438,0.2204,0.0082,0.0438,0.3000,0.0600,0.0002,0,-2.2635,-143.5000,-0.0043,-2.2635,-143.5000,-0.0043
-14.6776,-10.2567,1.5662,0.1371,-0.0686,-1.2000,-0.1800,0.6400,0.2150,0.0311,0.0236,0.0134,1215,1480,1497,1502,1000,1000,1505,1000,1000,1505,1205,1332,1139,1.5650,-0.5098,-1.8421,-0.0041,-0.0084,1.0345,0.2358,0.1470,0.2209,0.2563,0.2204,0.0082,0.0438,0.2204,0.0082,0.0438,0.3000,0.0600,0.0002,0,-2.2635,-143.5000,-0.0043,-2.2635,-143.5000,-0.0043
-14.6261,-10.2376,1.5433,0.1371,-0.0686,-1.2000,-0.1800,0.6400,0.2150,0.0319,0.0238,0.0128,1215,1480,1497,1502,1000,1000,1505,1000,1000,1505,1205,1332,1139,-0.6171,-1.1263,-1.5917,-0.0065,0.0425,0.9838,0.2359,0.1464,0.2198,0.2579,0.2204,0.0082,0.0438,0.2204,0.0082,0.0438,0.3000,0.0600,0.0002,0,-2.2635,-143.5000,-0.0043,-2.2635,-143.5000,-0.0043
-14.5875,-10.2115,1.5192,0.0686,-0.0686,-1.2000,-0.1800,0.6400,0.2210,0.0309,0.0228,0.0128,1223,1481,1497,1504,1000,1000,1505,1000,1000,1505,1205,1332,1139,1.4606,1.0630,-1.6487,-0.0192,-0.0643,1.0281,0.2418,0.1545,0.2257,0.2620,0.2204,0.0082,0.0438,0.2204,0.0082,0.0438,0.3000,0.0600,0.0002,0,-2.2635,-143.5000,-0.0043,-2.2635,-143.5000,-0.0043
-14.5458,-10.1903,1.5007,0.1371,-0.0686,-1.2000,-0.1800,0.6400,0.2310,0.0318,0.0235,0.0104,1231,1480,1497,1502,1000,1000,1505,1000,1000,1505,1205,1332,1139,-0.6909,-0.5542,-1.1619,-0.0210,0.0274,0.9813,0.2497,0.1653,0.2332,0.2759,0.2204,0.0082,0.0438,0.2204,0.0082,0.0438,0.3000,0.0600,0.0002,0,-2.2635,-143.5000,-0.0043,-2.2635,-143.5000,-0.0043
-14.5132,-10.1559,1.4825,0.1371,0.2057,-1.2000,-0.1800,0.6400,0.2360,0.0313,0.0233,0.0101,1236,1480,1497,1502,1000,1000,1505,1000,1000,1505,1205,1332,1139,0.2521,-0.1737,-0.7373,0.0077,-0.0336,1.0228,0.2541,0.1713,0.2381,0.2804,0.2204,0.0082,0.0438,0.2204,0.0082,0.0438,0.3000,0.0600,0.0002,0,-2.2635,-143.5000,-0.0043,-2.2635,-143.5000,-0.0043
-14.4733,-10.1359,1.4726,0.1371,0.1371,-1.2000,-0.1800,0.6400,0.2460,0.0314,0.0230,0.0090,1246,1480,1497,1502,1000,1000,1505,1000,1000,1505,1205,1332,1139,-0.3087,0.3448,-0.3139,-0.0000,0.0159,0.9648,0.2634,0.1825,0.2466,0.2914,0.2204,0.0082,0.0438,0.2204,0.0082,0.0438,0.3000,0.0600,0.0002,0,-2.2635,-143.5000,-0.0043,-2.2635,-143.5000,-0.0043
-14.4415,-10.1124,1.4565,0.1371,0.1371,-1.2000,-0.1800,0.6400,0.2500,0.0310,0.0234,0.0128,1250,1480,1497,1502,1000,1000,1505,1000,1000,1505,1205,1332,1139,0.4291,-0.6900,-1.6035,0.0038,-0.0261,1.0240,0.2704,0.1828,0.2551,0.2917,0.2204,0.0082,0.0438,0.2204,0.0082,0.0438,0.3000,0.0600,0.0002,0,-2.2635,-143.5000,-0.0043,-2.2635,-143.5000,-0.0043
-14.3947,-10.0911,1.4433,0.0686,0.2057,-1.2000,-0.1800,0.6400,0.2510,0.0312,0.0234,0.0060,1251,1480,1497,1502,1000,1000,1505,1000,1000,1505,1205,1332,1139,-0.1510,-0.6909,0.5387,-0.0010,0.0210,0.9452,0.2649,0.1904,0.2492,0.2995,0.2204,0.0082,0.0438,0.2204,0.0082,0.0438,0.3000,0.0600,0.0002,0,-2.2635,-143.5000,-0.0043,-2.2635,-143.5000,-0.0043
-14.3592,-10.0655,1.4538,0.1371,-0.0686,-1.2000,-0.1800,0.6400,0.2510,0.0306,0.0227,0.0007,1253,1481,1497,1504,1000,1000,1505,1000,1000,1505,1205,1332,1139,1.0907,0.7604,2.3331,0.0159,-0.0570,1.0610,0.2595,0.1971,0.2438,0.3036,0.2204,0.0082,0.0438,0.2204,0.0082,0.0438,0.3000,0.0600,0.0002,0,-2.2635,-143.5000,-0.0043,-2.2635,-143.5000,-0.0043
-14.3223,-10.0284,1.4716,0.1371,-0.0000,-1.2000,-0.1800,0.6400,0.2510,0.0308,0.0234,0.0030,1251,1480,1497,1502,1000,1000,1505,1000,1000,1505,1205,1332,1139,0.3722,-1.0254,1.4136,-0.0256,-0.0023,0.9615,0.2614,0.1938,0.2466,0.3022,0.2204,0.0082,0.0438,0.2204,0.0082,0.0438,0.3000,0.0600,0.0002,0,-2.2635,-143.5000,-0.0043,-2.2635,-143.5000,-0.0043
-14.2781,-9.9947,1.4738,0.1371,0.2743,-1.2000,-0.1800,0.6400,0.2510,0.0305,0.0225,0.0045,1251,1480,1497,1502,1000,1000,1505,1000,1000,1505,1205,1332,1139,0.8679,0.9338,1.0999,-0.0156,-0.0341,1.0043,0.2635,0.1936,0.2474,0.2995,0.2204,0.0082,0.0438,0.2204,0.0082,0.0438,0.3000,0.0600,0.0002,0,-2.2635,-143.5000,-0.0043,-2.2635,-143.5000,-0.0043
-14.2347,-9.9628,1.4822,0.1371,0.0686,-1.2000,-0.1800,0.6400,0.2510,0.0304,0.0227,0.0011,1251,1480,1497,1502,1000,1000,1505,1000,1000,1505,1205,1332,1139,0.8272,0.2936,2.1902,-0.0097,-0.0164,0.9932,0.2598,0.1968,0.2444,0.3030,0.2204,0.0082,0.0438,0.2204,0.0082,0.0438,0.3000,0.0600,0.0002,0,-2.2635,-143.5000,-0.0043,-2.2635,-143.5000,-0.0043
-14.2016,-9.9218,1.4990,0.1371,0.0686,-1.2000,-0.1800,0.6400,0.2510,0.0308,0.0221,0.0015,1251,1480,1497,1502,1000,1000,1505,1000,1000,1505,1205,1332,1139,-0.2246,1.5414,2.2358,-0.0017,-0.0173,1.0091,0.2612,0.1966,0.2438,0.3024,0.2204,0.0082,0.0438,0.2204,0.0082,0.0438,0.3000,0.0600,0.0002,0,-2.2635,-143.5000,-0.0043,-2.2635,-143.5000,-0.0043
-14.1646,-9.8835,1.5049,0.1371,0.0686,-1.2000,-0.1800,0.6400,0.2510,0.0307,0.0229,0.0069,1251,1480,1497,1502,1000,1000,1505,1000,1000,1505,1205,1332,1139,-0.2208,-0.4593,0.4549,0.0094,-0.0069,1.0198,0.2658,0.1905,0.2501,0.2977,0.2204,0.0082,0.0438,0.2204,0.0082,0.0438,0.3000,0.0600,0.0002,0,-2.2635,-143.5000,-0.0043,-2.2635,-143.5000,-0.0043
-14.1291,-9.8497,1.4982,0.1371,-0.0000,-1.2000,-0.1800,0.6400,0.2540,0.0306,0.0223,0.0056,1255,1481,1497,1504,1000,1000,1505,1000,1000,1505,1205,1332,1139,-0.1073,0.6710,0.7058,-0.0263,-0.0402,0.9452,0.2679,0.1955,0.2513,0.3013,0.2204,0.0082,0.0438,0.2204,0.0082,0.0438,0.3000,0.0600,0.0002,0,-2.2635,-143.5000,-0.0043,-2.2635,-143.5000,-0.0043
-14.0877,-9.8298,1.5006,0.0686,-0.0686,-1.2000,-0.1800,0.6400,0.2610,0.0305,0.0226,0.0054,1261,1480,1497,1502,1000,1000,1505,1000,1000,1505,1205,1332,1139,-0.0968,-0.1600,0.5720,0.0110,0.0181,1.0375,0.2742,0.2025,0.2585,0.3088,0.2204,0.0082,0.0438,0.2204,0.0082,0.0438,0.3000,0.0600,0.0002,0,-2.2635,-143.5000,-0.0043,-2.2635,-143.5000,-0.0043
-14.0555,-9.7977,1.4966,0.0686,0.0686,-1.2000,-0.1800,0.6400,0.2610,0.0302,0.0228,0.0103,1261,1480,1497,1502,1000,1000,1505,1000,1000,1505,1205,1332,1139,0.5295,-0.5832,-0.6526,0.0219,0.0286,0.9903,0.2787,0.1978,0.2639,0.3036,0.2204,0.0082,0.0438,0.2204,0.0082,0.0438,0.3000,0.0600,0.0002,0,-2.2635,-143.5000,-0.0043,-2.2635,-143.5000,-0.0043
-14.0093,-9.7826,1.4794,0.1371,0.2743,-1.2000,-0.1800,0.6400,0.2700,0.0306,0.0222,0.0122,1270,1480,1497,1502,1000,1000,1505,1000,1000,1505,1205,1332,1139,-0.7761,0.6555,-1.4549,-0.0148,-0.0370,1.0042,0.2907,0.2049,0.2738,0.3106,0.2204,0.0082,0.0438,0.2204,0.0082,0.0438,0.3000,0.0600,0.0002,0,-2.2635,-143.5000,-0.0043,-2.2635,-143.5000,-0.0043
-13.9673,-9.7607,1.4603,0.1371,-0.0686,-1.2000,-0.1800,0.6400,0.2710,0.0294,0.0231,0.0098,1271,1480,1497,1502,1000,1000,1505,1000,1000,1505,1205,1332,1139,1.7216,-1.5664,-0.6923,-0.0472,0.0051,0.9892,0.2872,0.2086,0.2745,0.3137,0.2204,0.0082,0.0438,0.2204,0.0082,0.0438,0.3000,0.0600,0.0002,0,-2.2635,-143.5000,-0.0043,-2.2635,-143.5000,-0.0043
-13.9279,-9.7363,1.4456,0.0686,0.2057,-1.2000,-0.1800,0.6400,0.2790,0.0305,0.0217,0.0109,1279,1480,1497,1502,1000,1000,1505,1000,1000,1505,1205,1332,1139,-0.9034,1.5930,-0.9966,0.0149,0.0309,1.0115,0.2987,0.2159,0.2811,0.3203,0.2204,0.0082,0.0438,0.2204,0.0082,0.0438,0.3000,0.0600,0.0002,0,-2.2635,-143.5000,-0.0043,-2.2635,-143.5000,-0.0043
-13.8814,-9.7131,1.4278,0.1371,0.1371,-1.2000,-0.1800,0.6400,0.2810,0.0293,0.0226,0.0141,1282,1481,1497,1504,1000,1000,1505,1000,1000,1505,1205,1332,1139,1.6632,-0.6168,-1.9206,-0.0009,-0.0080,1.0225,0.3017,0.2150,0.2884,0.3188,0.2204,0.0082,0.0438,0.2204,0.0082,0.0438,0.3000,0.0600,0.0002,0,-2.2635,-143.5000,-0.0043,-2.2635,-143.5000,-0.0043
-13.8403,-9.6793,1.4039,0.0686,-0.0000,-1.2000,-0.1800,0.6400,0.2810,0.0299,0.0219,0.0085,1281,1480,1497,1502,1000,1000,1505,1000,1000,1505,1205,1332,1139,0.1199,0.8207,-0.5432,-0.0528,-0.0517,0.9746,0.2975,0.2207,0.2816,0.3243,0.2204,0.0082,0.0438,0.2204,0.0082,0.0438,0.3000,0.0600,0.0002,0,-2.2635,-143.5000,-0.0043,-2.2635,-143.5000,-0.0043
-13.7900,-9.6568,1.3936,0.1371,-0.0686,-1.2000,-0.1800,0.6400,0.2810,0.0297,0.0219,0.0072,1281,1480,1497,1502,1000,1000,1505,1000,1000,1505,1205,1332,1139,0.2425,0.8439,0.1940,0.0021,-0.0095,0.9886,0.2961,0.2222,0.2804,0.3253,0.2204,0.0082,0.0438,0.2204,0.0082,0.0438,0.3000,0.0600,0.0002,0,-2.2635,-143.5000,-0.0043,-2.2635,-143.5000,-0.0043
-13.7538,-9.6189,1.3865,0.1371,0.1371,-1.2000,-0.1800,0.6400,0.2810,0.0293,0.0223,0.0097,1281,1480,1497,1502,1000,1000,1505,1000,1000,1505,1205,1332,1139,0.9923,-0.3320,-0.5547,0.0132,0.0108,1.0115,0.2977,0.2197,0.2838,0.3229,0.2204,0.0082,0.0438,0.2204,0.0082,0.0438,0.3000,0.0600,0.0002,0,-2.2635,-143.5000,-0.0043,-2.2635,-143.5000,-0.0043
-13.7161,-9.5856,1.3771,0.0686,0.2057,-1.2000,-0.1800,0.6400,0.2810,0.0299,0.0213,0.0087,1281,1480,1497,1502,1000,1000,1505,1000,1000,1505,1205,1332,1139,-0.6461,1.7338,-0.2320,-0.0243,-0.0027,1.0202,0.2982,0.2211,0.2811,0.3236,0.2204,0.0082,0.0438,0.2204,0.0082,0.0438,0.3000,0.0600,0.0002,0,-2.2635,-143.5000,-0.0043,-2.2635,-143.5000,-0.0043
-13.6797,-9.5617,1.3722,0.1371,0.0686,-1.2000,-0.1800,0.6400,0.2810,0.0295,0.0224,0.0069,1281,1480,1497,1502,1000,1000,1505,1000,1000,1505,1205,1332,1139,0.1252,-0.7451,0.3546,-0.0280,-0.1037,0.9824,0.2950,0.2222,0.2808,0.3260,0.2204,0.0082,0.0438,0.2204,0.0082,0.0438,0.3000,0.0600,0.0002,0,-2.2635,-143.5000,-0.0043,-2.2635,-143.5000,-0.0043
-13.6443,-9.5238,1.3685,0.1371,0.1371,-1.2000,-0.1800,0.6400,0.2810,0.0295,0.0222,0.0064,1283,1481,1497,1504,1000,1000,1505,1000,1000,1505,1205,1332,1139,-0.0407,-0.4840,0.5564,0.0212,-0.0391,0.9808,0.2947,0.2229,0.2801,0.3263,0.2204,0.0082,0.0438,0.2204,0.0082,0.0438,0.3000,0.0600,0.0002,0,-2.2635,-143.5000,-0.0043,-2.2635,-143.5000,-0.0043
-13.6071,-9.4952,1.3638,0.2057,-0.0000,-1.2000,-0.1800,0.6400,0.2810,0.0296,0.0215,0.0062,1281,1480,1497,1502,1000,1000,1505,1000,1000,1505,1205,1332,1139,-0.4935,1.0509,0.2596,0.0184,0.0105,1.0149,0.2954,0.2237,0.2791,0.3258,0.2204,0.0082,0.0438,0.2204,0.0082,0.0438,0.3000,0.0600,0.0002,0,-2.2635,-143.5000,-0.0043,-2.2635,-143.5000,-0.0043
-13.5667,-9.4694,1.3582,0.1371,0.1371,-1.2000,-0.1800,0.6400,0.2810,0.0292,0.0218,0.0081,1281,1480,1497,1502,1000,1000,1505,1000,1000,1505,1205,1332,1139,0.1409,0.1133,-0.0759,0.0005,0.0120,1.0201,0.2965,0.2218,0.2817,0.3240,0.2204,0.0082,0.0438,0.2204,0.0082,0.0438,0.3000,0.0600,0.0002,0,-2.2635,-143.5000,-0.0043,-2.2635,-143.5000,-0.0043
-13.5314,-9.4387,1.3569,0.1371,0.2743,-1.2000,-0.1800,0.6400,0.2810,0.0287,0.0218,0.0074,1281,1480,1497,1502,1000,1000,1505,1000,1000,1505,1205,1332,1139,1.2521,-0.0306,0.2538,-0.0187,0.0045,0.9862,0.2953,0.2230,0.2816,0.3241,0.2204,0.0082,0.0438,0.2204,0.0082,0.0438,0.3000,0.0600,0.0002,0,-2.2635,-143.5000,-0.0043,-2.2635,-143.5000,-0.0043
-13.4930,-9.4120,1.3533,0.1371,0.1371,-1.2000,-0.1800,0.6400,0.2810,0.0292,0.0218,0.0082,1281,1480,1497,1502,1000,1000,1505,1000,1000,1505,1205,1332,1139,-0.2029,-0.0469,0.0485,-0.0387,-0.0464,0.9941,0.2967,0.2217,0.2818,0.3238,0.2204,0.0082,0.0438,0.2204,0.0082,0.0438,0.3000,0.0600,0.0002,0,-2.2635,-143.5000,-0.0043,-2.2635,-143.5000,-0.0043
-13.4478,-9.3889,1.3421,0.1371,0.0686,-1.2000,-0.1800,0.6400,0.2810,0.0292,0.0220,0.0091,1281,1480,1497,1502,1000,1000,1505,1000,1000,1505,1205,1332,1139,-0.4274,-0.5353,-0.3699,0.0148,-0.0455,1.0000,0.2974,0.2207,0.2828,0.3231,0.2204,0.0082,0.0438,0.2204,0.0082,0.0438,0.3000,0.0600,0.0002,0,-2.2635,-143.5000,-0.0043,-2.2635,-143.5000,-0.0043
-13.4070,-9.3626,1.3315,0.1371,0.0686,-1.2000,-0.1800,0.6400,0.2810,0.0288,0.0218,0.0087,1283,1481,1497,1504,1000,1000,1505,1000,1000,1505,1205,1332,1139,0.3352,-0.2789,-0.3205,-0.0023,0.0318,0.9949,0.2967,0.2217,0.2827,0.3229,0.2204,0.0082,0.0438,0.2204,0.0082,0.0438,0.3000,0.0600,0.0002,0,-2.2635,-143.5000,-0.0043,-2.2635,-143.5000,-0.0043
-13.3676,-9.3371,1.3225,0.1371,0.2057,-1.2000,-0.1800,0.6400,0.2810,0.0285,0.0214,0.0089,1281,1480,1497,1502,1000,1000,1505,1000,1000,1505,1205,1332,1139,0.8554,0.5452,-0.5688,-0.0358,0.0449,1.0039,0.2970,0.2222,0.2828,0.3220,0.2204,0.0082,0.0438,0.2204,0.0082,0.0438,0.3000,0.0600,0.0002,0,-2.2635,-143.5000,-0.0043,-2.2635,-143.5000,-0.0043
-13.3292,-9.3142,1.3101,0.2057,0.0686,-1.2000,-0.1800,0.6400,0.2810,0.0287,0.0215,0.0114,1281,1480,1497,1502,1000,1000,1505,1000,1000,1505,1205,1332,1139,0.0853,0.2254,-1.0948,0.0126,-0.0218,1.0194,0.2997,0.2193,0.2852,0.3198,0.2204,0.0082,0.0438,0.2204,0.0082,0.0438,0.3000,0.0600,0.0002,0,-2.2635,-143.5000,-0.0043,-2.2635,-143.5000,-0.0043
-13.2892,-9.2892,1.2953,0.0686,0.0686,-1.2000,-0.1800,0.6400,0.2810,0.0288,0.0219,0.0105,1281,1480,1497,1502,1000,1000,1505,1000,1000,1505,1205,1332,1139,-0.1913,-0.8002,-0.8032,0.0085,-0.0627,0.9888,0.2984,0.2198,0.2846,0.3211,0.2204,0.0082,0.0438,0.2204,0.0082,0.0438,0.3000,0.0600,0.0002,0,-2.2635,-143.5000,-0.0043,-2.2635,-143.5000,-0.0043
-13.2508,-9.2656,1.2833,0.1371,-0.0686,-1.2000,-0.1800,0.6400,0.2810,0.0289,0.0217,0.0088,1281,1480,1497,1502,1000,1000,1505,1000,1000,1505,1205,1332,1139,-0.6619,-0.5481,-0.1952,-0.0247,0.0221,0.9970,0.2970,0.2215,0.2827,0.3228,0.2204,0.0082,0.0438,0.2204,0.0082,0.0438,0.3000,0.0600,0.0002,0,-2.2635,-143.5000,-0.0043,-2.2635,-143.5000,-0.0043
-13.2107,-9.2417,1.2726,-0.0000,0.2743,-1.2000,-0.1800,0.6400,0.2810,0.0286,0.0214,0.0088,1281,1480,1497,1502,1000,1000,1505,1000,1000,1505,1205,1332,1139,-0.2822,0.0780,-0.2998,0.0255,0.0244,1.0098,0.2970,0.2222,0.2826,0.3223,0.2204,0.0082,0.0438,0.2204,0.0082,0.0438,0.3000,0.0600,0.0002,0,-2.2635,-143.5000,-0.0043,-2.2635,-143.5000,-0.0043
-13.1737,-9.2160,1.2632,0.0686,-0.0000,-1.2000,-0.1800,0.6400,0.2810,0.0282,0.0213,0.0095,1283,1481,1497,1504,1000,1000,1505,1000,1000,1505,1205,1332,1139,0.5534,0.2791,-0.4930,0.0224,-0.0197,0.9706,0.2974,0.2220,0.2836,0.3210,0.2204,0.0082,0.0438,0.2204,0.0082,0.0438,0.3000,0.0600,0.0002,0,-2.2635,-143.5000,-0.0043,-2.2635,-143.5000,-0.0043
-13.1383,-9.1900,1.2576,0.1371,0.0686,-1.2000,-0.1800,0.6400,0.2810,0.0282,0.0211,0.0077,1281,1480,1497,1502,1000,1000,1505,1000,1000,1505,1205,1332,1139,0.3968,0.5138,-0.1706,-0.0356,0.0451,1.0105,0.2958,0.2239,0.2817,0.3226,0.2204,0.0082,0.0438,0.2204,0.0082,0.0438,0.3000,0.0600,0.0002,0,-2.2635,-143.5000,-0.0043,-2.2635,-143.5000,-0.0043
-13.0999,-9.1632,1.2535,0.1371,-0.1371,-1.2000,-0.1800,0.6400,0.2810,0.0285,0.0214,0.0075,1281,1480,1497,1502,1000,1000,1505,1000,1000,1505,1205,1332,1139,-0.4034,-0.3046,0.2377,-0.0045,-0.0566,1.0142,0.2956,0.2236,0.2815,0.3234,0.2204,0.0082,0.0438,0.2204,0.0082,0.0438,0.3000,0.0600,0.0002,0,-2.2635,-143.5000,-0.0043,-2.2635,-143.5000,-0.0043
-13.0589,-9.1362,1.2477,0.1371,-0.0000,-1.2000,-0.1800,0.6400,0.2810,0.0285,0.0215,0.0076,1281,1480,1497,1502,1000,1000,1505,1000,1000,1505,1205,1332,1139,-0.6547,-0.5803,0.1845,0.0144,-0.0381,0.9998,0.2955,0.2234,0.2816,0.3234,0.2204,0.0082,0.0438,0.2204,0.0082,0.0438,0.3000,0.0600,0.0002,0,-2.2635,-143.5000,-0.0043,-2.2635,-143.5000,-0.0043
-13.0216,-9.1078,1.2440,0.0686,0.0686,-1.2000,-0.1800,0.6400,0.2810,0.0280,0.0212,0.0065,1281,1480,1497,1502,1000,1000,1505,1000,1000,1505,1205,1332,1139,0.2541,-0.0483,0.4903,-0.0176,0.0370,0.9809,0.2943,0.2253,0.2807,0.3237,0.2204,0.0082,0.0438,0.2204,0.0082,0.0438,0.3000,0.0600,0.0002,0,-2.2635,-143.5000,-0.0043,-2.2635,-143.5000,-0.0043
-12.9872,-9.0808,1.2447,0.1371,-0.0000,-1.2000,-0.1800,0.6400,0.2810,0.0280,0.0209,0.0061,1281,1480,1497,1502,1000,1000,1505,1000,1000,1505,1205,1332,1139,0.1265,0.6112,0.6531,-0.0070,-0.0081,0.9973,0.2942,0.2261,0.2800,0.3238,0.2204,0.0082,0.0438,0.2204,0.0082,0.0438,0.3000,0.0600,0.0002,0,-2.2635,-143.5000,-0.0043,-2.2635,-143.5000,-0.0043
-12.9513,-9.0563,1.2451,0.1371,0.0686,-1.2000,-0.1800,0.6400,0.2810,0.0277,0.0211,0.0077,1283,1481,1497,1504,1000,1000,1505,1000,1000,1505,1205,1332,1139,0.5258,0.0752,0.1469,0.0346,0.0116,1.0419,0.2953,0.2245,0.2820,0.3221,0.2204,0.0082,0.0438,0.2204,0.0082,0.0438,0.3000,0.0600,0.0002,0,-2.2635,-143.5000,-0.0043,-2.2635,-143.5000,-0.0043
-12.9128,-9.0298,1.2446,0.1371,-0.0000,-1.2000,-0.1800,0.6400,0.2810,0.0277,0.0213,0.0061,1281,1480,1497,1502,1000,1000,1505,1000,1000,1505,1205,1332,1139,0.2703,-0.6369,0.3623,-0.0103,-0.0662,1.0054,0.2935,0.2258,0.2807,0.3240,0.2204,0.0082,0.0438,0.2204,0.0082,0.0438,0.3000,0.0600,0.0002,0,-2.2635,-143.5000,-0.0043,-2.2635,-143.5000,-0.0043
-12.8742,-9.0045,1.2442,0.1371,-0.0000,-1.2000,-0.1800,0.6400,0.2760,0.0280,0.0213,0.0058,1276,1480,1497,1502,1000,1000,1505,1000,1000,1505,1205,1332,1139,-0.4550,-0.6450,0.8268,-0.0444,-0.0032,0.9612,0.2885,0.2209,0.2751,0.3194,0.2204,0.0082,0.0438,0.2204,0.0082,0.0438,0.3000,0.0600,0.0002,0,-2.2635,-143.5000,-0.0043,-2.2635,-143.5000,-0.0043
-12.8353,-8.9768,1.2428,0.0686,-0.0000,-1.2000,-0.1800,0.6400,0.2740,0.0279,0.0210,0.0056,1274,1480,1497,1502,1000,1000,1505,1000,1000,1505,1205,1332,1139,-0.5249,-0.1627,0.7458,0.0097,0.0156,1.0111,0.2865,0.2194,0.2727,0.3173,0.2204,0.0082,0.0438,0.2204,0.0082,0.0438,0.3000,0.0600,0.0002,0,-2.2635,-143.5000,-0.0043,-2.2635,-143.5000,-0.0043
-12.8016,-8.9446,1.2405,0.2057,0.1371,-1.2000,-0.1800,0.6400,0.2610,0.0275,0.0206,0.0073,1261,1480,1497,1502,1000,1000,1505,1000,1000,1505,1205,1332,1139,0.2233,0.7261,0.2316,0.0224,-0.0320,1.0115,0.2753,0.2056,0.2614,0.3018,0.2204,0.0082,0.0438,0.2204,0.0082,0.0438,0.3000,0.0600,0.0002,0,-2.2635,-143.5000,-0.0043,-2.2635,-143.5000,-0.0043
-12.7700,-8.9149,1.2366,0.1371,0.1371,-1.2000,-0.1800,0.6400,0.2560,0.0275,0.0204,0.0088,1256,1480,1497,1502,1000,1000,1505,1000,1000,1505,1205,1332,1139,0.1006,1.0060,-0.1539,-0.0431,0.0429,0.9817,0.2719,0.1993,0.2577,0.2951,0.2204,0.0082,0.0438,0.2204,0.0082,0.0438,0.3000,0.0600,0.0002,0,-2.2635,-143.5000,-0.0043,-2.2635,-143.5000,-0.0043
-12.7372,-8.8846,1.2301,0.1371,-0.0686,-1.2000,-0.1800,0.6400,0.2560,0.0278,0.0207,0.0085,1256,1481,1497,1504,1000,1000,1505,1000,1000,1505,1205,1332,1139,-0.6848,0.2065,-0.1073,0.0153,-0.0148,1.0053,0.2716,0.1990,0.2574,0.2959,0.2204,0.0082,0.0438,0.2204,0.0082,0.0438,0.3000,0.0600,0.0002,0,-2.2635,-143.5000,-0.0043,-2.2635,-143.5000,-0.0043
-12.7014,-8.8545,1.2200,0.0686,0.2057,-1.2000,-0.1800,0.6400,0.2310,0.0278,0.0210,0.0081,1231,1480,1497,1502,1000,1000,1505,1000,1000,1505,1205,1332,1139,-0.8970,-0.6142,-0.2187,0.0302,-0.0774,0.9899,0.2459,0.1742,0.2322,0.2717,0.2204,0.0082,0.0438,0.2204,0.0082,0.0438,0.3000,0.0600,0.0002,0,-2.2635,-143.5000,-0.0043,-2.2635,-143.5000,-0.0043
-12.6657,-8.8304,1.2078,0.1371,0.2743,-1.2000,-0.1800,0.6400,0.2240,0.0274,0.0210,0.0104,1224,1480,1497,1502,1000,1000,1505,1000,1000,1505,1205,1332,1139,-0.2940,-0.6825,-0.7695,-0.0270,0.0565,0.9724,0.2409,0.1652,0.2279,0.2620,0.2204,0.0082,0.0438,0.2204,0.0082,0.0438,0.3000,0.0600,0.0002,0,-2.2635,-143.5000,-0.0043,-2.2635,-143.5000,-0.0043
-12.6302,-8.8119,1.1934,0.1371,0.1371,-1.2000,-0.1800,0.6400,0.2110,0.0274,0.0205,0.0108,1211,1480,1497,1502,1000,1000,1505,1000,1000,1505,1205,1332,1139,-0.3498,0.3336,-0.9220,0.0042,0.0132,1.0241,0.2287,0.1523,0.2149,0.2480,0.2204,0.0082,0.0438,0.2204,0.0082,0.0438,0.3000,0.0600,0.0002,0,-2.2635,-143.5000,-0.0043,-2.2635,-143.5000,-0.0043
-12.5948,-8.7963,1.1782,0.0686,0.2057,-1.2000,-0.1800,0.6400,0.2060,0.0271,0.0209,0.0122,1206,1480,1497,1502,1000,1000,1505,1000,1000,1505,1205,1332,1139,0.1052,-0.6539,-1.3750,0.0493,0.0149,0.9941,0.2244,0.1458,0.2119,0.2418,0.2204,0.0082,0.0438,0.2204,0.0082,0.0438,0.3000,0.0600,0.0002,0,-2.2635,-143.5000,-0.0043,-2.2635,-143.5000,-0.0043
-12.5596,-8.7780,1.1524,0.0686,0.0686,-1.2000,-0.1800,0.6400,0.1890,0.0271,0.0210,0.0200,1189,1480,1497,1502,1000,1000,1505,1000,1000,1505,1205,1332,1139,0.0234,-0.9751,-3.6341,-0.0392,-0.0518,0.9953,0.2150,0.1210,0.2029,0.2171,0.2204,0.0082,0.0438,0.2204,0.0082,0.0438,0.3000,0.0600,0.0002,0,-2.2635,-143.5000,-0.0043,-2.2635,-143.5000,-0.0043
-12.5147,-8.7735,1.0946,0.0686,0.0686,-1.2000,-0.1800,0.6400,0.1840,0.0278,0.0208,0.0260,1152,1481,1497,1504,1000,1000,1505,1000,1000,1505,1205,1332,1139,-1.8303,-0.4464,-5.9135,-0.0154,-0.0053,0.9913,0.2170,0.1095,0.2030,0.2066,0.2204,0.0082,0.0438,0.2204,0.0082,0.0438,0.3000,0.0600,0.0002,0,-2.2635,-143.5000,-0.0043,-2.2635,-143.5000,-0.0043
-12.4819,-8.7728,1.0220,0.0686,0.1371,-1.2000,-0.1800,0.6400,0.1410,0.0275,0.0214,0.0273,1141,1480,1497,1502,1000,1000,1505,1000,1000,1505,1205,1332,1139,-1.3860,-1.8702,-6.7251,0.0543,0.0358,1.0125,0.1744,0.0648,0.1621,0.1626,0.2204,0.0082,0.0438,0.2204,0.0082,0.0438,0.3000,0.0600,0.0002,0,-2.2635,-143.5000,-0.0043,-2.2635,-143.5000,-0.0043
-12.4618,-8.7668,0.9624,0.0686,-0.0686,-1.2000,-0.1800,0.6400,0.1300,0.0274,0.0211,0.0222,1130,1480,1497,1502,1000,1000,1505,1000,1000,1505,1205,1332,1139,-1.2802,-1.1814,-4.6700,-0.0057,-0.0188,0.9948,0.1586,0.0593,0.1459,0.1563,0.2204,0.0082,0.0438,0.2204,0.0082,0.0438,0.3000,0.0600,0.0002,0,-2.2635,-143.5000,-0.0043,-2.2635,-143.5000,-0.0043
-12.4273,-8.7649,0.9238,0.1371,-0.0686,-1.2000,-0.1800,0.6400,0.1260,0.0273,0.0206,0.0140,1126,1480,1497,1502,1000,1000,1505,1000,1000,1505,1205,1332,1139,-1.2164,0.0306,-1.9886,-0.0412,-0.0540,0.9813,0.1467,0.0642,0.1332,0.1599,0.2204,0.0082,0.0438,0.2204,0.0082,0.0438,0.3000,0.0600,0.0002,0,-2.2635,-143.5000,-0.0043,-2.2635,-143.5000,-0.0043
-12.4005,-8.7437,0.9085,0.0686,0.2057,-1.2000,-0.1800,0.6400,0.1100,0.0265,0.0214,0.0093,1110,1480,1497,1502,1000,1000,1505,1000,1000,1505,1205,1332,1139,0.4754,-1.8768,-0.4413,-0.0080,0.0309,1.0225,0.1244,0.0529,0.1141,0.1486,0.2204,0.0082,0.0438,0.2204,0.0082,0.0438,0.3000,0.0600,0.0002,0,-2.2635,-143.5000,-0.0043,-2.2635,-143.5000,-0.0043
-12.3747,-8.7190,0.9065,0.0686,0.2057,-1.2000,-0.1800,0.6400,0.1050,0.0283,0.0202,0.0061,1105,1480,1497,1502,1000,1000,1505,1000,1000,1505,1205,1332,1139,-3.6593,0.6975,0.6966,-0.0079,-0.0163,0.9985,0.1192,0.0505,0.1030,0.1474,0.2204,0.0082,0.0438,0.2204,0.0082,0.0438,0.3000,0.0600,0.0002,0,-2.2635,-143.5000,-0.0043,-2.2635,-143.5000,-0.0043
-12.3523,-8.6978,0.9161,0.1371,-0.0000,-1.2000,-0.1800,0.6400,0.0910,0.0263,0.0209,0.0043,1089,1481,1497,1504,1000,1000,1505,1000,1000,1505,1205,1332,1139,0.6519,-1.0515,1.3073,-0.0382,0.0300,1.0062,0.1008,0.0394,0.0899,0.1339,0.2204,0.0082,0.0438,0.2204,0.0082,0.0438,0.3000,0.0600,0.0002,0,-2.2635,-143.5000,-0.0043,-2.2635,-143.5000,-0.0043
-12.3468,-8.6640,0.9238,0.0686,0.2057,-1.2000,-0.1800,0.6400,0.0710,0.0282,0.0202,0.0020,1071,1480,1497,1502,1000,1000,1505,1000,1000,1505,1205,1332,1139,-3.6712,0.5123,1.7214,-0.0100,-0.0785,0.9785,0.0810,0.0207,0.0649,0.1174,0.2204,0.0082,0.0438,0.2204,0.0082,0.0438,0.3000,0.0600,0.0002,0,-2.2635,-143.5000,-0.0043,-2.2635,-143.5000,-0.0043
-12.3173,-8.6288,0.9288,0.0686,-0.0000,-1.2000,-0.1800,0.6400,0.0660,0.0264,0.0200,0.0074,1066,1480,1497,1502,1000,1000,1505,1000,1000,1505,1205,1332,1139,0.3373,0.6719,0.4892,0.0187,0.0459,1.0379,0.0798,0.0122,0.0670,0.1050,0.2204,0.0082,0.0438,0.2204,0.0082,0.0438,0.3000,0.0600,0.0002,0,-2.2635,-143.5000,-0.0043,-2.2635,-143.5000,-0.0043
-12.2997,-8.6023,0.9300,0.0686,-0.0000,-1.2000,-0.1800,0.6400,0.0640,0.0272,0.0207,0.0053,1064,1480,1497,1502,1000,1000,1505,1000,1000,1505,1205,1332,1139,-1.6457,-1.1024,0.9863,0.0001,-0.0828,0.9826,0.0758,0.0108,0.0628,0.1067,0.2204,0.0082,0.0438,0.2204,0.0082,0.0438,0.3000,0.0600,0.0002,0,-2.2635,-143.5000,-0.0043,-2.2635,-143.5000,-0.0043
-12.2476,-8.5855,0.9439,0.1371,-0.0686,-1.2000,-0.1800,0.6400,0.0640,0.0258,0.0207,0.0023,1064,1480,1497,1502,1000,1000,1505,1000,1000,1505,1205,1332,1139,1.4554,-1.1694,2.1002,-0.0097,0.0346,0.9950,0.0713,0.0152,0.0613,0.1082,0.2204,0.0082,0.0438,0.2204,0.0082,0.0438,0.3000,0.0600,0.0002,0,-2.2635,-143.5000,-0.0043,-2.2635,-143.5000,-0.0043
-12.2254,-8.5831,0.9651,0.1371,-0.0000,-1.2000,-0.1800,0.6400,0.0490,0.0268,0.0199,0.0024,1049,1480,1497,1502,1000,1000,1505,1000,1000,1505,1205,1332,1139,-1.0198,-3.0606,2.0526,0.0055,-0.0134,1.0092,0.0584,-0.0001,0.0445,0.0932,0.2204,0.0082,0.0438,0.2204,0.0082,0.0438,0.3000,0.0600,0.0002,0,-2.2635,-143.5000,-0.0043,-2.2635,-143.5000,-0.0043
-12.1873,-8.5762,0.9957,0.1371,0.0686,-1.2000,-0.1800,0.6400,0.0440,0.0265,0.0194,-0.0023,1030,1481,1497,1504,1000,1000,1505,1000,1000,1505,1205,1332,1139,-0.4413,-1.9852,3.5031,0.0586,-0.0321,1.0179,0.0488,0.0005,0.0346,0.0921,0.2204,0.0082,0.0438,0.2204,0.0082,0.0438,0.3000,0.0600,0.0002,0,-2.2635,-143.5000,-0.0043,-2.2635,-143.5000,-0.0043
-12.1772,-8.5610,1.0368,0.1371,0.2743,-1.2000,-0.1800,0.6400,0.0260,0.0270,0.0189,-0.0041,1026,1480,1497,1502,1000,1000,1505,1000,1000,1505,1205,1332,1139,-1.6821,-1.0026,3.8990,-0.0371,-0.0060,0.9919,0.0300,-0.0158,0.0139,0.0760,0.2204,0.0082,0.0438,0.2204,0.0082,0.0438,0.3000,0.0600,0.0002,0,-2.2635,-143.5000,-0.0043,-2.2635,-143.5000,-0.0043
-12.1488,-8.5342,1.0762,0.2057,0.0686,-1.2000,-0.1800,0.6400,0.0060,0.0264,0.0188,-0.0051,1006,1480,1497,1502,1000,1000,1505,1000,1000,1505,1205,1332,1139,-0.4311,-0.9947,4.4044,-0.0387,-0.0358,1.0031,0.0084,-0.0341,-0.0067,0.0564,0.2204,0.0082,0.0438,0.2204,0.0082,0.0438,0.3000,0.0600,0.0002,0,-2.2635,-143.5000,-0.0043,-2.2635,-143.5000,-0.0043
-12.1361,-8.4948,1.1217,0.1371,0.1371,-1.2000,-0.1800,0.6400,0.0010,0.0265,0.0182,-0.0054,1001,1480,1497,1502,1000,1000,1505,1000,1000,1505,1205,1332,1139,-0.7991,0.1864,4.5788,-0.0020,-0.0076,0.9976,0.0039,-0.0384,-0.0126,0.0511,0.2204,0.0082,0.0438,0.2204,0.0082,0.0438,0.3000,0.0600,0.0002,0,-2.2635,-143.5000,-0.0043,-2.2635,-143.5000,-0.0043
-12.1050,-8.4526,1.1604,0.1371,-0.0000,-1.2000,-0.1800,0.6400,0.0000,0.0261,0.0180,-0.0046,1000,1480,1497,1502,1000,1000,1505,1000,1000,1505,1205,1332,1139,-0.0931,0.4765,4.2620,-0.0347,0.0103,1.0123,0.0035,-0.0396,-0.0127,0.0487,0.2204,0.0082,0.0438,0.2204,0.0082,0.0438,0.3000,0.0600,0.0002,0,-2.2635,-143.5000,-0.0043,-2.2635,-143.5000,-0.0043
-12.0758,-8.4146,1.2000,0.1371,0.0686,-1.2000,-0.1800,0.6400,0.0000,0.0259,0.0180,-0.0046,1000,1480,1497,1502,1000,1000,1505,1000,1000,1505,1205,1332,1139,0.3497,0.2449,4.3220,-0.0100,-0.0115,0.9890,0.0032,-0.0393,-0.0124,0.0485,0.2204,0.0082,0.0438,0.2204,0.0082,0.0438,0.3000,0.0600,0.0002,0,-2.2635,-143.5000,-0.0043,-2.2635,-143.5000,-0.0043
-12.0415,-8.3813,1.2312,0.1371,0.0686,-1.2000,-0.1800,0.6400,0.0000,0.0261,0.0181,-0.0004,1000,1481,1497,1504,1000,1000,1505,1000,1000,1505,1205,1332,1139,-0.3158,-0.0330,2.9652,0.0306,-0.0015,1.0182,0.0076,-0.0438,-0.0084,0.0446,0.2204,0.0082,0.0438,0.2204,0.0082,0.0438,0.3000,0.0600,0.0002,0,-2.2635,-143.5000,-0.0043,-2.2635,-143.5000,-0.0043
-12.0075,-8.3542,1.2545,0.1371,-0.1371,-1.2000,-0.1800,0.6400,0.0000,0.0258,0.0183,-0.0011,1000,1480,1497,1502,1000,1000,1505,1000,1000,1505,1205,1332,1139,0.2673,-0.5953,2.7384,0.0131,-0.0359,1.0122,0.0064,-0.0429,-0.0086,0.0451,0.2204,0.0082,0.0438,0.2204,0.0082,0.0438,0.3000,0.0600,0.0002,0,-2.2635,-143.5000,-0.0043,-2.2635,-143.5000,-0.0043
-11.9732,-8.3287,1.2724,0.1371,0.0686,-1.2000,-0.1800,0.6400,0.0000,0.0260,0.0182,0.0039,1000,1480,1497,1502,1000,1000,1505,1000,1000,1505,1205,1332,1139,-0.4291,-0.5608,1.5353,0.0129,0.0176,1.0008,0.0116,-0.0481,-0.0039,0.0403,0.2204,0.0082,0.0438,0.2204,0.0082,0.0438,0.3000,0.0600,0.0002,0,-2.2635,-143.5000,-0.0043,-2.2635,-143.5000,-0.0043
-11.9354,-8.3062,1.2751,-0.0000,-0.1371,-1.2000,-0.1800,0.6400,0.0000,0.0255,0.0183,0.0072,1000,1480,1497,1502,1000,1000,1505,1000,1000,1505,1205,1332,1139,0.4767,-0.9437,0.3119,-0.0020,-0.0313,1.0142,0.0144,-0.0511,0.0001,0.0366,0.2204,0.0082,0.0438,0.2204,0.0082,0.0438,0.3000,0.0600,0.0002,0,-2.2635,-143.5000,-0.0043,-2.2635,-143.5000,-0.0043
-11.8979,-8.2875,1.2711,0.0686,0.0686,-1.2000,-0.1800,0.6400,0.0000,0.0257,0.0182,0.0101,1000,1480,1497,1502,1000,1000,1505,1000,1000,1505,1205,1332,1139,-0.1554,-0.6852,-0.5783,0.0027,-0.0063,0.9882,0.0177,-0.0540,0.0026,0.0337,0.2204,0.0082,0.0438,0.2204,0.0082,0.0438,0.3000,0.0600,0.0002,0,-2.2635,-143.5000,-0.0043,-2.2635,-143.5000,-0.0043
-11.8566,-8.2654,1.2532,0.1371,-0.0000,-1.2000,-0.1800,0.6400,0.0000,0.0254,0.0179,0.0135,1000,1480,1497,1502,1000,1000,1505,1000,1000,1505,1205,1332,1139,0.3359,-0.1572,-1.7427,-0.0039,-0.0096,1.0094,0.0210,-0.0568,0.0060,0.0298,0.2204,0.0082,0.0438,0.2204,0.0082,0.0438,0.3000,0.0600,0.0002,0,-2.2635,-143.5000,-0.0043,-2.2635,-143.5000,-0.0043
-11.8165,-8.2419,1.2262,0.1371,-0.0000,-1.2000,-0.1800,0.6400,0.0000,0.0255,0.0176,0.0151,1000,1481,1497,1504,1000,1000,1505,1000,1000,1505,1205,1332,1139,-0.0941,0.3104,-2.2839,-0.0087,0.0022,0.9966,0.0230,-0.0582,0.0073,0.0280,0.2204,0.0082,0.0438,0.2204,0.0082,0.0438,0.3000,0.0600,0.0002,0,-2.2635,-143.5000,-0.0043,-2.2635,-143.5000,-0.0043
-11.7733,-8.2144,1.1929,0.1371,-0.0686,-1.2000,-0.1800,0.6400,0.0000,0.0253,0.0174,0.0167,1000,1480,1497,1502,1000,1000,1505,1000,1000,1505,1205,1332,1139,0.1404,0.6287,-3.0745,-0.0172,-0.0027,1.0038,0.0245,-0.0594,0.0088,0.0261,0.2204,0.0082,0.0438,0.2204,0.0082,0.0438,0.3000,0.0600,0.0002,0,-2.2635,-143.5000,-0.0043,-2.2635,-143.5000,-0.0043
-11.7300,-8.1867,1.1531,0.1371,-0.0000,-1.2000,-0.1800,0.6400,0.0000,0.0252,0.0173,0.0177,1000,1480,1497,1502,1000,1000,1505,1000,1000,1505,1205,1332,1139,0.2104,0.8274,-3.1560,-0.0007,-0.0215,0.9960,0.0256,-0.0602,0.0098,0.0247,0.2204,0.0082,0.0438,0.2204,0.0082,0.0438,0.3000,0.0600,0.0002,0,-2.2635,-143.5000,-0.0043,-2.2635,-143.5000,-0.0043
-11.6835,-8.1599,1.1121,0.0686,-0.0000,-1.2000,-0.1800,0.6400,0.0000,0.0251,0.0172,0.0180,1000,1480,1497,1502,1000,1000,1505,1000,1000,1505,1205,1332,1139,0.1083,0.7925,-3.2556,0.0164,-0.0082,1.0079,0.0258,-0.0603,0.0101,0.0244,0.2204,0.0082,0.0438,0.2204,0.0082,0.0438,0.3000,0.0600,0.0002,0,-2.2635,-143.5000,-0.0043,-2.2635,-143.5000,-0.0043
-11.6386,-8.1350,1.0731,0.1371,0.2743,-1.2000,-0.1800,0.6400,0.0000,0.0249,0.0175,0.0171,1000,1480,1497,1502,1000,1000,1505,1000,1000,1505,1205,1332,1139,0.3137,0.0527,-2.9731,0.0048,-0.0115,0.9951,0.0245,-0.0595,0.0097,0.0253,0.2204,0.0082,0.0438,0.2204,0.0082,0.0438,0.3000,0.0600,0.0002,0,-2.2635,-143.5000,-0.0043,-2.2635,-143.5000,-0.0043
-11.5934,-8.1148,1.0391,0.1371,0.0686,-1.2000,-0.1800,0.6400,0.0000,0.0249,0.0175,0.0161,1000,1480,1497,1502,1000,1000,1505,1000,1000,1505,1205,1332,1139,0.0223,-0.0726,-2.6169,0.0013,-0.0113,0.9964,0.0236,-0.0586,0.0087,0.0263,0.2204,0.0082,0.0438,0.2204,0.0082,0.0438,0.3000,0.0600,0.0002,0,-2.2635,-143.5000,-0.0043,-2.2635,-143.5000,-0.0043
-11.5509,-8.0955,1.0098,0.0686,-0.0686,-1.2000,-0.1800,0.6400,0.0000,0.0248,0.0177,0.0140,1000,1481,1497,1504,1000,1000,1505,1000,1000,1505,1205,1332,1139,0.1912,-0.4857,-1.9324,-0.0018,-0.0141,1.0003,0.0211,-0.0564,0.0069,0.0285,0.2204,0.0082,0.0438,0.2204,0.0082,0.0438,0.3000,0.0600,0.0002,0,-2.2635,-143.5000,-0.0043,-2.2635,-143.5000,-0.0043
-11.5117,-8.0751,0.9893,0.1371,-0.0686,-1.2000,-0.1800,0.6400,0.0000,0.0249,0.0176,0.0110,1000,1480,1497,1502,1000,1000,1505,1000,1000,1505,1205,1332,1139,-0.2976,-0.3410,-1.2276,0.0025,-0.0089,1.0018,0.0184,-0.0535,0.0037,0.0314,0.2204,0.0082,0.0438,0.2204,0.0082,0.0438,0.3000,0.0600,0.0002,0,-2.2635,-143.5000,-0.0043,-2.2635,-143.5000,-0.0043
