roll_imu,pitch_imu,yaw_imu,alpha,beta,roll_des,pitch_des,yaw_des,throttle_des,roll_pid,pitch_pid,yaw_pid,radio_ch1,radio_ch2,radio_ch3,radio_ch4,radio_ch5,radio_ch6,radio_ch7,radio_ch8,radio_ch9,radio_ch10,radio_ch11,radio_ch12,radio_ch13,GyroX,GyroY,GyroZ,AccX,AccY,AccZ,s1_command,s2_command,s3_command,s4_command,kp_roll,ki_roll,kd_roll,kp_pitch,ki_pitch,kd_pitch,kp_yaw,ki_yaw,kd_yaw,failsafeTriggered,kp_alphaRoll,ki_alphaRoll,kd_alphaRoll,kp_betaPitch,ki_betaPitch,kd_betaPitch
0.0000,0.0000,0.0000,8.7429,-2.2286,0.0000,0.0000,0.0000,0.0000,0.0000,0.0000,0.0000,998,1499,1501,1504,1000,1000,1505,1000,1000,1007,1005,1000,1011,0.0000,0.0000,0.0000,0.0000,0.0000,0.0000,0.0000,0.0000,0.0000,0.0000,0.2204,0.0082,0.0438,0.2204,0.0082,0.0438,0.3000,0.0600,0.0002,0,-0.3000,-100.0000,-0.0010,-0.3000,-100.0000,-0.0010
8.5832,70.6147,6.0801,-0.1371,-0.1371,-0.1800,0.0000,0.6400,0.0000,-0.0214,-0.1556,0.0145,996,1497,1500,1502,1000,1000,1505,1000,1000,1006,1005,1000,1011,0.0549,-0.0743,0.0426,-0.0092,0.0028,0.9588,0.1487,0.1625,-0.1197,-0.1915,0.2204,0.0082,0.0438,0.2204,0.0082,0.0438,0.3000,0.0600,0.0002,0,-0.3000,-100.0000,-0.0010,-0.3000,-100.0000,-0.0010
8.5718,70.5872,6.0692,-0.0686,-0.0686,-0.1800,0.0000,0.6400,0.0000,-0.0214,-0.1556,0.0155,996,1497,1500,1502,1000,1000,1505,1000,1000,1006,1005,1000,1011,0.0533,-0.0519,0.0323,-0.0079,0.0005,0.9993,0.1497,0.1614,-0.1187,-0.1924,0.2204,0.0082,0.0438,0.2204,0.0082,0.0438,0.3000,0.0600,0.0002,0,-0.3000,-100.0000,-0.0010,-0.3000,-100.0000,-0.0010
8.5601,70.5599,6.0575,-0.0686,0.1371,-0.1800,0.0000,0.6400,0.0000,-0.0214,-0.1555,0.0155,996,1497,1500,1502,1000,1000,1505,1000,1000,1006,1005,1000,1011,0.0946,0.0131,0.0543,-0.0076,0.0059,1.0015,0.1497,0.1614,-0.1187,-0.1924,0.2204,0.0082,0.0438,0.2204,0.0082,0.0438,0.3000,0.0600,0.0002,0,-0.3000,-100.0000,-0.0010,-0.3000,-100.0000,-0.0010
8.5494,70.5325,6.0468,0.0000,-0.0000,-0.1800,0.0000,0.6400,0.0000,-0.0213,-0.1554,0.0155,996,1497,1500,1502,1000,1000,1505,1000,1000,1006,1005,1000,1011,0.0789,-0.0180,0.0565,-0.0063,0.0053,1.0007,0.1496,0.1613,-0.1187,-0.1922,0.2204,0.0082,0.0438,0.2204,0.0082,0.0438,0.3000,0.0600,0.0002,0,-0.3000,-100.0000,-0.0010,-0.3000,-100.0000,-0.0010
8.5368,70.5039,6.0343,0.0686,-0.0000,-0.1800,0.0000,0.6400,0.0000,-0.0213,-0.1553,0.0157,996,1497,1500,1502,1000,1000,1505,1000,1000,1007,1005,1000,1011,0.0522,-0.1602,-0.0044,-0.0112,0.0060,1.0016,0.1497,0.1609,-0.1183,-0.1923,0.2204,0.0082,0.0438,0.2204,0.0082,0.0438,0.3000,0.0600,0.0002,0,-0.3000,-100.0000,-0.0010,-0.3000,-100.0000,-0.0010
8.5251,70.4762,6.0227,0.0000,-0.0686,-0.1800,0.0000,0.6400,0.0000,-0.0213,-0.1553,0.0157,996,1497,1500,1502,1000,1000,1505,1000,1000,1007,1005,1000,1011,0.0729,0.0097,-0.0181,-0.0070,0.0040,1.0052,0.1498,0.1609,-0.1183,-0.1923,0.2204,0.0082,0.0438,0.2204,0.0082,0.0438,0.3000,0.0600,0.0002,0,-0.3000,-100.0000,-0.0010,-0.3000,-100.0000,-0.0010
8.5131,70.4489,6.0110,0.0000,0.0686,-0.1200,0.0000,0.9600,0.0000,-0.0211,-0.1553,0.0158,996,1497,1500,1502,1000,1000,1505,1000,1000,1006,1005,1000,1011,-0.0378,-0.0189,-0.0151,-0.0056,0.0020,1.0022,0.1500,0.1606,-0.1184,-0.1921,0.2204,0.0082,0.0438,0.2204,0.0082,0.0438,0.3000,0.0600,0.0002,0,-0.3000,-100.0000,-0.0010,-0.3000,-100.0000,-0.0010
8.5002,70.4212,5.9990,0.0686,-0.0000,-0.1800,0.0000,0.6400,0.0000,-0.0212,-0.1552,0.0157,996,1497,1500,1502,1000,1000,1505,1000,1000,1006,1005,1000,1011,-0.0028,-0.0055,-0.0037,-0.0059,0.0031,1.0026,0.1497,0.1607,-0.1183,-0.1921,0.2204,0.0082,0.0438,0.2204,0.0082,0.0438,0.3000,0.0600,0.0002,0,-0.3000,-100.0000,-0.0010,-0.3000,-100.0000,-0.0010
8.4882,70.3934,5.9873,0.0000,0.0686,-0.1800,0.0000,0.6400,0.0000,-0.0212,-0.1551,0.0156,996,1497,1500,1502,1000,1000,1505,1000,1000,1006,1005,1000,1011,0.0316,-0.0718,0.0109,-0.0065,0.0039,1.0091,0.1496,0.1607,-0.1183,-0.1919,0.2204,0.0082,0.0438,0.2204,0.0082,0.0438,0.3000,0.0600,0.0002,0,-0.3000,-100.0000,-0.0010,-0.3000,-100.0000,-0.0010
8.4760,70.3650,5.9754,-0.0686,-0.0000,-0.1800,0.0000,0.6400,0.0000,-0.0211,-0.1551,0.0157,996,1497,1500,1502,1000,1000,1505,1000,1000,1007,1005,1000,1011,0.0430,-0.0559,0.0060,-0.0093,0.0026,1.0037,0.1496,0.1605,-0.1182,-0.1919,0.2204,0.0082,0.0438,0.2204,0.0082,0.0438,0.3000,0.0600,0.0002,0,-0.3000,-100.0000,-0.0010,-0.3000,-100.0000,-0.0010
8.4651,70.3368,5.9648,0.0000,-0.0686,-0.1800,0.0000,0.6400,0.0000,-0.0211,-0.1550,0.0155,996,1497,1500,1502,1000,1000,1505,1000,1000,1007,1005,1000,1011,0.0660,-0.0621,0.0417,-0.0083,0.0042,1.0013,0.1494,0.1606,-0.1183,-0.1917,0.2204,0.0082,0.0438,0.2204,0.0082,0.0438,0.3000,0.0600,0.0002,0,-0.3000,-100.0000,-0.0010,-0.3000,-100.0000,-0.0010
8.4530,70.3088,5.9528,0.0000,-0.0000,-0.1800,0.0000,0.6400,0.0000,-0.0211,-0.1549,0.0156,996,1497,1500,1502,1000,1000,1505,1000,1000,1006,1005,1000,1011,0.0329,-0.0673,0.0171,-0.0098,0.0034,1.0024,0.1495,0.1604,-0.1182,-0.1917,0.2204,0.0082,0.0438,0.2204,0.0082,0.0438,0.3000,0.0600,0.0002,0,-0.3000,-100.0000,-0.0010,-0.3000,-100.0000,-0.0010
8.4398,70.2812,5.9402,0.0000,-0.0686,-0.1200,0.0000,0.9600,0.0000,-0.0209,-0.1549,0.0156,996,1497,1500,1502,1000,1000,1505,1000,1000,1007,1005,1000,1011,0.0035,-0.0283,0.0001,-0.0042,0.0032,1.0037,0.1496,0.1602,-0.1184,-0.1914,0.2204,0.0082,0.0438,0.2204,0.0082,0.0438,0.3000,0.0600,0.0002,0,-0.3000,-100.0000,-0.0010,-0.3000,-100.0000,-0.0010
8.4277,70.2538,5.9286,0.0000,-0.0000,-0.1800,0.0000,0.6400,0.0000,-0.0210,-0.1549,0.0157,996,1497,1500,1502,1000,1000,1505,1000,1000,1007,1005,1000,1011,0.0556,0.0248,-0.0048,-0.0072,0.0053,1.0042,0.1495,0.1602,-0.1181,-0.1916,0.2204,0.0082,0.0438,0.2204,0.0082,0.0438,0.3000,0.0600,0.0002,0,-0.3000,-100.0000,-0.0010,-0.3000,-100.0000,-0.0010
8.4164,70.2263,5.9174,0.0000,0.0686,-0.1800,0.0000,0.6400,0.0000,-0.0210,-0.1548,0.0156,996,1497,1500,1502,1000,1000,1505,1000,1000,1007,1005,1000,1011,0.0356,-0.0541,0.0322,-0.0087,0.0031,1.0021,0.1493,0.1602,-0.1182,-0.1913,0.2204,0.0082,0.0438,0.2204,0.0082,0.0438,0.3000,0.0600,0.0002,0,-0.3000,-100.0000,-0.0010,-0.3000,-100.0000,-0.0010
8.4060,70.1976,5.9072,0.0000,-0.0686,-0.1800,0.0000,0.6400,0.0000,-0.0210,-0.1547,0.0154,996,1497,1500,1502,1000,1000,1505,1000,1000,1007,1005,1000,1011,0.0401,-0.1321,0.1115,-0.0078,0.0020,1.0000,0.1490,0.1603,-0.1183,-0.1910,0.2204,0.0082,0.0438,0.2204,0.0082,0.0438,0.3000,0.0600,0.0002,0,-0.3000,-100.0000,-0.0010,-0.3000,-100.0000,-0.0010
8.3941,70.1694,5.8960,-0.0686,-0.0000,-0.1800,0.0000,0.6400,0.0000,-0.0210,-0.1546,0.0157,996,1497,1500,1502,1000,1000,1505,1000,1000,1006,1005,1000,1011,0.0370,-0.0312,-0.0002,-0.0071,0.0039,1.0029,0.1494,0.1599,-0.1179,-0.1913,0.2204,0.0082,0.0438,0.2204,0.0082,0.0438,0.3000,0.0600,0.0002,0,-0.3000,-100.0000,-0.0010,-0.3000,-100.0000,-0.0010
8.3818,70.1413,5.8841,0.0000,-0.0686,-0.1800,0.0000,0.6400,0.0000,-0.0209,-0.1546,0.0157,998,1499,1501,1504,1000,1000,1505,1000,1000,1007,1005,1000,1011,0.0159,-0.0365,-0.0018,-0.0084,0.0041,1.0024,0.1494,0.1598,-0.1179,-0.1912,0.2204,0.0082,0.0438,0.2204,0.0082,0.0438,0.3000,0.0600,0.0002,0,-0.3000,-100.0000,-0.0010,-0.3000,-100.0000,-0.0010
8.3689,70.1136,5.8710,0.0000,-0.0000,-0.1200,0.0000,0.9600,0.0000,-0.0208,-0.1545,0.0159,996,1497,1500,1502,1000,1000,1505,1000,1000,1007,1005,1000,1011,0.1027,0.0167,-0.0522,-0.0087,0.0045,1.0001,0.1496,0.1595,-0.1179,-0.1912,0.2204,0.0082,0.0438,0.2204,0.0082,0.0438,0.3000,0.0600,0.0002,0,-0.3000,-100.0000,-0.0010,-0.3000,-100.0000,-0.0010
8.3553,70.0858,5.8572,-0.1371,-0.1371,-0.1800,0.0000,0.6400,0.0000,-0.0209,-0.1544,0.0158,996,1497,1500,1502,1000,1000,1505,1000,1000,1006,1005,1000,1011,0.0468,-0.0863,-0.0341,-0.0090,0.0038,1.0013,0.1493,0.1595,-0.1178,-0.1911,0.2204,0.0082,0.0438,0.2204,0.0082,0.0438,0.3000,0.0600,0.0002,0,-0.3000,-100.0000,-0.0010,-0.3000,-100.0000,-0.0010
8.3438,70.0572,5.8465,0.0000,-0.0000,-0.1800,0.0000,0.6400,0.0000,-0.0208,-0.1544,0.0156,996,1497,1500,1502,1000,1000,1505,1000,1000,1006,1005,1000,1011,-0.0272,-0.0794,0.0694,-0.0087,0.0020,1.0020,0.1491,0.1596,-0.1180,-0.1908,0.2204,0.0082,0.0438,0.2204,0.0082,0.0438,0.3000,0.0600,0.0002,0,-0.3000,-100.0000,-0.0010,-0.3000,-100.0000,-0.0010
8.3316,70.0290,5.8346,0.0000,-0.0000,-0.1800,0.0000,0.6400,0.0000,-0.0208,-0.1543,0.0160,996,1497,1500,1502,1000,1000,1505,1000,1000,1006,1005,1000,1011,0.0670,-0.0303,-0.0736,-0.0087,0.0031,1.0058,0.1495,0.1592,-0.1175,-0.1912,0.2204,0.0082,0.0438,0.2204,0.0082,0.0438,0.3000,0.0600,0.0002,0,-0.3000,-100.0000,-0.0010,-0.3000,-100.0000,-0.0010
8.3190,70.0012,5.8221,0.0000,-0.0000,-0.1800,0.0000,0.6400,0.0000,-0.0208,-0.1543,0.0158,996,1497,1500,1502,1000,1000,1505,1000,1000,1006,1005,1000,1011,0.0432,-0.0444,-0.0288,-0.0056,0.0045,1.0028,0.1493,0.1592,-0.1176,-0.1909,0.2204,0.0082,0.0438,0.2204,0.0082,0.0438,0.3000,0.0600,0.0002,0,-0.3000,-100.0000,-0.0010,-0.3000,-100.0000,-0.0010
8.3072,69.9724,5.8110,0.0000,-0.0686,-0.1800,0.0000,0.6400,0.0000,-0.0208,-0.1542,0.0157,996,1497,1500,1502,1000,1000,1505,1000,1000,1007,1005,1000,1011,-0.0022,-0.1097,-0.0085,-0.0085,0.0040,1.0019,0.1491,0.1592,-0.1177,-0.1907,0.2204,0.0082,0.0438,0.2204,0.0082,0.0438,0.3000,0.0600,0.0002,0,-0.3000,-100.0000,-0.0010,-0.3000,-100.0000,-0.0010
8.2961,69.9452,5.8008,0.0000,-0.0686,-0.1200,0.0000,0.9600,0.0000,-0.0206,-0.1541,0.0151,996,1497,1500,1502,1000,1000,1505,1000,1000,1007,1005,1000,1011,0.0948,-0.1985,0.1970,-0.0531,0.0121,0.9929,0.1485,0.1596,-0.1183,-0.1898,0.2204,0.0082,0.0438,0.2204,0.0082,0.0438,0.3000,0.0600,0.0002,0,-0.3000,-100.0000,-0.0010,-0.3000,-100.0000,-0.0010
8.2891,69.9140,5.7938,0.0686,0.0686,-0.1800,0.0000,0.6400,0.0000,-0.0208,-0.1541,0.0154,996,1497,1500,1502,1000,1000,1505,1000,1000,1007,1005,1000,1011,0.0906,-0.0712,0.1155,0.0217,-0.0018,0.9836,0.1487,0.1594,-0.1179,-0.1903,0.2204,0.0082,0.0438,0.2204,0.0082,0.0438,0.3000,0.0600,0.0002,0,-0.3000,-100.0000,-0.0010,-0.3000,-100.0000,-0.0010
8.2765,69.8883,5.7816,0.0000,0.2743,-0.1800,0.0000,0.6400,0.0000,-0.0206,-0.1539,0.0163,996,1497,1500,1502,1000,1000,1505,1000,1000,1006,1005,1000,1011,-0.0986,-0.2825,-0.1886,0.0120,0.0056,0.9938,0.1496,0.1582,-0.1169,-0.1909,0.2204,0.0082,0.0438,0.2204,0.0082,0.0438,0.3000,0.0600,0.0002,0,-0.3000,-100.0000,-0.0010,-0.3000,-100.0000,-0.0010
8.2608,69.8592,5.7663,0.0000,0.0686,-0.1800,0.0000,0.6400,0.0000,-0.0207,-0.1542,0.0156,996,1497,1500,1502,1000,1000,1505,1000,1000,1006,1005,1000,1011,0.1195,0.5921,0.0619,-0.0442,0.0090,0.9973,0.1491,0.1594,-0.1180,-0.1905,0.2204,0.0082,0.0438,0.2204,0.0082,0.0438,0.3000,0.0600,0.0002,0,-0.3000,-100.0000,-0.0010,-0.3000,-100.0000,-0.0010
8.2502,69.8288,5.7559,-0.0686,-0.0686,-0.1800,0.0000,0.6400,0.0000,-0.0206,-0.1538,0.0154,996,1497,1500,1502,1000,1000,1505,1000,1000,1007,1005,1000,1011,-0.1003,-0.3404,0.1159,0.0014,-0.0001,0.9944,0.1486,0.1589,-0.1178,-0.1897,0.2204,0.0082,0.0438,0.2204,0.0082,0.0438,0.3000,0.0600,0.0002,0,-0.3000,-100.0000,-0.0010,-0.3000,-100.0000,-0.0010
8.2375,69.8036,5.7432,0.0000,-0.0000,-0.1800,0.0000,0.6400,0.0000,-0.0206,-0.1538,0.0165,996,1497,1500,1502,1000,1000,1505,1000,1000,1007,1005,1000,1011,0.0095,-0.2151,-0.2163,-0.0034,0.0122,1.0110,0.1496,0.1579,-0.1167,-0.1908,0.2204,0.0082,0.0438,0.2204,0.0082,0.0438,0.3000,0.0600,0.0002,0,-0.3000,-100.0000,-0.0010,-0.3000,-100.0000,-0.0010
8.2205,69.7725,5.7274,0.0000,-0.1371,-0.1800,0.0000,0.6400,0.0000,-0.0206,-0.1539,0.0146,996,1497,1500,1502,1000,1000,1505,1000,1000,1006,1005,1000,1011,0.0058,0.2720,0.0710,-0.0220,0.0055,1.0039,0.1479,0.1599,-0.1188,-0.1890,0.2204,0.0082,0.0438,0.2204,0.0082,0.0438,0.3000,0.0600,0.0002,0,-0.3000,-100.0000,-0.0010,-0.3000,-100.0000,-0.0010
8.2112,69.7452,5.7182,0.0000,-0.0000,-0.1800,0.0000,0.6400,0.0000,-0.0206,-0.1535,0.0156,996,1497,1500,1502,1000,1000,1505,1000,1000,1006,1005,1000,1011,0.0525,-0.5304,0.0479,0.0003,0.0010,1.0120,0.1486,0.1584,-0.1173,-0.1897,0.2204,0.0082,0.0438,0.2204,0.0082,0.0438,0.3000,0.0600,0.0002,0,-0.3000,-100.0000,-0.0010,-0.3000,-100.0000,-0.0010
8.1987,69.7180,5.7064,0.0000,0.0686,-0.1800,0.0000,0.6400,0.0000,-0.0206,-0.1538,0.0164,996,1497,1500,1502,1000,1000,1505,1000,1000,1006,1005,1000,1011,0.1603,0.2348,-0.1881,0.0021,0.0021,1.0024,0.1496,0.1580,-0.1168,-0.1907,0.2204,0.0082,0.0438,0.2204,0.0082,0.0438,0.3000,0.0600,0.0002,0,-0.3000,-100.0000,-0.0010,-0.3000,-100.0000,-0.0010
8.1825,69.6879,5.6900,0.0686,-0.0686,-0.1800,0.0000,0.6400,0.0000,-0.0205,-0.1535,0.0158,996,1497,1500,1502,1000,1000,1505,1000,1000,1006,1005,1000,1011,-0.0462,-0.1533,-0.0106,-0.0262,0.0061,0.9995,0.1488,0.1582,-0.1173,-0.1897,0.2204,0.0082,0.0438,0.2204,0.0082,0.0438,0.3000,0.0600,0.0002,0,-0.3000,-100.0000,-0.0010,-0.3000,-100.0000,-0.0010
8.1745,69.6604,5.6824,-0.0686,-0.1371,-0.1800,0.0000,0.6400,0.0000,-0.0205,-0.1534,0.0152,996,1497,1500,1502,1000,1000,1505,1000,1000,1006,1005,1000,1011,0.0589,-0.2458,0.1919,-0.0051,0.0017,1.0108,0.1481,0.1587,-0.1178,-0.1891,0.2204,0.0082,0.0438,0.2204,0.0082,0.0438,0.3000,0.0600,0.0002,0,-0.3000,-100.0000,-0.0010,-0.3000,-100.0000,-0.0010
8.1659,69.6317,5.6745,0.0686,-0.0000,-0.1800,0.0000,0.6400,0.0000,-0.0205,-0.1535,0.0160,998,1499,1501,1504,1000,1000,1505,1000,1000,1006,1005,1000,1011,0.0172,0.0461,-0.0469,0.0072,0.0044,1.0021,0.1490,0.1580,-0.1171,-0.1899,0.2204,0.0082,0.0438,0.2204,0.0082,0.0438,0.3000,0.0600,0.0002,0,-0.3000,-100.0000,-0.0010,-0.3000,-100.0000,-0.0010
8.1505,69.6037,5.6596,0.0000,-0.0686,-0.1200,0.0000,0.9600,0.0000,-0.0203,-0.1534,0.0159,996,1497,1500,1502,1000,1000,1505,1000,1000,1007,1005,1000,1011,-0.0016,-0.0276,-0.0616,-0.0247,0.0085,0.9949,0.1490,0.1578,-0.1172,-0.1896,0.2204,0.0082,0.0438,0.2204,0.0082,0.0438,0.3000,0.0600,0.0002,0,-0.3000,-100.0000,-0.0010,-0.3000,-100.0000,-0.0010
8.1423,69.5755,5.6525,0.0000,-0.0686,-0.1800,0.0000,0.6400,0.0000,-0.0204,-0.1534,0.0149,996,1497,1500,1502,1000,1000,1505,1000,1000,1007,1005,1000,1011,-0.0574,0.0194,0.2921,0.0035,0.0029,1.0037,0.1479,0.1588,-0.1181,-0.1886,0.2204,0.0082,0.0438,0.2204,0.0082,0.0438,0.3000,0.0600,0.0002,0,-0.3000,-100.0000,-0.0010,-0.3000,-100.0000,-0.0010
8.1374,69.5478,5.6481,0.0000,-0.0000,-0.1800,0.0000,0.6400,0.0000,-0.0204,-0.1533,0.0157,996,1497,1500,1502,1000,1000,1505,1000,1000,1006,1005,1000,1011,0.1528,-0.0544,0.0393,-0.0120,0.0024,1.0015,0.1485,0.1580,-0.1171,-0.1894,0.2204,0.0082,0.0438,0.2204,0.0082,0.0438,0.3000,0.0600,0.0002,0,-0.3000,-100.0000,-0.0010,-0.3000,-100.0000,-0.0010
8.1234,69.5183,5.6342,0.0000,-0.0000,-0.1800,0.0000,0.6400,0.0000,-0.0203,-0.1533,0.0160,996,1497,1500,1502,1000,1000,1505,1000,1000,1006,1005,1000,1011,-0.0110,0.0981,-0.0836,-0.0043,0.0050,1.0035,0.1490,0.1576,-0.1169,-0.1897,0.2204,0.0082,0.0438,0.2204,0.0082,0.0438,0.3000,0.0600,0.0002,0,-0.3000,-100.0000,-0.0010,-0.3000,-100.0000,-0.0010
8.1162,69.4899,5.6267,-0.1371,-0.1371,-0.1800,0.0000,0.6400,0.0000,-0.0204,-0.1530,0.0150,996,1497,1500,1502,1000,1000,1505,1000,1000,1006,1005,1000,1011,0.0720,-0.3584,0.2716,0.0060,0.0058,1.0021,0.1476,0.1584,-0.1177,-0.1883,0.2204,0.0082,0.0438,0.2204,0.0082,0.0438,0.3000,0.0600,0.0002,0,-0.3000,-100.0000,-0.0010,-0.3000,-100.0000,-0.0010
8.1113,69.4622,5.6230,0.0000,-0.0686,-0.1800,0.0000,0.6400,0.0000,-0.0204,-0.1532,0.0156,996,1497,1500,1502,1000,1000,1505,1000,1000,1006,1005,1000,1011,0.1625,0.1666,0.0829,-0.0246,0.0024,0.9965,0.1484,0.1579,-0.1171,-0.1892,0.2204,0.0082,0.0438,0.2204,0.0082,0.0438,0.3000,0.0600,0.0002,0,-0.3000,-100.0000,-0.0010,-0.3000,-100.0000,-0.0010
8.0965,69.4316,5.6082,0.0686,-0.0000,-0.1200,0.0000,0.9600,0.0000,-0.0201,-0.1530,0.0164,996,1497,1500,1502,1000,1000,1505,1000,1000,1007,1005,1000,1011,-0.1090,0.0249,-0.1919,-0.0120,0.0045,1.0087,0.1494,0.1567,-0.1165,-0.1896,0.2204,0.0082,0.0438,0.2204,0.0082,0.0438,0.3000,0.0600,0.0002,0,-0.3000,-100.0000,-0.0010,-0.3000,-100.0000,-0.0010
8.0814,69.4046,5.5926,0.0000,0.1371,-0.1800,0.0000,0.6400,0.0000,-0.0203,-0.1528,0.0158,996,1497,1500,1502,1000,1000,1505,1000,1000,1006,1005,1000,1011,0.1340,-0.4399,-0.0036,0.0122,0.0013,1.0034,0.1482,0.1573,-0.1167,-0.1889,0.2204,0.0082,0.0438,0.2204,0.0082,0.0438,0.3000,0.0600,0.0002,0,-0.3000,-100.0000,-0.0010,-0.3000,-100.0000,-0.0010
8.0764,69.3767,5.5890,0.0000,0.1371,-0.1800,0.0000,0.6400,0.0000,-0.0203,-0.1530,0.0151,996,1497,1500,1502,1000,1000,1505,1000,1000,1006,1005,1000,1011,0.0108,0.2727,0.2765,-0.0006,0.0050,1.0020,0.1478,0.1582,-0.1177,-0.1883,0.2204,0.0082,0.0438,0.2204,0.0082,0.0438,0.3000,0.0600,0.0002,0,-0.3000,-100.0000,-0.0010,-0.3000,-100.0000,-0.0010
8.0645,69.3462,5.5769,-0.0686,-0.0686,-0.1800,0.0000,0.6400,0.0000,-0.0202,-0.1529,0.0164,996,1497,1500,1502,1000,1000,1505,1000,1000,1007,1005,1000,1011,0.0259,0.0874,-0.1825,-0.0399,0.0065,1.0038,0.1490,0.1567,-0.1162,-0.1895,0.2204,0.0082,0.0438,0.2204,0.0082,0.0438,0.3000,0.0600,0.0002,0,-0.3000,-100.0000,-0.0010,-0.3000,-100.0000,-0.0010
8.0478,69.3201,5.5602,-0.0686,0.0686,-0.1800,0.0000,0.6400,0.0000,-0.0202,-0.1526,0.0163,996,1497,1500,1502,1000,1000,1505,1000,1000,1007,1005,1000,1011,0.0913,-0.4256,-0.1700,0.0020,0.0053,1.0091,0.1487,0.1565,-0.1161,-0.1891,0.2204,0.0082,0.0438,0.2204,0.0082,0.0438,0.3000,0.0600,0.0002,0,-0.3000,-100.0000,-0.0010,-0.3000,-100.0000,-0.0010
8.0376,69.2920,5.5505,-0.0686,-0.0000,-0.1800,0.0000,0.6400,0.0000,-0.0201,-0.1529,0.0151,996,1497,1500,1502,1000,1000,1505,1000,1000,1007,1005,1000,1011,-0.0386,0.4039,0.2194,0.0047,0.0025,0.9991,0.1479,0.1579,-0.1176,-0.1882,0.2204,0.0082,0.0438,0.2204,0.0082,0.0438,0.3000,0.0600,0.0002,0,-0.3000,-100.0000,-0.0010,-0.3000,-100.0000,-0.0010
8.0308,69.2629,5.5443,0.0000,-0.0000,-0.1800,0.0000,0.6400,0.0000,-0.0202,-0.1525,0.0149,996,1497,1500,1502,1000,1000,1505,1000,1000,1007,1005,1000,1011,0.0931,-0.2541,0.0351,0.0007,0.0039,0.9980,0.1472,0.1579,-0.1175,-0.1876,0.2204,0.0082,0.0438,0.2204,0.0082,0.0438,0.3000,0.0600,0.0002,0,-0.3000,-100.0000,-0.0010,-0.3000,-100.0000,-0.0010
8.0160,69.2365,5.5294,0.0000,-0.0686,-0.1800,0.0000,0.6400,0.0000,-0.0201,-0.1526,0.0164,996,1497,1500,1502,1000,1000,1505,1000,1000,1007,1005,1000,1011,0.0664,-0.1031,-0.1940,-0.0019,0.0057,1.0062,0.1488,0.1563,-0.1160,-0.1891,0.2204,0.0082,0.0438,0.2204,0.0082,0.0438,0.3000,0.0600,0.0002,0,-0.3000,-100.0000,-0.0010,-0.3000,-100.0000,-0.0010
8.0030,69.2074,5.5166,0.0000,-0.0000,-0.1800,0.0000,0.6400,0.0000,-0.0201,-0.1526,0.0157,996,1497,1500,1502,1000,1000,1505,1000,1000,1007,1005,1000,1011,0.0155,0.1944,0.0472,-0.0207,0.0082,0.9953,0.1482,0.1570,-0.1168,-0.1884,0.2204,0.0082,0.0438,0.2204,0.0082,0.0438,0.3000,0.0600,0.0002,0,-0.3000,-100.0000,-0.0010,-0.3000,-100.0000,-0.0010
7.9941,69.1793,5.5085,0.0000,0.0686,-0.1800,0.0000,0.6400,0.0000,-0.0201,-0.1524,0.0157,996,1497,1500,1502,1000,1000,1505,1000,1000,1007,1005,1000,1011,0.0352,-0.2097,0.0648,-0.0273,0.0070,1.0087,0.1480,0.1568,-0.1166,-0.1881,0.2204,0.0082,0.0438,0.2204,0.0082,0.0438,0.3000,0.0600,0.0002,0,-0.3000,-100.0000,-0.0010,-0.3000,-100.0000,-0.0010
7.9809,69.1519,5.4954,0.0000,0.0686,-0.1800,0.0000,0.6400,0.0000,-0.0201,-0.1524,0.0165,996,1497,1500,1502,1000,1000,1505,1000,1000,1007,1005,1000,1011,0.0828,0.0491,-0.2080,-0.0087,-0.0042,1.0071,0.1488,0.1560,-0.1159,-0.1890,0.2204,0.0082,0.0438,0.2204,0.0082,0.0438,0.3000,0.0600,0.0002,0,-0.3000,-100.0000,-0.0010,-0.3000,-100.0000,-0.0010
7.9675,69.1235,5.4818,0.0000,0.0686,-0.1800,0.0000,0.6400,0.0000,-0.0200,-0.1524,0.0158,998,1499,1501,1504,1000,1000,1505,1000,1000,1006,1005,1000,1011,0.0665,0.0884,0.0165,-0.0068,-0.0022,0.9977,0.1482,0.1566,-0.1165,-0.1882,0.2204,0.0082,0.0438,0.2204,0.0082,0.0438,0.3000,0.0600,0.0002,0,-0.3000,-100.0000,-0.0010,-0.3000,-100.0000,-0.0010
7.9596,69.0954,5.4741,0.0000,0.0686,-0.1800,0.0000,0.6400,0.0000,-0.0200,-0.1523,0.0144,996,1497,1500,1502,1000,1000,1505,1000,1000,1006,1005,1000,1011,-0.0322,-0.0185,0.1611,-0.0058,0.0046,1.0075,0.1467,0.1578,-0.1179,-0.1867,0.2204,0.0082,0.0438,0.2204,0.0082,0.0438,0.3000,0.0600,0.0002,0,-0.3000,-100.0000,-0.0010,-0.3000,-100.0000,-0.0010
7.9504,69.0665,5.4652,0.0000,0.1371,-0.1800,0.0000,0.6400,0.0000,-0.0200,-0.1522,0.0160,996,1497,1500,1502,1000,1000,1505,1000,1000,1006,1005,1000,1011,0.1077,-0.0872,-0.0467,0.0026,0.0018,1.0113,0.1482,0.1562,-0.1162,-0.1882,0.2204,0.0082,0.0438,0.2204,0.0082,0.0438,0.3000,0.0600,0.0002,0,-0.3000,-100.0000,-0.0010,-0.3000,-100.0000,-0.0010
7.9385,69.0381,5.4535,0.0000,-0.0686,-0.1800,0.0000,0.6400,0.0000,-0.0200,-0.1521,0.0160,996,1497,1500,1502,1000,1000,1505,1000,1000,1006,1005,1000,1011,0.0164,-0.0934,-0.0473,-0.0048,0.0058,1.0086,0.1482,0.1561,-0.1162,-0.1881,0.2204,0.0082,0.0438,0.2204,0.0082,0.0438,0.3000,0.0600,0.0002,0,-0.3000,-100.0000,-0.0010,-0.3000,-100.0000,-0.0010
7.9291,69.0087,5.4448,0.0000,-0.0000,-0.1800,0.0000,0.6400,0.0000,-0.0199,-0.1520,0.0155,996,1497,1500,1502,1000,1000,1505,1000,1000,1006,1005,1000,1011,0.0137,-0.1324,0.1220,-0.0066,0.0024,1.0065,0.1476,0.1565,-0.1166,-0.1875,0.2204,0.0082,0.0438,0.2204,0.0082,0.0438,0.3000,0.0600,0.0002,0,-0.3000,-100.0000,-0.0010,-0.3000,-100.0000,-0.0010
7.9196,68.9792,5.4362,0.0000,0.0686,-0.1800,0.0000,0.6400,0.0000,-0.0199,-0.1519,0.0161,996,1497,1500,1502,1000,1000,1505,1000,1000,1006,1005,1000,1011,0.0080,-0.1982,-0.0703,-0.0018,0.0005,1.0108,0.1481,0.1557,-0.1159,-0.1880,0.2204,0.0082,0.0438,0.2204,0.0082,0.0438,0.3000,0.0600,0.0002,0,-0.3000,-100.0000,-0.0010,-0.3000,-100.0000,-0.0010
7.9089,68.9502,5.4258,-0.1371,-0.2057,-0.1800,0.0000,0.6400,0.0000,-0.0199,-0.1519,0.0160,998,1499,1501,1504,1000,1000,1505,1000,1000,1006,1005,1000,1011,0.1002,-0.1109,-0.0398,-0.0100,-0.0001,1.0027,0.1480,0.1559,-0.1160,-0.1878,0.2204,0.0082,0.0438,0.2204,0.0082,0.0438,0.3000,0.0600,0.0002,0,-0.3000,-100.0000,-0.0010,-0.3000,-100.0000,-0.0010
7.9001,68.9208,5.4172,0.0000,-0.0000,-0.1800,0.0000,0.6400,0.0000,-0.0199,-0.1519,0.0146,996,1497,1500,1502,1000,1000,1505,1000,1000,1006,1005,1000,1011,0.0656,0.0405,0.1024,-0.0111,0.0026,1.0082,0.1466,0.1572,-0.1174,-0.1864,0.2204,0.0082,0.0438,0.2204,0.0082,0.0438,0.3000,0.0600,0.0002,0,-0.3000,-100.0000,-0.0010,-0.3000,-100.0000,-0.0010
7.8928,68.8923,5.4103,0.0000,-0.0686,-0.1800,0.0000,0.6400,0.0000,-0.0199,-0.1518,0.0158,996,1497,1500,1502,1000,1000,1505,1000,1000,1006,1005,1000,1011,0.1209,-0.1624,0.0508,-0.0110,0.0036,1.0143,0.1476,0.1559,-0.1161,-0.1874,0.2204,0.0082,0.0438,0.2204,0.0082,0.0438,0.3000,0.0600,0.0002,0,-0.3000,-100.0000,-0.0010,-0.3000,-100.0000,-0.0010
7.8816,68.8632,5.3992,0.0000,-0.0000,-0.1800,0.0000,0.6400,0.0000,-0.0199,-0.1517,0.0163,996,1497,1500,1502,1000,1000,1505,1000,1000,1006,1005,1000,1011,0.0855,-0.1538,-0.1324,-0.0130,0.0073,1.0055,0.1481,0.1553,-0.1156,-0.1878,0.2204,0.0082,0.0438,0.2204,0.0082,0.0438,0.3000,0.0600,0.0002,0,-0.3000,-100.0000,-0.0010,-0.3000,-100.0000,-0.0010
7.8675,68.8343,5.3854,0.0000,0.1371,-0.1800,0.0000,0.6400,0.0000,-0.0198,-0.1516,0.0160,996,1497,1500,1502,2008,1000,1505,1000,1000,1006,1005,1000,1011,0.1212,-0.1864,-0.0454,-0.0098,0.0121,1.0055,0.1478,0.1555,-0.1158,-0.1875,0.2204,0.0082,0.0438,0.2204,0.0082,0.0438,0.3000,0.0600,0.0002,0,-0.3000,-100.0000,-0.0010,-0.3000,-100.0000,-0.0010
7.8578,68.8057,5.3761,0.0000,-0.0000,-0.1800,0.0000,0.6400,0.0000,-0.0198,-0.1516,0.0157,996,1497,1500,1502,2008,1000,1505,1000,1000,1006,1005,1000,1011,0.0934,-0.1352,0.0544,-0.0108,0.0071,1.0004,0.1475,0.1557,-0.1161,-0.1871,0.2204,0.0082,0.0438,0.2204,0.0082,0.0438,0.3000,0.0600,0.0002,0,-0.3000,-100.0000,-0.0010,-0.3000,-100.0000,-0.0010
7.8488,68.7771,5.3677,0.0000,-0.0000,-0.1800,0.0000,0.6400,0.0000,-0.0198,-0.1516,0.0156,998,1499,1501,1504,2008,1000,1505,1000,1000,1006,1005,1000,1011,0.0548,-0.0533,0.1046,-0.0096,0.0040,0.9962,0.1474,0.1557,-0.1162,-0.1869,0.2204,0.0082,0.0438,0.2204,0.0082,0.0438,0.3000,0.0600,0.0002,0,-0.3000,-100.0000,-0.0010,-0.3000,-100.0000,-0.0010
7.8380,68.7488,5.3572,0.0000,-0.0686,-0.1800,0.0000,0.6400,0.0000,-0.0197,-0.1515,0.0152,996,1497,1500,1502,2008,1000,1505,1000,1000,1006,1005,1000,1011,0.0047,-0.0369,-0.0752,-0.0115,0.0047,1.0013,0.1470,0.1560,-0.1166,-0.1864,0.2204,0.0082,0.0438,0.2204,0.0082,0.0438,0.3000,0.0600,0.0002,0,-0.3000,-100.0000,-0.0010,-0.3000,-100.0000,-0.0010
7.8266,68.7208,5.3462,0.0000,0.0686,-0.1800,0.0000,0.6400,0.0000,-0.0197,-0.1514,0.0160,996,1497,1500,1502,2008,1000,1505,1000,1000,1007,1005,1000,1011,-0.0093,-0.0671,-0.0212,-0.0052,0.0037,1.0058,0.1478,0.1551,-0.1157,-0.1871,0.2204,0.0082,0.0438,0.2204,0.0082,0.0438,0.3000,0.0600,0.0002,0,-0.3000,-100.0000,-0.0010,-0.3000,-100.0000,-0.0010
