roll_imu,pitch_imu,yaw_imu,alpha,beta,roll_des,pitch_des,yaw_des,throttle_des,roll_pid,pitch_pid,yaw_pid,radio_ch1,radio_ch2,radio_ch3,radio_ch4,radio_ch5,radio_ch6,radio_ch7,radio_ch8,radio_ch9,radio_ch10,radio_ch11,radio_ch12,radio_ch13,GyroX,GyroY,GyroZ,AccX,AccY,AccZ,s1_command,s2_command,s3_command,s4_command,kp_roll,ki_roll,kd_roll,kp_pitch,ki_pitch,kd_pitch,kp_yaw,ki_yaw,kd_yaw,failsafeTriggered,kp_alphaRoll,ki_alphaRoll,kd_alphaRoll,kp_betaPitch,ki_betaPitch,kd_betaPitch
0.0000,0.0000,0.0000,9.1543,-2.6400,0.0000,0.0000,0.0000,0.0000,0.0000,0.0000,0.0000,998,1481,1499,1504,1000,1000,1505,1000,1000,1505,1205,1498,1139,0.0000,0.0000,0.0000,0.0000,0.0000,0.0000,0.0000,0.0000,0.0000,0.0000,0.2204,0.0082,0.0438,0.2204,0.0082,0.0438,0.3000,0.0600,0.0002,0,-0.3000,-100.0000,-0.0010,-0.3000,-100.0000,-0.0010
-8.7836,18.2546,-1.4866,-0.0686,-0.0000,-1.2000,-0.1800,0.6400,0.0000,0.0187,-0.0406,0.0042,996,1480,1497,1502,1000,1000,1505,1000,1000,1505,1205,1498,1139,0.0472,-0.0806,0.0533,-0.0120,0.0001,0.9549,0.0636,0.0176,-0.0551,-0.0261,0.2204,0.0082,0.0438,0.2204,0.0082,0.0438,0.3000,0.0600,0.0002,0,-2.2635,-143.5000,-0.0060,-2.2635,-143.5000,-0.0060
-8.7617,18.2140,-1.4796,-0.0686,0.0686,-1.2000,-0.1800,0.6400,0.0000,0.0187,-0.0405,0.0053,996,1480,1497,1502,1000,1000,1505,1000,1000,1505,1205,1498,1139,0.0638,-0.1216,0.0247,-0.0086,-0.0003,0.9980,0.0645,0.0165,-0.0539,-0.0271,0.2204,0.0082,0.0438,0.2204,0.0082,0.0438,0.3000,0.0600,0.0002,0,-2.2635,-143.5000,-0.0060,-2.2635,-143.5000,-0.0060
-8.7402,18.1727,-1.4721,-0.0686,-0.0000,-1.2000,-0.1800,0.6400,0.0000,0.0187,-0.0404,0.0053,996,1480,1497,1502,1000,1000,1505,1000,1000,1505,1205,1498,1139,0.0160,-0.0412,0.0337,-0.0092,-0.0023,0.9994,0.0644,0.0164,-0.0538,-0.0271,0.2204,0.0082,0.0438,0.2204,0.0082,0.0438,0.3000,0.0600,0.0002,0,-2.2635,-143.5000,-0.0060,-2.2635,-143.5000,-0.0060
-8.7185,18.1315,-1.4657,0.0000,-0.0000,-1.2000,-0.1800,0.6400,0.0000,0.0186,-0.0403,0.0056,996,1480,1497,1502,1000,1000,1505,1000,1000,1505,1205,1498,1139,0.0460,-0.0728,-0.0577,-0.0112,-0.0007,1.0000,0.0645,0.0162,-0.0534,-0.0273,0.2204,0.0082,0.0438,0.2204,0.0082,0.0438,0.3000,0.0600,0.0002,0,-2.2635,-143.5000,-0.0060,-2.2635,-143.5000,-0.0060
-8.6968,18.0906,-1.4587,-0.0686,-0.0686,-1.2000,-0.1800,0.6400,0.0000,0.0185,-0.0402,0.0053,996,1480,1497,1502,1000,1000,1505,1000,1000,1505,1205,1498,1139,0.0549,-0.0804,0.0357,-0.0095,-0.0018,0.9979,0.0640,0.0164,-0.0535,-0.0269,0.2204,0.0082,0.0438,0.2204,0.0082,0.0438,0.3000,0.0600,0.0002,0,-2.2635,-143.5000,-0.0060,-2.2635,-143.5000,-0.0060
-8.6748,18.0493,-1.4516,0.0000,-0.0000,-1.2000,-0.1800,0.6400,0.0000,0.0185,-0.0402,0.0056,998,1481,1499,1504,1000,1000,1505,1000,1000,1505,1205,1498,1139,0.0382,-0.0608,-0.0514,-0.0105,-0.0039,1.0009,0.0643,0.0161,-0.0531,-0.0272,0.2204,0.0082,0.0438,0.2204,0.0082,0.0438,0.3000,0.0600,0.0002,0,-2.2635,-143.5000,-0.0060,-2.2635,-143.5000,-0.0060
-8.6533,18.0076,-1.4453,-0.0686,-0.0000,-1.2000,-0.1800,0.6400,0.0000,0.0185,-0.0401,0.0047,996,1480,1497,1502,1000,1000,1505,1000,1000,1505,1205,1498,1139,0.0225,-0.0779,-0.0471,-0.0112,-0.0027,0.9955,0.0632,0.0169,-0.0539,-0.0262,0.2204,0.0082,0.0438,0.2204,0.0082,0.0438,0.3000,0.0600,0.0002,0,-2.2635,-143.5000,-0.0060,-2.2635,-143.5000,-0.0060
-8.6321,17.9661,-1.4394,0.0000,-0.0000,-1.2000,-0.1800,0.6400,0.0000,0.0184,-0.0399,0.0054,996,1480,1497,1502,1000,1000,1505,1000,1000,1505,1205,1498,1139,0.0325,-0.1225,-0.0131,-0.0101,-0.0034,0.9954,0.0638,0.0161,-0.0529,-0.0269,0.2204,0.0082,0.0438,0.2204,0.0082,0.0438,0.3000,0.0600,0.0002,0,-2.2635,-143.5000,-0.0060,-2.2635,-143.5000,-0.0060
-8.6101,17.9243,-1.4324,-0.0686,-0.0000,-1.2000,-0.1800,0.6400,0.0000,0.0183,-0.0399,0.0054,996,1480,1497,1502,1000,1000,1505,1000,1000,1505,1205,1498,1139,0.0830,-0.0679,0.0269,-0.0064,-0.0036,0.9981,0.0636,0.0162,-0.0529,-0.0269,0.2204,0.0082,0.0438,0.2204,0.0082,0.0438,0.3000,0.0600,0.0002,0,-2.2635,-143.5000,-0.0060,-2.2635,-143.5000,-0.0060
-8.5887,17.8829,-1.4262,0.0000,-0.0000,-1.2000,-0.1800,0.6400,0.0000,0.0183,-0.0398,0.0056,996,1480,1497,1502,1000,1000,1505,1000,1000,1505,1205,1498,1139,0.0362,-0.0591,-0.0540,-0.0106,-0.0033,1.0057,0.0637,0.0158,-0.0525,-0.0271,0.2204,0.0082,0.0438,0.2204,0.0082,0.0438,0.3000,0.0600,0.0002,0,-2.2635,-143.5000,-0.0060,-2.2635,-143.5000,-0.0060
-8.5672,17.8414,-1.4202,0.0000,0.1371,-1.2000,-0.1800,0.6400,0.0000,0.0183,-0.0397,0.0056,996,1480,1497,1502,1000,1000,1505,1000,1000,1505,1205,1498,1139,0.0743,-0.0139,-0.0557,-0.0129,-0.0018,0.9952,0.0636,0.0158,-0.0523,-0.0271,0.2204,0.0082,0.0438,0.2204,0.0082,0.0438,0.3000,0.0600,0.0002,0,-2.2635,-143.5000,-0.0060,-2.2635,-143.5000,-0.0060
-8.5458,17.8004,-1.4141,-0.0686,0.0686,-1.2000,-0.1800,0.6400,0.0000,0.0182,-0.0396,0.0055,998,1481,1499,1504,1000,1000,1505,1000,1000,1505,1205,1498,1139,0.0593,0.0063,-0.0071,-0.0112,-0.0042,0.9995,0.0633,0.0160,-0.0524,-0.0269,0.2204,0.0082,0.0438,0.2204,0.0082,0.0438,0.3000,0.0600,0.0002,0,-2.2635,-143.5000,-0.0060,-2.2635,-143.5000,-0.0060
-8.5240,17.7595,-1.4084,-0.0686,-0.0000,-1.2000,-0.1800,0.6400,0.0000,0.0182,-0.0395,0.0047,996,1480,1497,1502,1000,1000,1505,1000,1000,1505,1205,1498,1139,0.0300,-0.0810,-0.0758,-0.0105,-0.0015,1.0014,0.0624,0.0166,-0.0530,-0.0261,0.2204,0.0082,0.0438,0.2204,0.0082,0.0438,0.3000,0.0600,0.0002,0,-2.2635,-143.5000,-0.0060,-2.2635,-143.5000,-0.0060
-8.5022,17.7179,-1.4025,-0.0686,-0.0000,-1.2000,-0.1800,0.6400,0.0000,0.0181,-0.0394,0.0057,996,1480,1497,1502,1000,1000,1505,1000,1000,1505,1205,1498,1139,0.0545,-0.1048,-0.0929,-0.0091,-0.0033,0.9975,0.0632,0.0156,-0.0518,-0.0270,0.2204,0.0082,0.0438,0.2204,0.0082,0.0438,0.3000,0.0600,0.0002,0,-2.2635,-143.5000,-0.0060,-2.2635,-143.5000,-0.0060
-8.4806,17.6761,-1.3961,0.0000,-0.0000,-1.2000,-0.1800,0.6400,0.0000,0.0181,-0.0393,0.0053,996,1480,1497,1502,1000,1000,1505,1000,1000,1505,1205,1498,1139,0.0105,-0.0792,0.0549,-0.0074,-0.0016,0.9926,0.0627,0.0160,-0.0521,-0.0265,0.2204,0.0082,0.0438,0.2204,0.0082,0.0438,0.3000,0.0600,0.0002,0,-2.2635,-143.5000,-0.0060,-2.2635,-143.5000,-0.0060
-8.4587,17.6349,-1.3895,0.0000,-0.0686,-1.2000,-0.1800,0.6400,0.0000,0.0180,-0.0393,0.0054,996,1480,1497,1502,1000,1000,1505,1000,1000,1505,1205,1498,1139,0.0102,0.0487,0.0047,-0.0113,-0.0048,0.9966,0.0628,0.0158,-0.0519,-0.0267,0.2204,0.0082,0.0438,0.2204,0.0082,0.0438,0.3000,0.0600,0.0002,0,-2.2635,-143.5000,-0.0060,-2.2635,-143.5000,-0.0060
-8.4374,17.5937,-1.3828,0.0000,-0.0000,-1.2000,-0.1800,0.6400,0.0000,0.0180,-0.0392,0.0053,996,1480,1497,1502,1000,1000,1505,1000,1000,1505,1205,1498,1139,-0.0103,-0.0464,0.0602,-0.0112,-0.0014,0.9960,0.0625,0.0158,-0.0518,-0.0265,0.2204,0.0082,0.0438,0.2204,0.0082,0.0438,0.3000,0.0600,0.0002,0,-2.2635,-143.5000,-0.0060,-2.2635,-143.5000,-0.0060
-8.4155,17.5526,-1.3760,-0.0686,-0.0000,-1.2000,-0.1800,0.6400,0.0000,0.0179,-0.0391,0.0055,998,1481,1499,1504,1000,1000,1505,1000,1000,1505,1205,1498,1139,0.0465,-0.0259,-0.0118,-0.0067,-0.0040,1.0010,0.0625,0.0156,-0.0515,-0.0266,0.2204,0.0082,0.0438,0.2204,0.0082,0.0438,0.3000,0.0600,0.0002,0,-2.2635,-143.5000,-0.0060,-2.2635,-143.5000,-0.0060
-8.3946,17.5109,-1.3692,0.0000,-0.0686,-1.2000,-0.1800,0.6400,0.0000,0.0179,-0.0390,0.0044,996,1480,1497,1502,1000,1000,1505,1000,1000,1505,1205,1498,1139,-0.0184,-0.0882,0.0455,-0.0069,-0.0010,0.9968,0.0613,0.0166,-0.0525,-0.0254,0.2204,0.0082,0.0438,0.2204,0.0082,0.0438,0.3000,0.0600,0.0002,0,-2.2635,-143.5000,-0.0060,-2.2635,-143.5000,-0.0060
-8.3734,17.4692,-1.3622,-0.1371,-0.0686,-1.2000,-0.1800,0.6400,0.0000,0.0179,-0.0389,0.0053,996,1480,1497,1502,1000,1000,1505,1000,1000,1505,1205,1498,1139,-0.0626,-0.0755,0.0684,-0.0083,-0.0014,0.9978,0.0620,0.0157,-0.0515,-0.0262,0.2204,0.0082,0.0438,0.2204,0.0082,0.0438,0.3000,0.0600,0.0002,0,-2.2635,-143.5000,-0.0060,-2.2635,-143.5000,-0.0060
-8.3516,17.4276,-1.3548,-0.0686,-0.0000,-1.2000,-0.1800,0.6400,0.0000,0.0178,-0.0388,0.0055,996,1480,1497,1502,1000,1000,1505,1000,1000,1505,1205,1498,1139,0.0586,-0.0928,0.0134,-0.0106,-0.0026,0.9997,0.0620,0.0155,-0.0511,-0.0264,0.2204,0.0082,0.0438,0.2204,0.0082,0.0438,0.3000,0.0600,0.0002,0,-2.2635,-143.5000,-0.0060,-2.2635,-143.5000,-0.0060
-8.3301,17.3858,-1.3482,0.0000,-0.0686,-1.2000,-0.1800,0.6400,0.0000,0.0178,-0.0387,0.0054,996,1480,1497,1502,1000,1000,1505,1000,1000,1505,1205,1498,1139,-0.0303,-0.1033,0.0285,-0.0073,-0.0031,0.9971,0.0619,0.0155,-0.0510,-0.0263,0.2204,0.0082,0.0438,0.2204,0.0082,0.0438,0.3000,0.0600,0.0002,0,-2.2635,-143.5000,-0.0060,-2.2635,-143.5000,-0.0060
-8.3089,17.3440,-1.3411,0.0000,-0.0000,-1.2000,-0.1800,0.6400,0.0000,0.0177,-0.0386,0.0054,996,1480,1497,1502,1000,1000,1505,1000,1000,1505,1205,1498,1139,-0.0242,-0.0690,0.0470,-0.0102,-0.0029,0.9998,0.0617,0.0155,-0.0509,-0.0262,0.2204,0.0082,0.0438,0.2204,0.0082,0.0438,0.3000,0.0600,0.0002,0,-2.2635,-143.5000,-0.0060,-2.2635,-143.5000,-0.0060
-8.2876,17.3026,-1.3344,-0.0686,-0.0000,-1.2000,-0.1800,0.6400,0.0000,0.0177,-0.0385,0.0055,998,1481,1499,1504,1000,1000,1505,1000,1000,1505,1205,1498,1139,-0.0162,-0.0373,0.0038,-0.0117,-0.0048,0.9925,0.0617,0.0154,-0.0507,-0.0263,0.2204,0.0082,0.0438,0.2204,0.0082,0.0438,0.3000,0.0600,0.0002,0,-2.2635,-143.5000,-0.0060,-2.2635,-143.5000,-0.0060
-8.2663,17.2614,-1.3282,-0.0686,-0.0000,-1.2000,-0.1800,0.6400,0.0000,0.0176,-0.0384,0.0047,996,1480,1497,1502,1000,1000,1505,1000,1000,1505,1205,1498,1139,0.0347,-0.0613,-0.0398,-0.0096,-0.0038,1.0025,0.0607,0.0161,-0.0514,-0.0255,0.2204,0.0082,0.0438,0.2204,0.0082,0.0438,0.3000,0.0600,0.0002,0,-2.2635,-143.5000,-0.0060,-2.2635,-143.5000,-0.0060
-8.2446,17.2196,-1.3218,0.0000,-0.0000,-1.2000,-0.1800,0.6400,0.0000,0.0176,-0.0383,0.0055,996,1480,1497,1502,1000,1000,1505,1000,1000,1505,1205,1498,1139,0.0038,-0.1197,0.0260,-0.0088,-0.0012,0.9954,0.0613,0.0153,-0.0504,-0.0262,0.2204,0.0082,0.0438,0.2204,0.0082,0.0438,0.3000,0.0600,0.0002,0,-2.2635,-143.5000,-0.0060,-2.2635,-143.5000,-0.0060
-8.2234,17.1773,-1.3155,0.0000,-0.0686,-1.2000,-0.1800,0.6400,0.0000,0.0175,-0.0382,0.0056,996,1480,1497,1502,1000,1000,1505,1000,1000,1505,1205,1498,1139,-0.0035,-0.1084,-0.0148,-0.0110,-0.0035,1.0008,0.0613,0.0151,-0.0502,-0.0263,0.2204,0.0082,0.0438,0.2204,0.0082,0.0438,0.3000,0.0600,0.0002,0,-2.2635,-143.5000,-0.0060,-2.2635,-143.5000,-0.0060
-8.2015,17.1351,-1.3096,-0.0686,-0.0000,-1.2000,-0.1800,0.6400,0.0000,0.0175,-0.0381,0.0057,996,1480,1497,1502,1000,1000,1505,1000,1000,1505,1205,1498,1139,0.0000,-0.1349,-0.0713,-0.0085,-0.0015,0.9999,0.0613,0.0149,-0.0499,-0.0263,0.2204,0.0082,0.0438,0.2204,0.0082,0.0438,0.3000,0.0600,0.0002,0,-2.2635,-143.5000,-0.0060,-2.2635,-143.5000,-0.0060
-8.1802,17.0930,-1.3039,-0.0686,-0.0000,-1.2000,-0.1800,0.6400,0.0000,0.0174,-0.0380,0.0057,996,1480,1497,1502,1000,1000,1505,1000,1000,1505,1205,1498,1139,0.0130,-0.0569,-0.0530,-0.0084,-0.0015,0.9927,0.0612,0.0149,-0.0498,-0.0263,0.2204,0.0082,0.0438,0.2204,0.0082,0.0438,0.3000,0.0600,0.0002,0,-2.2635,-143.5000,-0.0060,-2.2635,-143.5000,-0.0060
-8.1589,17.0511,-1.2977,-0.0686,-0.0000,-1.2000,-0.1800,0.6400,0.0000,0.0174,-0.0379,0.0057,998,1481,1499,1504,1000,1000,1505,1000,1000,1505,1205,1498,1139,-0.0169,-0.0989,-0.0417,-0.0093,-0.0018,0.9974,0.0610,0.0149,-0.0497,-0.0262,0.2204,0.0082,0.0438,0.2204,0.0082,0.0438,0.3000,0.0600,0.0002,0,-2.2635,-143.5000,-0.0060,-2.2635,-143.5000,-0.0060
-8.1379,17.0094,-1.2913,-0.0686,0.0686,-1.2000,-0.1800,0.6400,0.0000,0.0174,-0.0379,0.0045,996,1480,1497,1502,1000,1000,1505,1000,1000,1505,1205,1498,1139,-0.0381,-0.0460,0.0498,-0.0069,-0.0011,0.9976,0.0597,0.0160,-0.0508,-0.0250,0.2204,0.0082,0.0438,0.2204,0.0082,0.0438,0.3000,0.0600,0.0002,0,-2.2635,-143.5000,-0.0060,-2.2635,-143.5000,-0.0060
-8.1165,16.9680,-1.2853,-0.0686,-0.0000,-1.2000,-0.1800,0.6400,0.0000,0.0173,-0.0378,0.0058,996,1480,1497,1502,1000,1000,1505,1000,1000,1505,1205,1498,1139,0.0135,-0.0641,-0.0713,-0.0101,0.0007,0.9967,0.0608,0.0147,-0.0493,-0.0262,0.2204,0.0082,0.0438,0.2204,0.0082,0.0438,0.3000,0.0600,0.0002,0,-2.2635,-143.5000,-0.0060,-2.2635,-143.5000,-0.0060
-8.0950,16.9265,-1.2795,0.0000,-0.0000,-1.2000,-0.1800,0.6400,0.0000,0.0172,-0.0377,0.0055,996,1480,1497,1502,1000,1000,1505,1000,1000,1505,1205,1498,1139,0.0473,-0.0893,-0.0009,-0.0087,-0.0013,0.9984,0.0604,0.0149,-0.0494,-0.0259,0.2204,0.0082,0.0438,0.2204,0.0082,0.0438,0.3000,0.0600,0.0002,0,-2.2635,-143.5000,-0.0060,-2.2635,-143.5000,-0.0060
-8.0740,16.8846,-1.2730,0.0000,-0.0686,-1.2000,-0.1800,0.6400,0.0000,0.0172,-0.0376,0.0055,996,1480,1497,1502,1000,1000,1505,1000,1000,1505,1205,1498,1139,-0.0371,-0.0662,0.0223,-0.0091,-0.0045,0.9995,0.0603,0.0149,-0.0493,-0.0259,0.2204,0.0082,0.0438,0.2204,0.0082,0.0438,0.3000,0.0600,0.0002,0,-2.2635,-143.5000,-0.0060,-2.2635,-143.5000,-0.0060
-8.0532,16.8429,-1.2671,-0.0686,-0.0686,-1.2000,-0.1800,0.6400,0.0000,0.0172,-0.0375,0.0055,996,1480,1497,1502,1000,1000,1505,1000,1000,1505,1205,1498,1139,0.0047,-0.0945,0.0088,-0.0063,-0.0063,1.0024,0.0601,0.0148,-0.0491,-0.0258,0.2204,0.0082,0.0438,0.2204,0.0082,0.0438,0.3000,0.0600,0.0002,0,-2.2635,-143.5000,-0.0060,-2.2635,-143.5000,-0.0060
-8.0316,16.8010,-1.2607,-0.0686,-0.0000,-1.2000,-0.1800,0.6400,0.0000,0.0171,-0.0374,0.0056,998,1481,1499,1504,1000,1000,1505,1000,1000,1505,1205,1498,1139,0.0148,-0.0444,0.0079,-0.0103,-0.0005,0.9993,0.0601,0.0147,-0.0489,-0.0259,0.2204,0.0082,0.0438,0.2204,0.0082,0.0438,0.3000,0.0600,0.0002,0,-2.2635,-143.5000,-0.0060,-2.2635,-143.5000,-0.0060
-8.0101,16.7595,-1.2546,0.0000,0.0686,-1.2000,-0.1800,0.6400,0.0000,0.0171,-0.0373,0.0047,996,1480,1497,1502,1000,1000,1505,1000,1000,1505,1205,1498,1139,0.0088,0.0083,-0.0298,-0.0126,-0.0008,0.9955,0.0591,0.0156,-0.0497,-0.0250,0.2204,0.0082,0.0438,0.2204,0.0082,0.0438,0.3000,0.0600,0.0002,0,-2.2635,-143.5000,-0.0060,-2.2635,-143.5000,-0.0060
-7.9882,16.7185,-1.2488,-0.0686,0.0686,-1.2000,-0.1800,0.6400,0.0000,0.0170,-0.0372,0.0056,996,1480,1497,1502,1000,1000,1505,1000,1000,1505,1205,1498,1139,0.0445,-0.0406,-0.0346,-0.0110,-0.0019,0.9977,0.0598,0.0146,-0.0486,-0.0259,0.2204,0.0082,0.0438,0.2204,0.0082,0.0438,0.3000,0.0600,0.0002,0,-2.2635,-143.5000,-0.0060,-2.2635,-143.5000,-0.0060
-7.9668,16.6764,-1.2428,-0.0686,-0.0000,-1.2000,-0.1800,0.6400,0.0000,0.0170,-0.0371,0.0058,996,1480,1497,1502,1000,1000,1505,1000,1000,1505,1205,1498,1139,0.0123,-0.1172,-0.0749,-0.0118,-0.0032,0.9996,0.0598,0.0144,-0.0483,-0.0259,0.2204,0.0082,0.0438,0.2204,0.0082,0.0438,0.3000,0.0600,0.0002,0,-2.2635,-143.5000,-0.0060,-2.2635,-143.5000,-0.0060
-7.9455,16.6345,-1.2373,0.0000,-0.0000,-1.2000,-0.1800,0.6400,0.0000,0.0169,-0.0370,0.0058,996,1480,1497,1502,1000,1000,1505,1000,1000,1505,1205,1498,1139,0.0311,-0.0682,-0.0649,-0.0101,-0.0016,0.9997,0.0597,0.0144,-0.0482,-0.0259,0.2204,0.0082,0.0438,0.2204,0.0082,0.0438,0.3000,0.0600,0.0002,0,-2.2635,-143.5000,-0.0060,-2.2635,-143.5000,-0.0060
-7.9238,16.5931,-1.2317,-0.1371,-0.0686,-1.2000,-0.1800,0.6400,0.0000,0.0168,-0.0369,0.0057,996,1480,1497,1502,1000,1000,1505,1000,1000,1505,1205,1498,1139,0.0609,-0.0642,-0.0394,-0.0092,-0.0019,0.9972,0.0594,0.0144,-0.0481,-0.0258,0.2204,0.0082,0.0438,0.2204,0.0082,0.0438,0.3000,0.0600,0.0002,0,-2.2635,-143.5000,-0.0060,-2.2635,-143.5000,-0.0060
-7.9019,16.5515,-1.2253,-0.0686,-0.0686,-1.2000,-0.1800,0.6400,0.0000,0.0168,-0.0368,0.0054,998,1481,1499,1504,1000,1000,1505,1000,1000,1505,1205,1498,1139,0.0314,-0.0880,0.0702,-0.0116,-0.0029,0.9959,0.0590,0.0146,-0.0482,-0.0254,0.2204,0.0082,0.0438,0.2204,0.0082,0.0438,0.3000,0.0600,0.0002,0,-2.2635,-143.5000,-0.0060,-2.2635,-143.5000,-0.0060
-7.8802,16.5089,-1.2190,0.0000,-0.0000,-1.2000,-0.1800,0.6400,0.0000,0.0168,-0.0367,0.0044,996,1480,1497,1502,1000,1000,1505,1000,1000,1505,1205,1498,1139,0.0233,-0.1118,0.0627,-0.0075,-0.0006,1.0013,0.0579,0.0155,-0.0491,-0.0244,0.2204,0.0082,0.0438,0.2204,0.0082,0.0438,0.3000,0.0600,0.0002,0,-2.2635,-143.5000,-0.0060,-2.2635,-143.5000,-0.0060
-7.8583,16.4673,-1.2130,-0.0686,-0.0686,-1.2000,-0.1800,0.6400,0.0000,0.0167,-0.0367,0.0056,996,1480,1497,1502,1000,1000,1505,1000,1000,1505,1205,1498,1139,0.1062,-0.0751,-0.0146,-0.0122,-0.0025,0.9999,0.0590,0.0144,-0.0477,-0.0256,0.2204,0.0082,0.0438,0.2204,0.0082,0.0438,0.3000,0.0600,0.0002,0,-2.2635,-143.5000,-0.0060,-2.2635,-143.5000,-0.0060
-7.8365,16.4258,-1.2067,-0.0686,0.0686,-1.2000,-0.1800,0.6400,0.0000,0.0167,-0.0366,0.0053,996,1480,1497,1502,1000,1000,1505,1000,1000,1505,1205,1498,1139,0.0402,-0.0905,0.0796,-0.0108,-0.0026,0.9962,0.0585,0.0146,-0.0479,-0.0252,0.2204,0.0082,0.0438,0.2204,0.0082,0.0438,0.3000,0.0600,0.0002,0,-2.2635,-143.5000,-0.0060,-2.2635,-143.5000,-0.0060
-7.8147,16.3843,-1.2007,-0.0686,-0.0000,-1.2000,-0.1800,0.6400,0.0000,0.0166,-0.0365,0.0056,996,1480,1497,1502,1000,1000,1505,1000,1000,1505,1205,1498,1139,-0.0099,-0.0737,-0.0102,-0.0090,-0.0027,1.0002,0.0587,0.0143,-0.0475,-0.0254,0.2204,0.0082,0.0438,0.2204,0.0082,0.0438,0.3000,0.0600,0.0002,0,-2.2635,-143.5000,-0.0060,-2.2635,-143.5000,-0.0060
-7.7937,16.3423,-1.1948,0.0000,-0.0000,-1.2000,-0.1800,0.6400,0.0000,0.0166,-0.0364,0.0055,996,1480,1497,1502,1000,1000,1505,1000,1000,1505,1205,1498,1139,-0.0111,-0.0870,0.0158,-0.0096,-0.0036,1.0006,0.0585,0.0143,-0.0474,-0.0253,0.2204,0.0082,0.0438,0.2204,0.0082,0.0438,0.3000,0.0600,0.0002,0,-2.2635,-143.5000,-0.0060,-2.2635,-143.5000,-0.0060
-7.7722,16.3004,-1.1888,0.0000,0.0686,-1.2000,-0.1800,0.6400,0.0000,0.0165,-0.0363,0.0056,998,1481,1499,1504,1000,1000,1505,1000,1000,1505,1205,1498,1139,0.0117,-0.1589,-0.0035,-0.0105,-0.0011,0.9984,0.0584,0.0141,-0.0472,-0.0253,0.2204,0.0082,0.0438,0.2204,0.0082,0.0438,0.3000,0.0600,0.0002,0,-2.2635,-143.5000,-0.0060,-2.2635,-143.5000,-0.0060
-7.7510,16.2577,-1.1830,-0.0686,-0.0000,-1.2000,-0.1800,0.6400,0.0000,0.0165,-0.0362,0.0048,996,1480,1497,1502,1000,1000,1505,1000,1000,1505,1205,1498,1139,-0.0007,-0.1015,-0.0529,-0.0072,-0.0041,1.0055,0.0575,0.0149,-0.0478,-0.0245,0.2204,0.0082,0.0438,0.2204,0.0082,0.0438,0.3000,0.0600,0.0002,0,-2.2635,-143.5000,-0.0060,-2.2635,-143.5000,-0.0060
-7.7299,16.2157,-1.1777,-0.0686,-0.0000,-1.2000,-0.1800,0.6400,0.0000,0.0164,-0.0361,0.0056,996,1480,1497,1502,1000,1000,1505,1000,1000,1505,1205,1498,1139,0.0581,-0.0713,-0.0243,-0.0119,-0.0035,0.9980,0.0582,0.0140,-0.0469,-0.0253,0.2204,0.0082,0.0438,0.2204,0.0082,0.0438,0.3000,0.0600,0.0002,0,-2.2635,-143.5000,-0.0060,-2.2635,-143.5000,-0.0060
-7.7081,16.1742,-1.1717,0.0000,-0.0000,-1.2000,-0.1800,0.6400,0.0000,0.0164,-0.0360,0.0057,996,1480,1497,1502,1000,1000,1505,1000,1000,1505,1205,1498,1139,0.0466,-0.0058,-0.0008,-0.0089,-0.0036,1.0007,0.0581,0.0140,-0.0468,-0.0253,0.2204,0.0082,0.0438,0.2204,0.0082,0.0438,0.3000,0.0600,0.0002,0,-2.2635,-143.5000,-0.0060,-2.2635,-143.5000,-0.0060
-7.6867,16.1328,-1.1664,-0.0686,-0.0686,-1.2000,-0.1800,0.6400,0.0000,0.0164,-0.0359,0.0055,996,1480,1497,1502,1000,1000,1505,1000,1000,1505,1205,1498,1139,-0.0094,-0.0483,0.0186,-0.0087,-0.0037,0.9975,0.0578,0.0141,-0.0468,-0.0251,0.2204,0.0082,0.0438,0.2204,0.0082,0.0438,0.3000,0.0600,0.0002,0,-2.2635,-143.5000,-0.0060,-2.2635,-143.5000,-0.0060
-7.6654,16.0908,-1.1596,0.0000,-0.0000,-1.2000,-0.1800,0.6400,0.0000,0.0163,-0.0359,0.0054,996,1480,1497,1502,1000,1000,1505,1000,1000,1505,1205,1498,1139,-0.0210,-0.0238,0.0683,-0.0067,-0.0036,0.9963,0.0576,0.0141,-0.0467,-0.0250,0.2204,0.0082,0.0438,0.2204,0.0082,0.0438,0.3000,0.0600,0.0002,0,-2.2635,-143.5000,-0.0060,-2.2635,-143.5000,-0.0060
-7.6441,16.0487,-1.1539,0.0000,-0.0000,-1.2000,-0.1800,0.6400,0.0000,0.0162,-0.0358,0.0060,998,1481,1499,1504,1000,1000,1505,1000,1000,1505,1205,1498,1139,0.0410,-0.0338,-0.1244,-0.0100,-0.0041,0.9995,0.0580,0.0135,-0.0460,-0.0255,0.2204,0.0082,0.0438,0.2204,0.0082,0.0438,0.3000,0.0600,0.0002,0,-2.2635,-143.5000,-0.0060,-2.2635,-143.5000,-0.0060
-7.6230,16.0068,-1.1490,-0.0686,-0.0000,-1.2000,-0.1800,0.6400,0.0000,0.0162,-0.0357,0.0047,996,1480,1497,1502,1000,1000,1505,1000,1000,1505,1205,1498,1139,0.0001,-0.0535,-0.0136,-0.0094,-0.0041,0.9979,0.0566,0.0147,-0.0471,-0.0242,0.2204,0.0082,0.0438,0.2204,0.0082,0.0438,0.3000,0.0600,0.0002,0,-2.2635,-143.5000,-0.0060,-2.2635,-143.5000,-0.0060
-7.6021,15.9651,-1.1438,-0.0686,-0.0000,-1.2000,-0.1800,0.6400,0.0000,0.0162,-0.0356,0.0058,996,1480,1497,1502,1000,1000,1505,1000,1000,1505,1205,1498,1139,-0.0214,-0.0354,-0.0689,-0.0100,-0.0010,1.0023,0.0576,0.0135,-0.0459,-0.0252,0.2204,0.0082,0.0438,0.2204,0.0082,0.0438,0.3000,0.0600,0.0002,0,-2.2635,-143.5000,-0.0060,-2.2635,-143.5000,-0.0060
-7.5809,15.9233,-1.1386,-0.0686,-0.0000,-1.2000,-0.1800,0.6400,0.0000,0.0161,-0.0355,0.0058,996,1480,1497,1502,1000,1000,1505,1000,1000,1505,1205,1498,1139,0.0463,-0.0703,-0.0471,-0.0101,-0.0010,0.9982,0.0573,0.0136,-0.0458,-0.0251,0.2204,0.0082,0.0438,0.2204,0.0082,0.0438,0.3000,0.0600,0.0002,0,-2.2635,-143.5000,-0.0060,-2.2635,-143.5000,-0.0060
-7.5589,15.8817,-1.1330,-0.0686,-0.0000,-1.2000,-0.1800,0.6400,0.0000,0.0160,-0.0354,0.0055,996,1480,1497,1502,1000,1000,1505,1000,1000,1505,1205,1498,1139,0.0526,-0.0361,0.0244,-0.0094,-0.0022,0.9945,0.0570,0.0138,-0.0459,-0.0249,0.2204,0.0082,0.0438,0.2204,0.0082,0.0438,0.3000,0.0600,0.0002,0,-2.2635,-143.5000,-0.0060,-2.2635,-143.5000,-0.0060
-7.5375,15.8397,-1.1272,0.0000,-0.0000,-1.2000,-0.1800,0.6400,0.0000,0.0160,-0.0353,0.0059,996,1480,1497,1502,1000,1000,1505,1000,1000,1505,1205,1498,1139,0.0249,-0.0135,-0.0559,-0.0093,-0.0044,0.9963,0.0572,0.0134,-0.0455,-0.0251,0.2204,0.0082,0.0438,0.2204,0.0082,0.0438,0.3000,0.0600,0.0002,0,-2.2635,-143.5000,-0.0060,-2.2635,-143.5000,-0.0060
-7.5164,15.7978,-1.1219,-0.2057,-0.1371,-1.2000,-0.1800,0.6400,0.0000,0.0160,-0.0352,0.0058,998,1481,1499,1504,1000,1000,1505,1000,1000,1505,1205,1498,1139,0.0191,-0.0557,-0.0459,-0.0087,-0.0043,0.9987,0.0569,0.0134,-0.0454,-0.0250,0.2204,0.0082,0.0438,0.2204,0.0082,0.0438,0.3000,0.0600,0.0002,0,-2.2635,-143.5000,-0.0060,-2.2635,-143.5000,-0.0060
-7.4955,15.7559,-1.1164,-0.0686,-0.0686,-1.2000,-0.1800,0.6400,0.0000,0.0159,-0.0351,0.0046,996,1480,1497,1502,1000,1000,1505,1000,1000,1505,1205,1498,1139,0.0170,-0.0043,0.0157,-0.0093,-0.0030,0.9987,0.0557,0.0146,-0.0464,-0.0238,0.2204,0.0082,0.0438,0.2204,0.0082,0.0438,0.3000,0.0600,0.0002,0,-2.2635,-143.5000,-0.0060,-2.2635,-143.5000,-0.0060
-7.4740,15.7140,-1.1105,-0.0686,0.0686,-1.2000,-0.1800,0.6400,0.0000,0.0159,-0.0350,0.0057,996,1480,1497,1502,1000,1000,1505,1000,1000,1505,1205,1498,1139,0.0064,-0.0973,-0.0087,-0.0078,0.0010,0.9948,0.0566,0.0134,-0.0452,-0.0248,0.2204,0.0082,0.0438,0.2204,0.0082,0.0438,0.3000,0.0600,0.0002,0,-2.2635,-143.5000,-0.0060,-2.2635,-143.5000,-0.0060
-7.4521,15.6724,-1.1046,-0.0686,-0.0000,-1.2000,-0.1800,0.6400,0.0000,0.0158,-0.0349,0.0058,996,1480,1497,1502,1000,1000,1505,1000,1000,1505,1205,1498,1139,0.0239,-0.0118,-0.0421,-0.0120,-0.0004,0.9996,0.0565,0.0133,-0.0450,-0.0249,0.2204,0.0082,0.0438,0.2204,0.0082,0.0438,0.3000,0.0600,0.0002,0,-2.2635,-143.5000,-0.0060,-2.2635,-143.5000,-0.0060
-7.4308,15.6303,-1.0987,0.0000,0.0686,-1.2000,-0.1800,0.6400,0.0000,0.0158,-0.0348,0.0054,996,1480,1497,1502,1000,1000,1505,1000,1000,1505,1205,1498,1139,0.0563,-0.0980,0.0869,-0.0093,-0.0028,0.9940,0.0559,0.0137,-0.0452,-0.0244,0.2204,0.0082,0.0438,0.2204,0.0082,0.0438,0.3000,0.0600,0.0002,0,-2.2635,-143.5000,-0.0060,-2.2635,-143.5000,-0.0060
-7.4093,15.5884,-1.0924,0.0000,0.0686,-1.2000,-0.1800,0.6400,0.0000,0.0157,-0.0347,0.0057,996,1480,1497,1502,1000,1000,1505,1000,1000,1505,1205,1498,1139,0.0454,-0.0250,0.0263,-0.0086,-0.0025,0.9977,0.0561,0.0134,-0.0448,-0.0247,0.2204,0.0082,0.0438,0.2204,0.0082,0.0438,0.3000,0.0600,0.0002,0,-2.2635,-143.5000,-0.0060,-2.2635,-143.5000,-0.0060
-7.3879,15.5465,-1.0865,-0.0686,-0.0000,-1.2000,-0.1800,0.6400,0.0440,0.0157,-0.0346,0.0055,1058,1481,1499,1504,1000,1000,1505,1000,1000,1505,1205,1498,1139,-0.0002,-0.0520,0.0714,-0.0100,-0.0025,0.9962,0.0998,0.0575,-0.0009,0.0196,0.2204,0.0082,0.0438,0.2204,0.0082,0.0438,0.3000,0.0600,0.0002,0,-2.2635,-143.5000,-0.0060,-2.2635,-143.5000,-0.0060
-7.3663,15.5048,-1.0803,-0.0686,-0.0686,-1.2000,-0.1800,0.6400,0.1060,0.0156,-0.0346,0.0047,1106,1480,1497,1502,1000,1000,1505,1000,1000,1505,1205,1498,1139,0.0765,0.0437,0.0086,-0.0117,-0.0032,1.0007,0.1609,0.1203,0.0605,0.0823,0.2204,0.0082,0.0438,0.2204,0.0082,0.0438,0.3000,0.0600,0.0002,0,-2.2635,-143.5000,-0.0060,-2.2635,-143.5000,-0.0060
-7.3448,15.4632,-1.0748,-0.0686,-0.0000,-1.2000,-0.1800,0.6400,0.1210,0.0156,-0.0345,0.0060,1121,1480,1497,1502,1000,1000,1505,1000,1000,1505,1205,1498,1139,-0.0111,-0.0878,-0.1035,-0.0109,-0.0029,0.9958,0.1770,0.1339,0.0769,0.0961,0.2204,0.0082,0.0438,0.2204,0.0082,0.0438,0.3000,0.0600,0.0002,0,-2.2635,-143.5000,-0.0060,-2.2635,-143.5000,-0.0060
-7.3230,15.4206,-1.0690,0.0000,-0.0000,-1.2000,-0.1800,0.6400,0.1510,0.0155,-0.0344,0.0056,1151,1480,1497,1502,1000,1000,1505,1000,1000,1505,1205,1498,1139,0.0458,-0.1358,0.0381,-0.0112,-0.0029,0.9986,0.2065,0.1642,0.1067,0.1266,0.2204,0.0082,0.0438,0.2204,0.0082,0.0438,0.3000,0.0600,0.0002,0,-2.2635,-143.5000,-0.0060,-2.2635,-143.5000,-0.0060
-7.3016,15.3788,-1.0631,-0.0686,-0.0000,-1.2000,-0.1800,0.6400,0.1610,0.0155,-0.0343,0.0056,1161,1480,1497,1502,1000,1000,1505,1000,1000,1505,1205,1498,1139,0.0437,-0.0181,0.0331,-0.0094,-0.0054,0.9963,0.2164,0.1743,0.1167,0.1366,0.2204,0.0082,0.0438,0.2204,0.0082,0.0438,0.3000,0.0600,0.0002,0,-2.2635,-143.5000,-0.0060,-2.2635,-143.5000,-0.0060
-7.2798,15.3371,-1.0576,0.0000,-0.0000,-1.2000,-0.1800,0.6400,0.1790,0.0154,-0.0343,0.0060,1179,1480,1497,1502,1000,1000,1505,1000,1000,1505,1205,1498,1139,0.0458,-0.0001,-0.0854,-0.0090,-0.0013,0.9944,0.2347,0.1918,0.1353,0.1542,0.2204,0.0082,0.0438,0.2204,0.0082,0.0438,0.3000,0.0600,0.0002,0,-2.2635,-143.5000,-0.0060,-2.2635,-143.5000,-0.0060
-7.2581,15.2952,-1.0523,0.0000,-0.0000,-1.2000,-0.1800,0.6400,0.1850,0.0154,-0.0342,0.0058,1192,1481,1499,1504,1000,1000,1505,1000,1000,1505,1205,1498,1139,0.0682,-0.0491,-0.0308,-0.0098,-0.0023,0.9970,0.2404,0.1979,0.1413,0.1604,0.2204,0.0082,0.0438,0.2204,0.0082,0.0438,0.3000,0.0600,0.0002,0,-2.2635,-143.5000,-0.0060,-2.2635,-143.5000,-0.0060
-7.2368,15.2537,-1.0472,-0.0686,-0.0000,-1.2000,-0.1800,0.6400,0.1940,0.0153,-0.0341,0.0051,1194,1480,1497,1502,1000,1000,1505,1000,1000,1505,1205,1498,1139,0.0214,-0.0609,-0.1095,-0.0091,-0.0033,0.9970,0.2485,0.2077,0.1496,0.1702,0.2204,0.0082,0.0438,0.2204,0.0082,0.0438,0.3000,0.0600,0.0002,0,-2.2635,-143.5000,-0.0060,-2.2635,-143.5000,-0.0060
-7.2160,15.2110,-1.0425,0.0000,0.0686,-1.2000,-0.1800,0.6400,0.2140,0.0153,-0.0340,0.0060,1214,1480,1497,1502,1000,1000,1505,1000,1000,1505,1205,1498,1139,0.0086,-0.0976,-0.0984,-0.0105,-0.0023,0.9994,0.2693,0.2267,0.1707,0.1894,0.2204,0.0082,0.0438,0.2204,0.0082,0.0438,0.3000,0.0600,0.0002,0,-2.2635,-143.5000,-0.0060,-2.2635,-143.5000,-0.0060
-7.1944,15.1689,-1.0374,-0.0686,0.0686,-1.2000,-0.1800,0.6400,0.2200,0.0152,-0.0339,0.0059,1220,1480,1497,1502,1000,1000,1505,1000,1000,1505,1205,1498,1139,0.0346,-0.0370,-0.0405,-0.0083,-0.0010,0.9998,0.2750,0.2328,0.1767,0.1955,0.2204,0.0082,0.0438,0.2204,0.0082,0.0438,0.3000,0.0600,0.0002,0,-2.2635,-143.5000,-0.0060,-2.2635,-143.5000,-0.0060
-7.1733,15.1270,-1.0327,-0.0686,-0.0000,-1.2000,-0.1800,0.6400,0.2290,0.0152,-0.0338,0.0059,1229,1480,1497,1502,1000,1000,1505,1000,1000,1505,1205,1498,1139,0.0373,-0.0482,-0.0590,-0.0080,-0.0040,0.9963,0.2840,0.2417,0.1859,0.2044,0.2204,0.0082,0.0438,0.2204,0.0082,0.0438,0.3000,0.0600,0.0002,0,-2.2635,-143.5000,-0.0060,-2.2635,-143.5000,-0.0060
-7.1523,15.0844,-1.0282,-0.0686,-0.0000,-1.2000,-0.1800,0.6400,0.2310,0.0152,-0.0338,0.0060,1231,1480,1497,1502,1000,1000,1505,1000,1000,1505,1205,1498,1139,0.0124,-0.0575,-0.0904,-0.0090,-0.0014,0.9942,0.2859,0.2436,0.1881,0.2064,0.2204,0.0082,0.0438,0.2204,0.0082,0.0438,0.3000,0.0600,0.0002,0,-2.2635,-143.5000,-0.0060,-2.2635,-143.5000,-0.0060
-7.1311,15.0418,-1.0230,-0.0686,0.1371,-1.2000,-0.1800,0.6400,0.2500,0.0151,-0.0336,0.0058,1256,1481,1499,1504,1000,1000,1505,1000,1000,1505,1205,1498,1139,-0.0071,-0.1172,-0.0266,-0.0103,0.0006,0.9970,0.3046,0.2627,0.2070,0.2257,0.2204,0.0082,0.0438,0.2204,0.0082,0.0438,0.3000,0.0600,0.0002,0,-2.2635,-143.5000,-0.0060,-2.2635,-143.5000,-0.0060
-7.1097,14.9994,-1.0175,0.0000,-0.0686,-1.2000,-0.1800,0.6400,0.2560,0.0151,-0.0336,0.0045,1256,1480,1497,1502,1000,1000,1505,1000,1000,1505,1205,1498,1139,0.0117,-0.0915,0.0712,-0.0090,-0.0041,0.9961,0.3092,0.2700,0.2119,0.2330,0.2204,0.0082,0.0438,0.2204,0.0082,0.0438,0.3000,0.0600,0.0002,0,-2.2635,-143.5000,-0.0060,-2.2635,-143.5000,-0.0060
-7.0880,14.9566,-1.0118,-0.0686,-0.0000,-1.2000,-0.1800,0.6400,0.2560,0.0150,-0.0335,0.0055,1256,1480,1497,1502,1000,1000,1505,1000,1000,1505,1205,1498,1139,0.0094,-0.1272,0.0738,-0.0115,-0.0024,0.9976,0.3100,0.2689,0.2130,0.2320,0.2204,0.0082,0.0438,0.2204,0.0082,0.0438,0.3000,0.0600,0.0002,0,-2.2635,-143.5000,-0.0060,-2.2635,-143.5000,-0.0060
-7.0663,14.9144,-1.0062,0.1371,-0.0686,-1.2000,-0.1800,0.6400,0.2560,0.0150,-0.0334,0.0059,1256,1480,1497,1502,1000,1000,1505,1000,1000,1505,1205,1498,1139,0.0462,-0.0333,-0.0403,-0.0063,-0.0020,0.9947,0.3103,0.2686,0.2135,0.2316,0.2204,0.0082,0.0438,0.2204,0.0082,0.0438,0.3000,0.0600,0.0002,0,-2.2635,-143.5000,-0.0060,-2.2635,-143.5000,-0.0060
-7.0452,14.8724,-1.0010,-0.0686,-0.0000,-1.2000,-0.1800,0.6400,0.2560,0.0149,-0.0334,0.0056,1256,1480,1497,1502,1000,1000,1505,1000,1000,1505,1205,1498,1139,0.0582,-0.0278,0.0401,-0.0115,-0.0006,0.9979,0.3099,0.2688,0.2133,0.2319,0.2204,0.0082,0.0438,0.2204,0.0082,0.0438,0.3000,0.0600,0.0002,0,-2.2635,-143.5000,-0.0060,-2.2635,-143.5000,-0.0060
-7.0232,14.8304,-0.9944,-0.0686,-0.0000,-1.2000,-0.1800,0.6400,0.2560,0.0149,-0.0333,0.0054,1256,1480,1497,1502,1000,1000,1505,1000,1000,1505,1205,1498,1139,0.0521,-0.0668,0.1061,-0.0100,-0.0006,0.9962,0.3095,0.2690,0.2133,0.2322,0.2204,0.0082,0.0438,0.2204,0.0082,0.0438,0.3000,0.0600,0.0002,0,-2.2635,-143.5000,-0.0060,-2.2635,-143.5000,-0.0060
-7.0018,14.7882,-0.9885,-0.0686,-0.0000,-1.2000,-0.1800,0.6400,0.2560,0.0148,-0.0332,0.0057,1258,1481,1499,1504,1000,1000,1505,1000,1000,1505,1205,1498,1139,-0.0030,-0.0756,0.0080,-0.0090,-0.0024,0.9981,0.3097,0.2686,0.2137,0.2319,0.2204,0.0082,0.0438,0.2204,0.0082,0.0438,0.3000,0.0600,0.0002,0,-2.2635,-143.5000,-0.0060,-2.2635,-143.5000,-0.0060
-6.9808,14.7455,-0.9829,-0.0686,-0.0686,-1.2000,-0.1800,0.6400,0.2560,0.0148,-0.0331,0.0047,1256,1480,1497,1502,1000,1000,1505,1000,1000,1505,1205,1498,1139,0.0017,-0.1089,0.0331,-0.0086,-0.0039,0.9973,0.3086,0.2696,0.2128,0.2330,0.2204,0.0082,0.0438,0.2204,0.0082,0.0438,0.3000,0.0600,0.0002,0,-2.2635,-143.5000,-0.0060,-2.2635,-143.5000,-0.0060
-6.9600,14.7027,-0.9776,0.0000,-0.0000,-1.2000,-0.1800,0.6400,0.2560,0.0147,-0.0330,0.0058,1256,1480,1497,1502,1000,1000,1505,1000,1000,1505,1205,1498,1139,0.0149,-0.1058,-0.0205,-0.0073,-0.0036,0.9998,0.3096,0.2684,0.2141,0.2319,0.2204,0.0082,0.0438,0.2204,0.0082,0.0438,0.3000,0.0600,0.0002,0,-2.2635,-143.5000,-0.0060,-2.2635,-143.5000,-0.0060
-6.9388,14.6607,-0.9724,0.0000,-0.0000,-1.2000,-0.1800,0.6400,0.2560,0.0147,-0.0330,0.0058,1256,1480,1497,1502,1000,1000,1505,1000,1000,1505,1205,1498,1139,0.0781,0.0011,-0.0065,-0.0075,-0.0031,0.9955,0.3094,0.2685,0.2141,0.2319,0.2204,0.0082,0.0438,0.2204,0.0082,0.0438,0.3000,0.0600,0.0002,0,-2.2635,-143.5000,-0.0060,-2.2635,-143.5000,-0.0060
-6.9175,14.6185,-0.9668,-0.0686,-0.0000,-1.2000,-0.1800,0.6400,0.2560,0.0146,-0.0329,0.0058,1256,1480,1497,1502,1000,1000,1505,1000,1000,1505,1205,1498,1139,0.0225,-0.0650,0.0112,-0.0097,-0.0015,0.9988,0.3093,0.2684,0.2143,0.2320,0.2204,0.0082,0.0438,0.2204,0.0082,0.0438,0.3000,0.0600,0.0002,0,-2.2635,-143.5000,-0.0060,-2.2635,-143.5000,-0.0060
-6.8956,14.5754,-0.9610,0.0000,-0.0000,-1.2000,-0.1800,0.6400,0.2560,0.0146,-0.0328,0.0057,1256,1480,1497,1502,1000,1000,1505,1000,1000,1505,1205,1498,1139,0.0419,-0.1345,0.0266,-0.0116,-0.0020,0.9961,0.3090,0.2685,0.2144,0.2321,0.2204,0.0082,0.0438,0.2204,0.0082,0.0438,0.3000,0.0600,0.0002,0,-2.2635,-143.5000,-0.0060,-2.2635,-143.5000,-0.0060
-6.8736,14.5330,-0.9554,0.0000,-0.0686,-1.2000,-0.1800,0.6400,0.2560,0.0145,-0.0327,0.0058,1258,1481,1499,1504,1000,1000,1505,1000,1000,1505,1205,1498,1139,0.0512,-0.0752,-0.0018,-0.0101,-0.0022,0.9959,0.3090,0.2684,0.2146,0.2320,0.2204,0.0082,0.0438,0.2204,0.0082,0.0438,0.3000,0.0600,0.0002,0,-2.2635,-143.5000,-0.0060,-2.2635,-143.5000,-0.0060
-6.8527,14.4906,-0.9502,0.0000,-0.0000,-1.2000,-0.1800,0.6400,0.2560,0.0145,-0.0326,0.0042,1256,1480,1497,1502,1000,1000,1505,1000,1000,1505,1205,1498,1139,0.0281,-0.0048,0.1381,-0.0026,-0.0100,0.9949,0.3074,0.2699,0.2131,0.2336,0.2204,0.0082,0.0438,0.2204,0.0082,0.0438,0.3000,0.0600,0.0002,0,-2.2635,-143.5000,-0.0060,-2.2635,-143.5000,-0.0060
-6.8260,14.4501,-0.9329,-0.0686,-0.0000,-1.2000,-0.1800,0.6400,0.2560,0.0145,-0.0325,0.0016,1256,1480,1497,1502,1000,1000,1505,1000,1000,1505,1205,1498,1139,-0.1077,-0.2549,1.4414,-0.0130,-0.0058,1.0053,0.3045,0.2724,0.2106,0.2364,0.2204,0.0082,0.0438,0.2204,0.0082,0.0438,0.3000,0.0600,0.0002,0,-2.2635,-143.5000,-0.0060,-2.2635,-143.5000,-0.0060
-6.8043,14.4071,-0.9229,-0.0686,-0.0000,-1.2000,-0.1800,0.6400,0.2560,0.0144,-0.0326,0.0071,1256,1480,1497,1502,1000,1000,1505,1000,1000,1505,1205,1498,1139,0.0159,0.2377,-0.3713,-0.0167,0.0016,0.9959,0.3101,0.2671,0.2161,0.2307,0.2204,0.0082,0.0438,0.2204,0.0082,0.0438,0.3000,0.0600,0.0002,0,-2.2635,-143.5000,-0.0060,-2.2635,-143.5000,-0.0060
-6.7862,14.3617,-0.9266,0.0000,0.0686,-1.2000,-0.1800,0.6400,0.2560,0.0143,-0.0322,0.0082,1256,1480,1497,1502,1000,1000,1505,1000,1000,1505,1205,1498,1139,0.0444,-0.3894,-0.8761,-0.0035,0.0110,0.9953,0.3108,0.2657,0.2176,0.2299,0.2204,0.0082,0.0438,0.2204,0.0082,0.0438,0.3000,0.0600,0.0002,0,-2.2635,-143.5000,-0.0060,-2.2635,-143.5000,-0.0060
-6.7652,14.3207,-0.9252,-0.0686,0.0686,-1.2000,-0.1800,0.6400,0.2560,0.0143,-0.0324,0.0068,1256,1480,1497,1502,1000,1000,1505,1000,1000,1505,1205,1498,1139,0.0267,0.1067,-0.2141,0.0083,-0.0269,1.0070,0.3094,0.2673,0.2161,0.2312,0.2204,0.0082,0.0438,0.2204,0.0082,0.0438,0.3000,0.0600,0.0002,0,-2.2635,-143.5000,-0.0060,-2.2635,-143.5000,-0.0060
-6.7455,14.2767,-0.9323,0.0686,-0.0000,-1.2000,-0.1800,0.6400,0.2560,0.0143,-0.0322,0.0102,1256,1481,1499,1504,1000,1000,1505,1000,1000,1505,1205,1498,1139,-0.0848,-0.1127,-1.4909,-0.0093,-0.0065,1.0024,0.3127,0.2637,0.2197,0.2279,0.2204,0.0082,0.0438,0.2204,0.0082,0.0438,0.3000,0.0600,0.0002,0,-2.2635,-143.5000,-0.0060,-2.2635,-143.5000,-0.0060
-6.7295,14.2327,-0.9346,-0.0686,0.0686,-1.2000,-0.1800,0.6400,0.2560,0.0143,-0.0321,0.0035,1256,1480,1497,1502,1000,1000,1505,1000,1000,1505,1205,1498,1139,-0.1130,-0.0669,0.3483,-0.0210,0.0026,0.9887,0.3060,0.2703,0.2131,0.2346,0.2204,0.0082,0.0438,0.2204,0.0082,0.0438,0.3000,0.0600,0.0002,0,-2.2635,-143.5000,-0.0060,-2.2635,-143.5000,-0.0060
-6.7043,14.1919,-0.9214,-0.0686,0.0686,-1.2000,-0.1800,0.6400,0.2560,0.0142,-0.0321,0.0049,1256,1480,1497,1502,1000,1000,1505,1000,1000,1505,1205,1498,1139,0.0074,-0.0099,0.4080,-0.0180,0.0086,1.0139,0.3072,0.2690,0.2147,0.2332,0.2204,0.0082,0.0438,0.2204,0.0082,0.0438,0.3000,0.0600,0.0002,0,-2.2635,-143.5000,-0.0060,-2.2635,-143.5000,-0.0060
-6.6817,14.1496,-0.9187,0.0686,-0.0000,-1.2000,-0.1800,0.6400,0.2560,0.0140,-0.0320,0.0077,1256,1480,1497,1502,1000,1000,1505,1000,1000,1505,1205,1498,1139,0.2120,0.0117,-0.6042,0.0125,-0.0028,0.9876,0.3097,0.2663,0.2176,0.2304,0.2204,0.0082,0.0438,0.2204,0.0082,0.0438,0.3000,0.0600,0.0002,0,-2.2635,-143.5000,-0.0060,-2.2635,-143.5000,-0.0060
-6.6631,14.1051,-0.9191,-0.0686,-0.0686,-1.2000,-0.1800,0.6400,0.2560,0.0140,-0.0318,0.0062,1256,1480,1497,1502,1000,1000,1505,1000,1000,1505,1205,1498,1139,0.2506,-0.1430,-0.1654,-0.0130,-0.0112,1.0044,0.3080,0.2677,0.2164,0.2319,0.2204,0.0082,0.0438,0.2204,0.0082,0.0438,0.3000,0.0600,0.0002,0,-2.2635,-143.5000,-0.0060,-2.2635,-143.5000,-0.0060
-6.6415,14.0632,-0.9085,-0.0686,0.0686,-1.2000,-0.1800,0.6400,0.2560,0.0141,-0.0318,0.0031,1256,1480,1497,1502,1000,1000,1505,1000,1000,1505,1205,1498,1139,-0.2208,-0.0355,0.9038,-0.0193,-0.0005,0.9977,0.3050,0.2706,0.2131,0.2353,0.2204,0.0082,0.0438,0.2204,0.0082,0.0438,0.3000,0.0600,0.0002,0,-2.2635,-143.5000,-0.0060,-2.2635,-143.5000,-0.0060
-6.6162,14.0229,-0.8954,-0.0686,0.0686,-1.2000,-0.1800,0.6400,0.2560,0.0140,-0.0317,0.0062,1256,1481,1499,1504,1000,1000,1505,1000,1000,1505,1205,1498,1139,0.0214,-0.1266,0.0046,-0.0092,0.0036,1.0039,0.3078,0.2676,0.2165,0.2321,0.2204,0.0082,0.0438,0.2204,0.0082,0.0438,0.3000,0.0600,0.0002,0,-2.2635,-143.5000,-0.0060,-2.2635,-143.5000,-0.0060
-6.5972,13.9789,-0.8962,0.0000,-0.0000,-1.2000,-0.1800,0.6400,0.2560,0.0139,-0.0317,0.0057,1256,1480,1497,1502,1000,1000,1505,1000,1000,1505,1205,1498,1139,0.0029,0.0354,-0.3611,0.0081,-0.0047,1.0028,0.3074,0.2680,0.2161,0.2325,0.2204,0.0082,0.0438,0.2204,0.0082,0.0438,0.3000,0.0600,0.0002,0,-2.2635,-143.5000,-0.0060,-2.2635,-143.5000,-0.0060
-6.5758,13.9374,-0.8853,0.0686,-0.0000,-1.2000,-0.1800,0.6400,0.2560,0.0139,-0.0316,0.0032,1256,1480,1497,1502,1000,1000,1505,1000,1000,1505,1205,1498,1139,0.1037,-0.0894,0.9060,-0.0232,0.0065,1.0099,0.3046,0.2705,0.2138,0.2351,0.2204,0.0082,0.0438,0.2204,0.0082,0.0438,0.3000,0.0600,0.0002,0,-2.2635,-143.5000,-0.0060,-2.2635,-143.5000,-0.0060
-6.5510,13.8951,-0.8734,0.0000,0.0686,-1.2000,-0.1800,0.6400,0.2560,0.0138,-0.0315,0.0052,1256,1480,1497,1502,1000,1000,1505,1000,1000,1505,1205,1498,1139,0.2043,-0.0370,0.2616,-0.0142,-0.0002,0.9992,0.3064,0.2686,0.2159,0.2331,0.2204,0.0082,0.0438,0.2204,0.0082,0.0438,0.3000,0.0600,0.0002,0,-2.2635,-143.5000,-0.0060,-2.2635,-143.5000,-0.0060
-6.5303,13.8523,-0.8703,-0.1371,-0.0000,-1.2000,-0.1800,0.6400,0.2560,0.0138,-0.0314,0.0069,1256,1480,1497,1502,1000,1000,1505,1000,1000,1505,1205,1498,1139,0.0181,-0.1366,-0.3536,0.0055,-0.0046,0.9896,0.3080,0.2667,0.2177,0.2315,0.2204,0.0082,0.0438,0.2204,0.0082,0.0438,0.3000,0.0600,0.0002,0,-2.2635,-143.5000,-0.0060,-2.2635,-143.5000,-0.0060
-6.5095,13.8103,-0.8643,0.0000,-0.0686,-1.2000,-0.1800,0.6400,0.2560,0.0137,-0.0314,0.0040,1256,1480,1497,1502,1000,1000,1505,1000,1000,1505,1205,1498,1139,0.0702,0.0392,0.5948,-0.0159,-0.0049,1.0027,0.3051,0.2697,0.2149,0.2344,0.2204,0.0082,0.0438,0.2204,0.0082,0.0438,0.3000,0.0600,0.0002,0,-2.2635,-143.5000,-0.0060,-2.2635,-143.5000,-0.0060
-6.4875,13.7684,-0.8534,-0.0686,-0.0000,-1.2000,-0.1800,0.6400,0.2560,0.0138,-0.0313,0.0046,1256,1481,1499,1504,1000,1000,1505,1000,1000,1505,1205,1498,1139,-0.1820,0.0182,0.4361,-0.0148,0.0009,0.9942,0.3057,0.2689,0.2156,0.2339,0.2204,0.0082,0.0438,0.2204,0.0082,0.0438,0.3000,0.0600,0.0002,0,-2.2635,-143.5000,-0.0060,-2.2635,-143.5000,-0.0060
-6.4672,13.7261,-0.8501,0.0000,-0.0000,-1.2000,-0.1800,0.6400,0.2560,0.0136,-0.0311,0.0071,1256,1480,1497,1502,1000,1000,1505,1000,1000,1505,1205,1498,1139,0.1218,-0.1837,-0.7101,-0.0091,-0.0109,0.9949,0.3078,0.2664,0.2184,0.2314,0.2204,0.0082,0.0438,0.2204,0.0082,0.0438,0.3000,0.0600,0.0002,0,-2.2635,-143.5000,-0.0060,-2.2635,-143.5000,-0.0060
-6.4462,13.6829,-0.8493,0.0000,-0.0000,-1.2000,-0.1800,0.6400,0.2560,0.0136,-0.0311,0.0058,1256,1480,1497,1502,1000,1000,1505,1000,1000,1505,1205,1498,1139,-0.0118,-0.0406,-0.0036,-0.0082,-0.0112,0.9972,0.3065,0.2676,0.2171,0.2327,0.2204,0.0082,0.0438,0.2204,0.0082,0.0438,0.3000,0.0600,0.0002,0,-2.2635,-143.5000,-0.0060,-2.2635,-143.5000,-0.0060
-6.4252,13.6396,-0.8409,0.0000,-0.0000,-1.2000,-0.1800,0.6400,0.2560,0.0136,-0.0310,0.0047,1256,1480,1497,1502,1000,1000,1505,1000,1000,1505,1205,1498,1139,-0.0567,-0.0485,0.4192,-0.0096,0.0130,0.9941,0.3053,0.2687,0.2161,0.2339,0.2204,0.0082,0.0438,0.2204,0.0082,0.0438,0.3000,0.0600,0.0002,0,-2.2635,-143.5000,-0.0060,-2.2635,-143.5000,-0.0060
-6.4044,13.5965,-0.8380,0.0000,-0.0000,-1.2000,-0.1800,0.6400,0.2560,0.0135,-0.0308,0.0082,1256,1480,1497,1502,1000,1000,1505,1000,1000,1505,1205,1498,1139,0.1601,-0.2560,-0.7584,-0.0097,-0.0056,1.0026,0.3085,0.2651,0.2200,0.2304,0.2204,0.0082,0.0438,0.2204,0.0082,0.0438,0.3000,0.0600,0.0002,0,-2.2635,-143.5000,-0.0060,-2.2635,-143.5000,-0.0060
-6.3838,13.5534,-0.8401,-0.0686,-0.0000,-1.2000,-0.1800,0.6400,0.2560,0.0135,-0.0309,0.0070,1256,1480,1497,1502,1000,1000,1505,1000,1000,1505,1205,1498,1139,0.0484,0.0899,-0.4286,-0.0029,-0.0155,1.0034,0.3074,0.2664,0.2187,0.2315,0.2204,0.0082,0.0438,0.2204,0.0082,0.0438,0.3000,0.0600,0.0002,0,-2.2635,-143.5000,-0.0060,-2.2635,-143.5000,-0.0060
-6.3633,13.5102,-0.8357,0.0000,-0.0686,-1.2000,-0.1800,0.6400,0.2560,0.0134,-0.0307,0.0058,1256,1481,1499,1504,1000,1000,1505,1000,1000,1505,1205,1498,1139,0.0155,-0.0655,0.0328,-0.0061,0.0074,0.9952,0.3060,0.2675,0.2177,0.2328,0.2204,0.0082,0.0438,0.2204,0.0082,0.0438,0.3000,0.0600,0.0002,0,-2.2635,-143.5000,-0.0060,-2.2635,-143.5000,-0.0060
-6.3421,13.4686,-0.8324,0.0686,-0.0000,-1.2000,-0.1800,0.6400,0.2560,0.0134,-0.0307,0.0064,1256,1480,1497,1502,1000,1000,1505,1000,1000,1505,1205,1498,1139,0.0484,0.0115,-0.4428,-0.0300,0.0098,1.0037,0.3065,0.2669,0.2183,0.2323,0.2204,0.0082,0.0438,0.2204,0.0082,0.0438,0.3000,0.0600,0.0002,0,-2.2635,-143.5000,-0.0060,-2.2635,-143.5000,-0.0060
-6.3227,13.4254,-0.8337,0.0686,-0.0000,-1.2000,-0.1800,0.6400,0.2560,0.0133,-0.0306,0.0070,1256,1480,1497,1502,1000,1000,1505,1000,1000,1505,1205,1498,1139,0.1184,0.0344,-0.3903,-0.0065,-0.0137,0.9986,0.3069,0.2664,0.2191,0.2317,0.2204,0.0082,0.0438,0.2204,0.0082,0.0438,0.3000,0.0600,0.0002,0,-2.2635,-143.5000,-0.0060,-2.2635,-143.5000,-0.0060
-6.3014,13.3825,-0.8310,0.0000,-0.0686,-1.2000,-0.1800,0.6400,0.2560,0.0133,-0.0305,0.0053,1256,1480,1497,1502,1000,1000,1505,1000,1000,1505,1205,1498,1139,0.0209,-0.0881,0.1613,0.0170,-0.0129,0.9997,0.3051,0.2679,0.2175,0.2335,0.2204,0.0082,0.0438,0.2204,0.0082,0.0438,0.3000,0.0600,0.0002,0,-2.2635,-143.5000,-0.0060,-2.2635,-143.5000,-0.0060
-6.2800,13.3409,-0.8253,-0.0686,0.0686,-1.2000,-0.1800,0.6400,0.2560,0.0132,-0.0304,0.0066,1256,1480,1497,1502,1000,1000,1505,1000,1000,1505,1205,1498,1139,0.0202,-0.0447,-0.2170,-0.0185,0.0070,0.9928,0.3063,0.2666,0.2189,0.2322,0.2204,0.0082,0.0438,0.2204,0.0082,0.0438,0.3000,0.0600,0.0002,0,-2.2635,-143.5000,-0.0060,-2.2635,-143.5000,-0.0060
-6.2597,13.2981,-0.8237,0.0000,-0.0000,-1.2000,-0.1800,0.6400,0.2560,0.0133,-0.0304,0.0076,1256,1480,1497,1502,1000,1000,1505,1000,1000,1505,1205,1498,1139,-0.1695,0.0439,-0.5647,-0.0260,-0.0104,1.0025,0.3073,0.2655,0.2200,0.2313,0.2204,0.0082,0.0438,0.2204,0.0082,0.0438,0.3000,0.0600,0.0002,0,-2.2635,-143.5000,-0.0060,-2.2635,-143.5000,-0.0060
-6.2386,13.2554,-0.8204,0.0000,-0.0000,-1.2000,-0.1800,0.6400,0.2560,0.0132,-0.0302,0.0054,1256,1481,1499,1504,1000,1000,1505,1000,1000,1505,1205,1498,1139,-0.0719,-0.1287,0.1757,0.0026,0.0137,0.9889,0.3048,0.2677,0.2180,0.2336,0.2204,0.0082,0.0438,0.2204,0.0082,0.0438,0.3000,0.0600,0.0002,0,-2.2635,-143.5000,-0.0060,-2.2635,-143.5000,-0.0060
-6.2175,13.2129,-0.8132,-0.1371,-0.0686,-1.2000,-0.1800,0.6400,0.2560,0.0130,-0.0302,0.0049,1256,1480,1497,1502,1000,1000,1505,1000,1000,1505,1205,1498,1139,0.1878,-0.0657,0.0661,0.0018,-0.0110,1.0027,0.3041,0.2682,0.2177,0.2340,0.2204,0.0082,0.0438,0.2204,0.0082,0.0438,0.3000,0.0600,0.0002,0,-2.2635,-143.5000,-0.0060,-2.2635,-143.5000,-0.0060
-6.1968,13.1696,-0.8078,-0.0686,-0.0686,-1.2000,-0.1800,0.6400,0.2560,0.0131,-0.0301,0.0059,1256,1480,1497,1502,1000,1000,1505,1000,1000,1505,1205,1498,1139,0.0085,0.0608,0.0471,-0.0205,-0.0197,0.9995,0.3051,0.2672,0.2187,0.2331,0.2204,0.0082,0.0438,0.2204,0.0082,0.0438,0.3000,0.0600,0.0002,0,-2.2635,-143.5000,-0.0060,-2.2635,-143.5000,-0.0060
-6.1748,13.1268,-0.8018,0.0000,-0.0686,-1.2000,-0.1800,0.6400,0.2560,0.0131,-0.0299,0.0048,1256,1480,1497,1502,1000,1000,1505,1000,1000,1505,1205,1498,1139,-0.1098,-0.2272,0.3899,-0.0086,-0.0015,0.9947,0.3037,0.2681,0.2178,0.2344,0.2204,0.0082,0.0438,0.2204,0.0082,0.0438,0.3000,0.0600,0.0002,0,-2.2635,-143.5000,-0.0060,-2.2635,-143.5000,-0.0060
-6.1523,13.0857,-0.7939,0.0000,-0.0000,-1.2000,-0.1800,0.6400,0.2560,0.0130,-0.0299,0.0050,1256,1480,1497,1502,1000,1000,1505,1000,1000,1505,1205,1498,1139,-0.0553,-0.1055,0.3291,-0.0055,0.0002,0.9980,0.3039,0.2679,0.2181,0.2341,0.2204,0.0082,0.0438,0.2204,0.0082,0.0438,0.3000,0.0600,0.0002,0,-2.2635,-143.5000,-0.0060,-2.2635,-143.5000,-0.0060
-6.1309,13.0430,-0.7875,-0.0686,0.0686,-1.2000,-0.1800,0.6400,0.2560,0.0129,-0.0299,0.0057,1256,1480,1497,1502,1000,1000,1505,1000,1000,1505,1205,1498,1139,0.0482,0.0480,0.0739,-0.0090,-0.0014,0.9945,0.3045,0.2673,0.2189,0.2333,0.2204,0.0082,0.0438,0.2204,0.0082,0.0438,0.3000,0.0600,0.0002,0,-2.2635,-143.5000,-0.0060,-2.2635,-143.5000,-0.0060
-6.1099,12.9994,-0.7820,-0.0686,-0.0000,-1.2000,-0.1800,0.6400,0.2560,0.0129,-0.0297,0.0052,1256,1481,1499,1504,1000,1000,1505,1000,1000,1505,1205,1498,1139,0.0424,-0.2385,0.2312,-0.0134,-0.0039,0.9939,0.3037,0.2676,0.2187,0.2340,0.2204,0.0082,0.0438,0.2204,0.0082,0.0438,0.3000,0.0600,0.0002,0,-2.2635,-143.5000,-0.0060,-2.2635,-143.5000,-0.0060
-6.0882,12.9567,-0.7738,0.0000,0.0686,-1.2000,-0.1800,0.6400,0.2560,0.0128,-0.0296,0.0041,1256,1480,1497,1502,1000,1000,1505,1000,1000,1505,1205,1498,1139,0.0531,-0.1926,0.3191,-0.0093,-0.0052,0.9942,0.3025,0.2688,0.2176,0.2351,0.2204,0.0082,0.0438,0.2204,0.0082,0.0438,0.3000,0.0600,0.0002,0,-2.2635,-143.5000,-0.0060,-2.2635,-143.5000,-0.0060
-6.0663,12.9141,-0.7676,0.0000,0.1371,-1.2000,-0.1800,0.6400,0.2560,0.0128,-0.0295,0.0064,1256,1480,1497,1502,1000,1000,1505,1000,1000,1505,1205,1498,1139,-0.0758,-0.1525,-0.1124,-0.0131,-0.0128,0.9924,0.3047,0.2664,0.2200,0.2329,0.2204,0.0082,0.0438,0.2204,0.0082,0.0438,0.3000,0.0600,0.0002,0,-2.2635,-143.5000,-0.0060,-2.2635,-143.5000,-0.0060
-6.0453,12.8704,-0.7630,0.0000,-0.0000,-1.2000,-0.1800,0.6400,0.2560,0.0128,-0.0294,0.0058,1256,1480,1497,1502,1000,1000,1505,1000,1000,1505,1205,1498,1139,-0.1270,-0.2348,0.0456,-0.0087,-0.0007,0.9984,0.3040,0.2668,0.2196,0.2335,0.2204,0.0082,0.0438,0.2204,0.0082,0.0438,0.3000,0.0600,0.0002,0,-2.2635,-143.5000,-0.0060,-2.2635,-143.5000,-0.0060
-6.0241,12.8273,-0.7563,-0.0686,-0.0686,-1.2000,-0.1800,0.6400,0.2560,0.0127,-0.0294,0.0054,1256,1480,1497,1502,1000,1000,1505,1000,1000,1505,1205,1498,1139,-0.0341,-0.1282,0.2110,-0.0170,0.0029,0.9953,0.3034,0.2673,0.2193,0.2339,0.2204,0.0082,0.0438,0.2204,0.0082,0.0438,0.3000,0.0600,0.0002,0,-2.2635,-143.5000,-0.0060,-2.2635,-143.5000,-0.0060
-6.0032,12.7841,-0.7510,-0.0686,-0.0000,-1.2000,-0.1800,0.6400,0.2560,0.0126,-0.0293,0.0065,1256,1480,1497,1502,1000,1000,1505,1000,1000,1505,1205,1498,1139,0.0134,-0.0563,-0.1593,-0.0134,-0.0033,0.9990,0.3045,0.2662,0.2205,0.2328,0.2204,0.0082,0.0438,0.2204,0.0082,0.0438,0.3000,0.0600,0.0002,0,-2.2635,-143.5000,-0.0060,-2.2635,-143.5000,-0.0060
-5.9822,12.7409,-0.7480,0.0000,-0.0000,-1.2000,-0.1800,0.6400,0.2560,0.0126,-0.0293,0.0060,1256,1481,1499,1504,1000,1000,1505,1000,1000,1505,1205,1498,1139,0.0463,0.0372,-0.0544,-0.0025,0.0027,1.0055,0.3039,0.2667,0.2201,0.2333,0.2204,0.0082,0.0438,0.2204,0.0082,0.0438,0.3000,0.0600,0.0002,0,-2.2635,-143.5000,-0.0060,-2.2635,-143.5000,-0.0060
-5.9605,12.6992,-0.7424,0.0000,0.0686,-1.2000,-0.1800,0.6400,0.2560,0.0125,-0.0292,0.0046,1256,1480,1497,1502,1000,1000,1505,1000,1000,1505,1205,1498,1139,0.1950,0.0685,0.1336,-0.0095,0.0083,1.0090,0.3023,0.2682,0.2189,0.2346,0.2204,0.0082,0.0438,0.2204,0.0082,0.0438,0.3000,0.0600,0.0002,0,-2.2635,-143.5000,-0.0060,-2.2635,-143.5000,-0.0060
-5.9385,12.6564,-0.7385,-0.0686,-0.0000,-1.2000,-0.1800,0.6400,0.2560,0.0124,-0.0291,0.0066,1256,1480,1497,1502,1000,1000,1505,1000,1000,1505,1205,1498,1139,0.2577,-0.0148,-0.1861,-0.0191,-0.0017,1.0038,0.3041,0.2662,0.2211,0.2327,0.2204,0.0082,0.0438,0.2204,0.0082,0.0438,0.3000,0.0600,0.0002,0,-2.2635,-143.5000,-0.0060,-2.2635,-143.5000,-0.0060
-5.9175,12.6135,-0.7371,-0.0686,0.0686,-1.2000,-0.1800,0.6400,0.2560,0.0124,-0.0291,0.0066,1256,1480,1497,1502,1000,1000,1505,1000,1000,1505,1205,1498,1139,0.1757,0.0752,-0.2178,-0.0109,0.0038,0.9998,0.3040,0.2661,0.2211,0.2327,0.2204,0.0082,0.0438,0.2204,0.0082,0.0438,0.3000,0.0600,0.0002,0,-2.2635,-143.5000,-0.0060,-2.2635,-143.5000,-0.0060
-5.8959,12.5710,-0.7335,0.0000,-0.0000,-1.2000,-0.1800,0.6400,0.2560,0.0124,-0.0290,0.0062,1256,1480,1497,1502,1000,1000,1505,1000,1000,1505,1205,1498,1139,0.0739,0.0654,-0.0479,-0.0042,-0.0097,0.9925,0.3035,0.2664,0.2208,0.2332,0.2204,0.0082,0.0438,0.2204,0.0082,0.0438,0.3000,0.0600,0.0002,0,-2.2635,-143.5000,-0.0060,-2.2635,-143.5000,-0.0060
-5.8759,12.5278,-0.7306,0.0686,-0.0000,-1.2000,-0.1800,0.6400,0.2560,0.0124,-0.0289,0.0066,1256,1480,1497,1502,1000,1000,1505,1000,1000,1505,1205,1498,1139,-0.0719,0.0806,-0.2028,-0.0064,-0.0105,0.9954,0.3039,0.2659,0.2213,0.2329,0.2204,0.0082,0.0438,0.2204,0.0082,0.0438,0.3000,0.0600,0.0002,0,-2.2635,-143.5000,-0.0060,-2.2635,-143.5000,-0.0060
-5.8545,12.4856,-0.7279,-0.0686,0.1371,-1.2000,-0.1800,0.6400,0.2560,0.0124,-0.0288,0.0062,1256,1481,1499,1504,1000,1000,1505,1000,1000,1505,1205,1498,1139,-0.1185,-0.0710,-0.0879,-0.0135,0.0019,0.9991,0.3033,0.2662,0.2211,0.2334,0.2204,0.0082,0.0438,0.2204,0.0082,0.0438,0.3000,0.0600,0.0002,0,-2.2635,-143.5000,-0.0060,-2.2635,-143.5000,-0.0060
-5.8338,12.4426,-0.7241,-0.0686,-0.0000,-1.2000,-0.1800,0.6400,0.2560,0.0122,-0.0286,0.0051,1256,1480,1497,1502,1000,1000,1505,1000,1000,1505,1205,1498,1139,0.1007,-0.1748,-0.0387,-0.0069,-0.0016,0.9975,0.3020,0.2673,0.2203,0.2344,0.2204,0.0082,0.0438,0.2204,0.0082,0.0438,0.3000,0.0600,0.0002,0,-2.2635,-143.5000,-0.0060,-2.2635,-143.5000,-0.0060
-5.8126,12.3998,-0.7199,-0.1371,-0.0686,-1.2000,-0.1800,0.6400,0.2560,0.0122,-0.0286,0.0058,1256,1480,1497,1502,1000,1000,1505,1000,1000,1505,1205,1498,1139,0.1365,-0.1177,0.0644,-0.0127,-0.0011,0.9938,0.3025,0.2666,0.2211,0.2338,0.2204,0.0082,0.0438,0.2204,0.0082,0.0438,0.3000,0.0600,0.0002,0,-2.2635,-143.5000,-0.0060,-2.2635,-143.5000,-0.0060
-5.7905,12.3574,-0.7092,0.0000,-0.0000,-1.2000,-0.1800,0.6400,0.2560,0.0120,-0.0285,-0.0012,1256,1480,1497,1502,1000,1000,1505,1000,1000,1505,1205,1498,1139,0.2839,-0.1715,2.2864,-0.0339,0.0224,1.0180,0.2953,0.2736,0.2143,0.2407,0.2204,0.0082,0.0438,0.2204,0.0082,0.0438,0.3000,0.0600,0.0002,0,-2.2635,-143.5000,-0.0060,-2.2635,-143.5000,-0.0060
-5.7659,12.3146,-0.6659,0.0000,-0.0686,-1.2000,-0.1800,0.6400,0.2560,0.0118,-0.0282,-0.0097,1256,1480,1497,1502,1000,1000,1505,1000,1000,1505,1205,1498,1139,0.7571,-0.5432,5.1232,0.0164,-0.0808,0.9952,0.2863,0.2821,0.2063,0.2492,0.2204,0.0082,0.0438,0.2204,0.0082,0.0438,0.3000,0.0600,0.0002,0,-2.2635,-143.5000,-0.0060,-2.2635,-143.5000,-0.0060
-5.7328,12.2715,-0.6271,-0.1371,-0.0000,-1.2000,-0.1800,0.6400,0.2560,0.0117,-0.0281,0.0020,1256,1480,1497,1502,1000,1000,1505,1000,1000,1505,1205,1498,1139,0.8229,-0.6154,1.4279,-0.0372,-0.0412,0.9920,0.2978,0.2704,0.2182,0.2376,0.2204,0.0082,0.0438,0.2204,0.0082,0.0438,0.3000,0.0600,0.0002,0,-2.2635,-143.5000,-0.0060,-2.2635,-143.5000,-0.0060
-5.6956,12.2167,-0.6231,-0.0686,-0.0686,-1.2000,-0.1800,0.6400,0.2560,0.0111,-0.0277,0.0111,1256,1481,1499,1504,1000,1000,1505,1000,1000,1505,1205,1498,1139,1.8875,-1.3030,-1.6040,-0.0280,0.0245,0.9971,0.3059,0.2615,0.2283,0.2284,0.2204,0.0082,0.0438,0.2204,0.0082,0.0438,0.3000,0.0600,0.0002,0,-2.2635,-143.5000,-0.0060,-2.2635,-143.5000,-0.0060
-5.6667,12.1492,-0.6516,0.0686,-0.1371,-1.2000,-0.1800,0.6400,0.2560,0.0111,-0.0270,0.0179,1256,1480,1497,1502,1000,1000,1505,1000,1000,1505,1205,1498,1139,1.7823,-2.6528,-4.2104,0.0161,-0.0597,1.0043,0.3120,0.2540,0.2358,0.2223,0.2204,0.0082,0.0438,0.2204,0.0082,0.0438,0.3000,0.0600,0.0002,0,-2.2635,-143.5000,-0.0060,-2.2635,-143.5000,-0.0060
-5.6437,12.0843,-0.6956,0.0000,-0.0000,-1.2000,-0.1800,0.6400,0.2560,0.0113,-0.0276,0.0174,1256,1480,1497,1502,1000,1000,1505,1000,1000,1505,1205,1498,1139,1.2874,-0.9628,-3.9294,0.0419,0.0034,0.9955,0.3123,0.2549,0.2346,0.2223,0.2204,0.0082,0.0438,0.2204,0.0082,0.0438,0.3000,0.0600,0.0002,0,-2.2635,-143.5000,-0.0060,-2.2635,-143.5000,-0.0060
-5.6110,12.0431,-0.7180,0.0000,-0.0000,-1.2000,-0.1800,0.6400,0.2560,0.0121,-0.0281,0.0123,1256,1480,1497,1502,1000,1000,1505,1000,1000,1505,1205,1498,1139,-0.6396,0.3929,-2.0366,-0.0849,0.0416,0.9933,0.3085,0.2597,0.2282,0.2277,0.2204,0.0082,0.0438,0.2204,0.0082,0.0438,0.3000,0.0600,0.0002,0,-2.2635,-143.5000,-0.0060,-2.2635,-143.5000,-0.0060
-5.6270,11.9943,-0.7492,0.2057,-0.0000,-1.2000,-0.1800,0.6400,0.2560,0.0123,-0.0275,0.0182,1256,1480,1497,1502,1000,1000,1505,1000,1000,1505,1205,1498,1139,-1.1881,-0.6833,-4.0598,0.0195,-0.0649,0.9817,0.3141,0.2529,0.2344,0.2226,0.2204,0.0082,0.0438,0.2204,0.0082,0.0438,0.3000,0.0600,0.0002,0,-2.2635,-143.5000,-0.0060,-2.2635,-143.5000,-0.0060
-5.6115,11.9823,-0.7718,0.0686,-0.0686,-1.2000,-0.1800,0.6400,0.2560,0.0129,-0.0300,0.0093,1256,1480,1497,1502,1000,1000,1505,1000,1000,1505,1205,1498,1139,-2.6651,4.9414,-1.0868,-0.0193,0.0856,1.0161,0.3082,0.2637,0.2224,0.2297,0.2204,0.0082,0.0438,0.2204,0.0082,0.0438,0.3000,0.0600,0.0002,0,-2.2635,-143.5000,-0.0060,-2.2635,-143.5000,-0.0060
-5.6386,11.9398,-0.7856,0.0000,-0.0686,-1.2000,-0.1800,0.6400,0.2560,0.0117,-0.0265,0.0092,1256,1481,1499,1504,1000,1000,1505,1000,1000,1505,1205,1498,1139,0.2448,-2.7010,-1.1730,-0.0461,-0.1128,1.0185,0.3034,0.2616,0.2269,0.2320,0.2204,0.0082,0.0438,0.2204,0.0082,0.0438,0.3000,0.0600,0.0002,0,-2.2635,-143.5000,-0.0060,-2.2635,-143.5000,-0.0060
-5.5743,11.9264,-0.7800,0.0686,0.0686,-1.2000,-0.1800,0.6400,0.2560,0.0113,-0.0299,0.0055,1256,1480,1497,1502,1000,1000,1505,1000,1000,1505,1205,1498,1139,0.9970,5.0854,0.0987,0.0287,0.0537,0.9655,0.3026,0.2692,0.2203,0.2319,0.2204,0.0082,0.0438,0.2204,0.0082,0.0438,0.3000,0.0600,0.0002,0,-2.2635,-143.5000,-0.0060,-2.2635,-143.5000,-0.0060
-5.5813,11.8658,-0.7821,0.0000,-0.0000,-1.2000,-0.1800,0.6400,0.2560,0.0102,-0.0255,0.0026,1256,1480,1497,1502,1000,1000,1505,1000,1000,1505,1205,1498,1139,3.5375,-4.6686,0.8640,0.0340,0.0527,1.0355,0.2943,0.2687,0.2229,0.2380,0.2204,0.0082,0.0438,0.2204,0.0082,0.0438,0.3000,0.0600,0.0002,0,-2.2635,-143.5000,-0.0060,-2.2635,-143.5000,-0.0060
-5.5066,11.8436,-0.7579,-0.0686,0.0686,-1.2000,-0.1800,0.6400,0.2560,0.0129,-0.0282,0.0048,1256,1480,1497,1502,1000,1000,1505,1000,1000,1505,1205,1498,1139,-3.1753,1.4221,0.7397,-0.0494,-0.1468,0.9907,0.3019,0.2664,0.2197,0.2360,0.2204,0.0082,0.0438,0.2204,0.0082,0.0438,0.3000,0.0600,0.0002,0,-2.2635,-143.5000,-0.0060,-2.2635,-143.5000,-0.0060
-5.4953,11.7566,-0.7419,0.0686,0.0686,-1.2000,-0.1800,0.6400,0.2560,0.0076,-0.0273,-0.0029,1256,1480,1497,1502,1000,1000,1505,1000,1000,1505,1205,1498,1139,8.8738,-0.2052,2.8230,0.0447,0.1759,0.9660,0.2880,0.2786,0.2182,0.2393,0.2204,0.0082,0.0438,0.2204,0.0082,0.0438,0.3000,0.0600,0.0002,0,-2.2635,-143.5000,-0.0060,-2.2635,-143.5000,-0.0060
-5.5038,11.7523,-0.7186,-0.0686,-0.0686,-1.2000,-0.1800,0.6400,0.2560,0.0155,-0.0251,-0.0002,1256,1480,1497,1502,1000,1000,1505,1000,1000,1505,1205,1498,1139,-8.9632,-5.2103,1.9847,0.0146,-0.0287,1.0223,0.2963,0.2658,0.2153,0.2466,0.2204,0.0082,0.0438,0.2204,0.0082,0.0438,0.3000,0.0600,0.0002,0,-2.2635,-143.5000,-0.0060,-2.2635,-143.5000,-0.0060
-5.4477,11.6927,-0.6650,0.0000,0.0686,-1.2000,-0.1800,0.6400,0.2560,0.0094,-0.0304,-0.0080,1256,1481,1499,1504,1000,1000,1505,1000,1000,1505,1205,1498,1139,4.6673,7.3536,4.9362,-0.1803,-0.1767,0.9555,0.2878,0.2851,0.2081,0.2430,0.2204,0.0082,0.0438,0.2204,0.0082,0.0438,0.3000,0.0600,0.0002,0,-2.2635,-143.5000,-0.0060,-2.2635,-143.5000,-0.0060
-5.5025,11.6706,-0.6301,-0.1371,-0.0686,-1.2000,-0.1800,0.6400,0.2560,0.0122,-0.0235,-0.0096,1256,1480,1497,1502,1000,1000,1505,1000,1000,1505,1205,1498,1139,-1.4542,-8.4323,4.6099,0.2080,0.2617,0.9792,0.2820,0.2769,0.2107,0.2543,0.2204,0.0082,0.0438,0.2204,0.0082,0.0438,0.3000,0.0600,0.0002,0,-2.2635,-143.5000,-0.0060,-2.2635,-143.5000,-0.0060
-5.4543,11.6820,-0.5760,-0.0686,0.0686,-1.2000,-0.1800,0.6400,0.2560,0.0136,-0.0303,-0.0032,1256,1480,1497,1502,1000,1000,1505,1000,1000,1505,1205,1498,1139,-4.8521,6.9195,3.3285,-0.1399,-0.2150,1.0223,0.2966,0.2759,0.2090,0.2425,0.2204,0.0082,0.0438,0.2204,0.0082,0.0438,0.3000,0.0600,0.0002,0,-2.2635,-143.5000,-0.0060,-2.2635,-143.5000,-0.0060
-5.4459,11.5993,-0.5361,-0.0686,-0.0000,-1.2000,-0.1800,0.6400,0.2560,0.0081,-0.0260,-0.0044,1256,1480,1497,1502,1000,1000,1505,1000,1000,1505,1205,1498,1139,7.5674,-2.4679,3.5344,-0.0262,0.0603,0.9677,0.2856,0.2783,0.2175,0.2425,0.2204,0.0082,0.0438,0.2204,0.0082,0.0438,0.3000,0.0600,0.0002,0,-2.2635,-143.5000,-0.0060,-2.2635,-143.5000,-0.0060
-5.4629,11.6118,-0.5310,-0.0686,-0.0686,-1.2000,-0.1800,0.6400,0.2560,0.0139,-0.0252,0.0058,1256,1480,1497,1502,1000,1000,1505,1000,1000,1505,1205,1498,1139,-5.5462,-4.2497,-0.0776,0.1374,0.1020,1.0005,0.3009,0.2615,0.2227,0.2388,0.2204,0.0082,0.0438,0.2204,0.0082,0.0438,0.3000,0.0600,0.0002,0,-2.2635,-143.5000,-0.0060,-2.2635,-143.5000,-0.0060
-5.4160,11.5406,-0.5159,-0.1371,-0.1371,-1.2000,-0.1800,0.6400,0.2560,0.0102,-0.0295,0.0087,1256,1480,1497,1502,1000,1000,1505,1000,1000,1505,1205,1498,1139,2.5215,5.8828,-0.5888,-0.2529,-0.2646,1.0114,0.3044,0.2666,0.2249,0.2280,0.2204,0.0082,0.0438,0.2204,0.0082,0.0438,0.3000,0.0600,0.0002,0,-2.2635,-143.5000,-0.0060,-2.2635,-143.5000,-0.0060
-5.4382,11.4969,-0.5311,-0.0686,-0.0000,-1.2000,-0.1800,0.6400,0.2560,0.0102,-0.0231,0.0057,1256,1481,1499,1504,1000,1000,1505,1000,1000,1505,1205,1498,1139,2.7677,-8.6836,-0.0570,0.1940,0.2491,0.9871,0.2950,0.2631,0.2285,0.2374,0.2204,0.0082,0.0438,0.2204,0.0082,0.0438,0.3000,0.0600,0.0002,0,-2.2635,-143.5000,-0.0060,-2.2635,-143.5000,-0.0060
-5.4416,11.4842,-0.5510,-0.1371,-0.0000,-1.2000,-0.1800,0.6400,0.2560,0.0130,-0.0279,0.0150,1256,1480,1497,1502,1000,1000,1505,1000,1000,1505,1205,1498,1139,-3.7222,2.4886,-3.2806,0.0073,-0.0949,0.9570,0.3119,0.2559,0.2300,0.2261,0.2204,0.0082,0.0438,0.2204,0.0082,0.0438,0.3000,0.0600,0.0002,0,-2.2635,-143.5000,-0.0060,-2.2635,-143.5000,-0.0060
-5.4240,11.3991,-0.5580,-0.0686,-0.0000,-1.2000,-0.1800,0.6400,0.2560,0.0103,-0.0270,0.0095,1256,1480,1497,1502,1000,1000,1505,1000,1000,1505,1205,1498,1139,2.4919,0.7872,-0.9812,-0.2113,-0.1896,1.0216,0.3028,0.2632,0.2283,0.2297,0.2204,0.0082,0.0438,0.2204,0.0082,0.0438,0.3000,0.0600,0.0002,0,-2.2635,-143.5000,-0.0060,-2.2635,-143.5000,-0.0060
-5.4412,11.3942,-0.5843,-0.0686,-0.0000,-1.2000,-0.1800,0.6400,0.2560,0.0109,-0.0241,0.0074,1256,1480,1497,1502,1000,1000,1505,1000,1000,1505,1205,1498,1139,1.1400,-5.8729,-0.7084,0.2668,0.2524,0.9610,0.2984,0.2618,0.2284,0.2354,0.2204,0.0082,0.0438,0.2204,0.0082,0.0438,0.3000,0.0600,0.0002,0,-2.2635,-143.5000,-0.0060,-2.2635,-143.5000,-0.0060
-5.4460,11.3739,-0.5943,-0.0686,-0.0000,-1.2000,-0.1800,0.6400,0.2560,0.0121,-0.0290,0.0136,1256,1480,1497,1502,1000,1000,1505,1000,1000,1505,1205,1498,1139,-1.6837,5.4786,-2.3578,-0.1828,-0.1608,1.0405,0.3108,0.2593,0.2284,0.2255,0.2204,0.0082,0.0438,0.2204,0.0082,0.0438,0.3000,0.0600,0.0002,0,-2.2635,-143.5000,-0.0060,-2.2635,-143.5000,-0.0060
-5.4012,11.3068,-0.5943,-0.0686,-0.0000,-1.2000,-0.1800,0.6400,0.2560,0.0102,-0.0252,0.0034,1256,1480,1497,1502,1000,1000,1505,1000,1000,1505,1205,1498,1139,2.6363,-2.8744,0.9947,-0.0913,-0.0883,1.0046,0.2948,0.2677,0.2240,0.2376,0.2204,0.0082,0.0438,0.2204,0.0082,0.0438,0.3000,0.0600,0.0002,0,-2.2635,-143.5000,-0.0060,-2.2635,-143.5000,-0.0060
-5.4283,11.3190,-0.6109,-0.1371,-0.0686,-1.2000,-0.1800,0.6400,0.2560,0.0101,-0.0251,0.0085,1256,1481,1499,1504,1000,1000,1505,1000,1000,1505,1205,1498,1139,2.9129,-3.3515,-1.0738,0.2391,0.2034,0.9786,0.2996,0.2625,0.2293,0.2326,0.2204,0.0082,0.0438,0.2204,0.0082,0.0438,0.3000,0.0600,0.0002,0,-2.2635,-143.5000,-0.0060,-2.2635,-143.5000,-0.0060
-5.4097,11.2743,-0.6068,-0.0686,-0.0000,-1.2000,-0.1800,0.6400,0.2560,0.0139,-0.0291,0.0104,1256,1480,1497,1502,1000,1000,1505,1000,1000,1505,1205,1498,1139,-5.8691,6.0594,-1.4822,-0.3041,-0.2898,1.0424,0.3094,0.2608,0.2234,0.2304,0.2204,0.0082,0.0438,0.2204,0.0082,0.0438,0.3000,0.0600,0.0002,0,-2.2635,-143.5000,-0.0060,-2.2635,-143.5000,-0.0060
-5.3930,11.2360,-0.6125,0.0000,-0.0000,-1.2000,-0.1800,0.6400,0.2560,0.0085,-0.0240,0.0039,1256,1480,1497,1502,1000,1000,1505,1000,1000,1505,1205,1498,1139,6.3416,-5.3655,0.7594,0.1106,0.1003,0.9422,0.2924,0.2676,0.2274,0.2366,0.2204,0.0082,0.0438,0.2204,0.0082,0.0438,0.3000,0.0600,0.0002,0,-2.2635,-143.5000,-0.0060,-2.2635,-143.5000,-0.0060
-5.4541,11.2450,-0.6288,-0.0686,0.0686,-1.2000,-0.1800,0.6400,0.2560,0.0135,-0.0275,0.0116,1256,1480,1497,1502,1000,1000,1505,1000,1000,1505,1205,1498,1139,-4.7195,2.5215,-2.0183,0.1056,0.1573,1.0079,0.3086,0.2584,0.2266,0.2304,0.2204,0.0082,0.0438,0.2204,0.0082,0.0438,0.3000,0.0600,0.0002,0,-2.2635,-143.5000,-0.0060,-2.2635,-143.5000,-0.0060
-5.4114,11.2027,-0.6240,-0.1371,0.1371,-1.2000,-0.1800,0.6400,0.2560,0.0124,-0.0275,0.0097,1256,1480,1497,1502,1000,1000,1505,1000,1000,1505,1205,1498,1139,-2.4414,2.7263,-0.8878,-0.2953,-0.2618,0.9718,0.3056,0.2614,0.2258,0.2312,0.2204,0.0082,0.0438,0.2204,0.0082,0.0438,0.3000,0.0600,0.0002,0,-2.2635,-143.5000,-0.0060,-2.2635,-143.5000,-0.0060
-5.4529,11.1860,-0.6347,-0.0686,-0.0686,-1.2000,-0.1800,0.6400,0.2560,0.0089,-0.0249,0.0030,1256,1480,1497,1502,1000,1000,1505,1000,1000,1505,1205,1498,1139,5.6728,-3.0474,0.8045,0.2578,0.2538,1.0070,0.2928,0.2690,0.2251,0.2370,0.2204,0.0082,0.0438,0.2204,0.0082,0.0438,0.3000,0.0600,0.0002,0,-2.2635,-143.5000,-0.0060,-2.2635,-143.5000,-0.0060
-5.4597,11.1841,-0.6377,-0.2057,-0.0000,-1.2000,-0.1800,0.6400,0.2560,0.0145,-0.0266,0.0094,1256,1481,1499,1504,1000,1000,1505,1000,1000,1505,1205,1498,1139,-6.8872,0.6325,-1.1540,-0.0460,-0.0197,0.9916,0.3064,0.2587,0.2244,0.2345,0.2204,0.0082,0.0438,0.2204,0.0082,0.0438,0.3000,0.0600,0.0002,0,-2.2635,-143.5000,-0.0060,-2.2635,-143.5000,-0.0060
-5.4159,11.1176,-0.6219,-0.1371,0.1371,-1.2000,-0.1800,0.6400,0.2560,0.0088,-0.0272,0.0014,1256,1480,1497,1502,1000,1000,1505,1000,1000,1505,1205,1498,1139,5.7812,2.4551,1.4859,-0.1543,-0.1303,1.0092,0.2934,0.2730,0.2213,0.2362,0.2204,0.0082,0.0438,0.2204,0.0082,0.0438,0.3000,0.0600,0.0002,0,-2.2635,-143.5000,-0.0060,-2.2635,-143.5000,-0.0060
-5.4412,11.0984,-0.6245,-0.2057,-0.0000,-1.2000,-0.1800,0.6400,0.2560,0.0111,-0.0227,0.0018,1256,1480,1497,1502,1000,1000,1505,1000,1000,1505,1205,1498,1139,0.7195,-7.7259,1.1264,0.2736,0.2098,0.9837,0.2916,0.2659,0.2239,0.2426,0.2204,0.0082,0.0438,0.2204,0.0082,0.0438,0.3000,0.0600,0.0002,0,-2.2635,-143.5000,-0.0060,-2.2635,-143.5000,-0.0060
-5.4077,11.0914,-0.6119,-0.0686,0.0686,-1.2000,-0.1800,0.6400,0.2560,0.0124,-0.0287,0.0077,1256,1480,1497,1502,1000,1000,1505,1000,1000,1505,1205,1498,1139,-2.4241,6.0261,-0.2699,-0.1587,-0.1723,1.0398,0.3048,0.2647,0.2225,0.2320,0.2204,0.0082,0.0438,0.2204,0.0082,0.0438,0.3000,0.0600,0.0002,0,-2.2635,-143.5000,-0.0060,-2.2635,-143.5000,-0.0060
-5.3877,11.0106,-0.6008,0.0000,-0.0686,-1.2000,-0.1800,0.6400,0.2560,0.0092,-0.0247,0.0003,1256,1480,1497,1502,1000,1000,1505,1000,1000,1505,1205,1498,1139,4.8400,-2.8274,1.9723,-0.0123,0.0175,1.0069,0.2901,0.2713,0.2224,0.2402,0.2204,0.0082,0.0438,0.2204,0.0082,0.0438,0.3000,0.0600,0.0002,0,-2.2635,-143.5000,-0.0060,-2.2635,-143.5000,-0.0060
-5.4209,11.0435,-0.6106,-0.0686,0.0686,-1.2000,-0.1800,0.6400,0.2560,0.0127,-0.0249,0.0086,1256,1480,1497,1502,1000,1000,1505,1000,1000,1505,1205,1498,1139,-3.0703,-2.4911,-0.9251,0.1674,0.1266,0.9514,0.3022,0.2597,0.2269,0.2352,0.2204,0.0082,0.0438,0.2204,0.0082,0.0438,0.3000,0.0600,0.0002,0,-2.2635,-143.5000,-0.0060,-2.2635,-143.5000,-0.0060
-5.3957,10.9896,-0.6009,-0.2743,-0.0686,-1.2000,-0.1800,0.6400,0.2560,0.0126,-0.0294,0.0100,1256,1481,1499,1504,1000,1000,1505,1000,1000,1505,1205,1498,1139,-2.8697,7.8876,-0.9805,-0.2646,-0.2836,1.0589,0.3079,0.2628,0.2241,0.2292,0.2204,0.0082,0.0438,0.2204,0.0082,0.0438,0.3000,0.0600,0.0002,0,-2.2635,-143.5000,-0.0060,-2.2635,-143.5000,-0.0060
-5.4198,10.9753,-0.6135,-0.2057,-0.0686,-1.2000,-0.1800,0.6400,0.2560,0.0096,-0.0225,0.0024,1256,1480,1497,1502,1000,1000,1505,1000,1000,1505,1205,1498,1139,3.9512,-7.8434,0.7644,0.1478,0.2237,0.9663,0.2904,0.2665,0.2263,0.2408,0.2204,0.0082,0.0438,0.2204,0.0082,0.0438,0.3000,0.0600,0.0002,0,-2.2635,-143.5000,-0.0060,-2.2635,-143.5000,-0.0060
-5.4480,10.9802,-0.6244,-0.2743,0.0686,-1.2000,-0.1800,0.6400,0.2560,0.0137,-0.0283,0.0131,1256,1480,1497,1502,1000,1000,1505,1000,1000,1505,1205,1498,1139,-5.1999,5.3756,-2.3194,0.0225,-0.0007,1.0037,0.3110,0.2575,0.2271,0.2284,0.2204,0.0082,0.0438,0.2204,0.0082,0.0438,0.3000,0.0600,0.0002,0,-2.2635,-143.5000,-0.0060,-2.2635,-143.5000,-0.0060
-5.4117,10.9203,-0.6187,-0.0686,0.0686,-1.2000,-0.1800,0.6400,0.2560,0.0107,-0.0257,0.0055,1256,1480,1497,1502,1000,1000,1505,1000,1000,1505,1205,1498,1139,1.4717,-0.1297,0.4223,-0.2533,-0.2167,0.9771,0.2979,0.2655,0.2251,0.2354,0.2204,0.0082,0.0438,0.2204,0.0082,0.0438,0.3000,0.0600,0.0002,0,-2.2635,-143.5000,-0.0060,-2.2635,-143.5000,-0.0060
-5.4338,10.9134,-0.6272,-0.2057,0.0686,-1.2000,-0.1800,0.6400,0.2560,0.0096,-0.0241,0.0026,1256,1480,1497,1502,1000,1000,1505,1000,1000,1505,1205,1498,1139,4.1012,-3.9424,0.9027,0.2512,0.2676,0.9736,0.2922,0.2679,0.2249,0.2390,0.2204,0.0082,0.0438,0.2204,0.0082,0.0438,0.3000,0.0600,0.0002,0,-2.2635,-143.5000,-0.0060,-2.2635,-143.5000,-0.0060
-5.4338,10.8926,-0.6217,-0.2057,-0.0000,-1.2000,-0.1800,0.6400,0.2560,0.0133,-0.0266,0.0090,1256,1480,1497,1502,1000,1000,1505,1000,1000,1505,1205,1498,1139,-4.4691,1.9610,-0.8539,-0.1277,-0.1530,0.9974,0.3050,0.2603,0.2251,0.2337,0.2204,0.0082,0.0438,0.2204,0.0082,0.0438,0.3000,0.0600,0.0002,0,-2.2635,-143.5000,-0.0060,-2.2635,-143.5000,-0.0060
-5.3820,10.8278,-0.6078,-0.1371,0.0686,-1.2000,-0.1800,0.6400,0.2560,0.0093,-0.0258,0.0011,1256,1481,1499,1504,1000,1000,1505,1000,1000,1505,1205,1498,1139,4.5053,0.4287,1.8079,-0.0656,-0.1034,0.9627,0.2922,0.2715,0.2220,0.2384,0.2204,0.0082,0.0438,0.2204,0.0082,0.0438,0.3000,0.0600,0.0002,0,-2.2635,-143.5000,-0.0060,-2.2635,-143.5000,-0.0060
-5.4232,10.8239,-0.6131,-0.1371,-0.0686,-1.2000,-0.1800,0.6400,0.2560,0.0109,-0.0232,0.0054,1256,1480,1497,1502,1000,1000,1505,1000,1000,1505,1205,1498,1139,1.0739,-5.4157,-0.2341,0.2368,0.1897,0.9742,0.2955,0.2630,0.2272,0.2383,0.2204,0.0082,0.0438,0.2204,0.0082,0.0438,0.3000,0.0600,0.0002,0,-2.2635,-143.5000,-0.0060,-2.2635,-143.5000,-0.0060
-5.3931,10.8085,-0.6069,-0.2057,0.0686,-1.2000,-0.1800,0.6400,0.2560,0.0139,-0.0284,0.0095,1256,1480,1497,1502,1000,1000,1505,1000,1000,1505,1205,1498,1139,-5.8673,6.4986,-0.8863,-0.2403,-0.2230,1.0396,0.3078,0.2611,0.2232,0.2319,0.2204,0.0082,0.0438,0.2204,0.0082,0.0438,0.3000,0.0600,0.0002,0,-2.2635,-143.5000,-0.0060,-2.2635,-143.5000,-0.0060
-5.3984,10.7562,-0.6079,-0.1371,-0.0686,-1.2000,-0.1800,0.6400,0.2560,0.0080,-0.0237,0.0034,1256,1480,1497,1502,1000,1000,1505,1000,1000,1505,1205,1498,1139,7.5823,-4.0683,0.8952,0.1057,0.1145,1.0228,0.2911,0.2683,0.2277,0.2368,0.2204,0.0082,0.0438,0.2204,0.0082,0.0438,0.3000,0.0600,0.0002,0,-2.2635,-143.5000,-0.0060,-2.2635,-143.5000,-0.0060
-5.4326,10.7915,-0.6214,-0.2057,-0.0000,-1.2000,-0.1800,0.6400,0.2560,0.0144,-0.0253,0.0104,1256,1480,1497,1502,1000,1000,1505,1000,1000,1505,1205,1498,1139,-6.9359,-0.5572,-1.6164,0.1101,0.0713,0.9942,0.3062,0.2565,0.2267,0.2346,0.2204,0.0082,0.0438,0.2204,0.0082,0.0438,0.3000,0.0600,0.0002,0,-2.2635,-143.5000,-0.0060,-2.2635,-143.5000,-0.0060
-5.3894,10.7318,-0.6126,-0.0686,0.1371,-1.2000,-0.1800,0.6400,0.2710,0.0103,-0.0276,0.0080,1271,1480,1497,1502,1000,1000,1505,1000,1000,1505,1205,1498,1139,2.2699,4.9196,-0.3319,-0.3193,-0.2310,1.0657,0.3169,0.2803,0.2411,0.2457,0.2204,0.0082,0.0438,0.2204,0.0082,0.0438,0.3000,0.0600,0.0002,0,-2.2635,-143.5000,-0.0060,-2.2635,-143.5000,-0.0060
-5.4301,10.7191,-0.6217,-0.1371,-0.0686,-1.2000,-0.1800,0.6400,0.2750,0.0101,-0.0221,0.0010,1277,1481,1499,1504,1000,1000,1505,1000,1000,1505,1205,1498,1139,2.8510,-7.6505,1.4902,0.2742,0.2634,0.9879,0.3082,0.2859,0.2438,0.2620,0.2204,0.0082,0.0438,0.2204,0.0082,0.0438,0.3000,0.0600,0.0002,0,-2.2635,-143.5000,-0.0060,-2.2635,-143.5000,-0.0060
-5.4245,10.7161,-0.6221,-0.2057,-0.0000,-1.2000,-0.1800,0.6400,0.2760,0.0130,-0.0270,0.0090,1276,1480,1497,1502,1000,1000,1505,1000,1000,1505,1205,1498,1139,-3.7410,3.6085,-1.1630,-0.0392,-0.0334,0.9839,0.3250,0.2810,0.2450,0.2530,0.2204,0.0082,0.0438,0.2204,0.0082,0.0438,0.3000,0.0600,0.0002,0,-2.2635,-143.5000,-0.0060,-2.2635,-143.5000,-0.0060
-5.3979,10.6423,-0.6055,-0.1371,0.0686,-1.2000,-0.1800,0.6400,0.2810,0.0098,-0.0252,0.0029,1281,1480,1497,1502,1000,1000,1505,1000,1000,1505,1205,1498,1139,3.4784,-0.2854,1.4980,-0.2228,-0.2055,1.0226,0.3188,0.2935,0.2489,0.2628,0.2204,0.0082,0.0438,0.2204,0.0082,0.0438,0.3000,0.0600,0.0002,0,-2.2635,-143.5000,-0.0060,-2.2635,-143.5000,-0.0060
-5.3959,10.6349,-0.6090,-0.1371,-0.0686,-1.2000,-0.1800,0.6400,0.2810,0.0099,-0.0228,0.0019,1281,1480,1497,1502,1000,1000,1505,1000,1000,1505,1205,1498,1139,3.1309,-5.6492,1.2458,0.3060,0.2956,0.9731,0.3156,0.2920,0.2502,0.2662,0.2204,0.0082,0.0438,0.2204,0.0082,0.0438,0.3000,0.0600,0.0002,0,-2.2635,-143.5000,-0.0060,-2.2635,-143.5000,-0.0060
-5.4023,10.6092,-0.6003,-0.0686,-0.0000,-1.2000,-0.1800,0.6400,0.2810,0.0128,-0.0274,0.0103,1281,1480,1497,1502,1000,1000,1505,1000,1000,1505,1205,1498,1139,-3.3749,5.0022,-1.1595,-0.1759,-0.1664,1.0320,0.3315,0.2853,0.2511,0.2561,0.2204,0.0082,0.0438,0.2204,0.0082,0.0438,0.3000,0.0600,0.0002,0,-2.2635,-143.5000,-0.0060,-2.2635,-143.5000,-0.0060
-5.3491,10.5557,-0.5909,-0.0686,0.0686,-1.2000,-0.1800,0.6400,0.2810,0.0109,-0.0245,0.0052,1281,1480,1497,1502,1000,1000,1505,1000,1000,1505,1205,1498,1139,0.7201,-1.4428,0.5952,-0.0783,-0.2125,0.9917,0.3215,0.2894,0.2508,0.2622,0.2204,0.0082,0.0438,0.2204,0.0082,0.0438,0.3000,0.0600,0.0002,0,-2.2635,-143.5000,-0.0060,-2.2635,-143.5000,-0.0060
-5.3964,10.5757,-0.6064,0.0000,0.0686,-1.2000,-0.1800,0.6400,0.2810,0.0096,-0.0253,0.0055,1283,1481,1499,1504,1000,1000,1505,1000,1000,1505,1205,1498,1139,3.9608,0.1853,-0.1002,0.2209,0.2604,0.9708,0.3213,0.2912,0.2517,0.2598,0.2204,0.0082,0.0438,0.2204,0.0082,0.0438,0.3000,0.0600,0.0002,0,-2.2635,-143.5000,-0.0060,-2.2635,-143.5000,-0.0060
-5.4049,10.5528,-0.6122,-0.2057,-0.0000,-1.2000,-0.1800,0.6400,0.2810,0.0149,-0.0267,0.0122,1281,1480,1497,1502,1000,1000,1505,1000,1000,1505,1205,1498,1139,-8.1277,3.4958,-2.2607,-0.2887,-0.1912,1.0231,0.3348,0.2806,0.2517,0.2570,0.2204,0.0082,0.0438,0.2204,0.0082,0.0438,0.3000,0.0600,0.0002,0,-2.2635,-143.5000,-0.0060,-2.2635,-143.5000,-0.0060
-5.3767,10.5413,-0.6132,-0.0686,0.0686,-1.2000,-0.1800,0.6400,0.2810,0.0092,-0.0239,0.0057,1281,1480,1497,1502,1000,1000,1505,1000,1000,1505,1205,1498,1139,4.5988,-2.7178,0.2876,0.1029,-0.1973,1.0011,0.3198,0.2900,0.2535,0.2607,0.2204,0.0082,0.0438,0.2204,0.0082,0.0438,0.3000,0.0600,0.0002,0,-2.2635,-143.5000,-0.0060,-2.2635,-143.5000,-0.0060
-5.4052,10.5388,-0.6194,-0.2743,-0.0000,-1.2000,-0.1800,0.6400,0.2810,0.0109,-0.0259,0.0021,1281,1480,1497,1502,1000,1000,1505,1000,1000,1505,1205,1498,1139,0.8773,1.7414,1.0105,0.2729,0.3601,0.9994,0.3199,0.2938,0.2463,0.2639,0.2204,0.0082,0.0438,0.2204,0.0082,0.0438,0.3000,0.0600,0.0002,0,-2.2635,-143.5000,-0.0060,-2.2635,-143.5000,-0.0060
-5.3956,10.5007,-0.6152,-0.0686,0.0686,-1.2000,-0.1800,0.6400,0.2810,0.0126,-0.0246,0.0095,1281,1480,1497,1502,1000,1000,1505,1000,1000,1505,1205,1498,1139,-2.9544,-1.0527,-1.1352,-0.2941,-0.1360,0.9774,0.3277,0.2835,0.2533,0.2595,0.2204,0.0082,0.0438,0.2204,0.0082,0.0438,0.3000,0.0600,0.0002,0,-2.2635,-143.5000,-0.0060,-2.2635,-143.5000,-0.0060
-5.3557,10.4675,-0.6004,-0.1371,-0.0000,-1.2000,-0.1800,0.6400,0.2810,0.0101,-0.0242,0.0037,1281,1480,1497,1502,1000,1000,1505,1000,1000,1505,1205,1498,1139,2.5638,-1.7679,1.0748,0.0255,-0.2693,1.0235,0.3190,0.2914,0.2504,0.2631,0.2204,0.0082,0.0438,0.2204,0.0082,0.0438,0.3000,0.0600,0.0002,0,-2.2635,-143.5000,-0.0060,-2.2635,-143.5000,-0.0060
-5.3590,10.4590,-0.6001,-0.1371,-0.0000,-1.2000,-0.1800,0.6400,0.2810,0.0093,-0.0243,0.0011,1288,1481,1499,1504,1000,1000,1505,1000,1000,1505,1205,1498,1139,4.4318,-1.4718,1.5383,0.1770,0.3569,1.0030,0.3157,0.2950,0.2485,0.2649,0.2204,0.0082,0.0438,0.2204,0.0082,0.0438,0.3000,0.0600,0.0002,0,-2.2635,-143.5000,-0.0060,-2.2635,-143.5000,-0.0060
-5.3727,10.4404,-0.6017,-0.1371,-0.0000,-1.2000,-0.1800,0.6400,0.2900,0.0131,-0.0263,0.0088,1290,1480,1497,1502,1000,1000,1505,1000,1000,1505,1205,1498,1139,-4.2273,3.1432,-1.2601,-0.2571,-0.0069,0.9106,0.3383,0.2944,0.2594,0.2679,0.2204,0.0082,0.0438,0.2204,0.0082,0.0438,0.3000,0.0600,0.0002,0,-2.2635,-143.5000,-0.0060,-2.2635,-143.5000,-0.0060
-5.3335,10.4081,-0.5938,-0.1371,-0.0000,-1.2000,-0.1800,0.6400,0.2910,0.0122,-0.0244,0.0080,1291,1480,1497,1502,1000,1000,1505,1000,1000,1505,1205,1498,1139,-2.3587,-1.1016,-0.4038,-0.0041,-0.3108,1.0156,0.3356,0.2952,0.2624,0.2708,0.2204,0.0082,0.0438,0.2204,0.0082,0.0438,0.3000,0.0600,0.0002,0,-2.2635,-143.5000,-0.0060,-2.2635,-143.5000,-0.0060
-5.3430,10.4284,-0.5961,-0.0686,-0.0000,-1.2000,-0.1800,0.6400,0.2910,0.0091,-0.0246,0.0017,1291,1480,1497,1502,1000,1000,1505,1000,1000,1505,1205,1498,1139,4.7153,-0.7387,1.6043,0.1490,0.2544,1.0159,0.3264,0.3048,0.2589,0.2738,0.2204,0.0082,0.0438,0.2204,0.0082,0.0438,0.3000,0.0600,0.0002,0,-2.2635,-143.5000,-0.0060,-2.2635,-143.5000,-0.0060
-5.3688,10.4011,-0.6004,-0.1371,0.0686,-1.2000,-0.1800,0.6400,0.2960,0.0121,-0.0262,0.0060,1296,1480,1497,1502,1000,1000,1505,1000,1000,1505,1205,1498,1139,-1.9794,2.9274,-0.1912,-0.2239,0.2891,0.9505,0.3403,0.3041,0.2637,0.2760,0.2204,0.0082,0.0438,0.2204,0.0082,0.0438,0.3000,0.0600,0.0002,0,-2.2635,-143.5000,-0.0060,-2.2635,-143.5000,-0.0060
-5.3467,10.3709,-0.5920,-0.1371,-0.0000,-1.2000,-0.1800,0.6400,0.2960,0.0123,-0.0231,0.0107,1296,1480,1497,1502,1000,1000,1505,1000,1000,1505,1205,1498,1139,-2.4943,-3.8295,-1.2910,-0.0006,-0.3913,1.0691,0.3422,0.2961,0.2713,0.2744,0.2204,0.0082,0.0438,0.2204,0.0082,0.0438,0.3000,0.0600,0.0002,0,-2.2635,-143.5000,-0.0060,-2.2635,-143.5000,-0.0060
-5.3174,10.3668,-0.5869,-0.1371,-0.0000,-1.2000,-0.1800,0.6400,0.3010,0.0104,-0.0252,0.0048,1303,1481,1499,1504,1000,1000,1505,1000,1000,1505,1205,1498,1139,1.6297,0.8519,0.7341,0.2312,-0.1645,1.0413,0.3414,0.3110,0.2702,0.2815,0.2204,0.0082,0.0438,0.2204,0.0082,0.0438,0.3000,0.0600,0.0002,0,-2.2635,-143.5000,-0.0060,-2.2635,-143.5000,-0.0060
-5.3226,10.3345,-0.5967,-0.0686,-0.0000,-1.2000,-0.1800,0.6400,0.3010,0.0092,-0.0254,0.0038,1301,1480,1497,1502,1000,1000,1505,1000,1000,1505,1205,1498,1139,4.3717,1.3597,0.2442,-0.0731,0.4309,0.9658,0.3394,0.3133,0.2703,0.2810,0.2204,0.0082,0.0438,0.2204,0.0082,0.0438,0.3000,0.0600,0.0002,0,-2.2635,-143.5000,-0.0060,-2.2635,-143.5000,-0.0060
-5.3343,10.3190,-0.6051,-0.0686,-0.0000,-1.2000,-0.1800,0.6400,0.3010,0.0118,-0.0235,0.0111,1301,1480,1497,1502,1000,1000,1505,1000,1000,1505,1205,1498,1139,-1.3472,-2.8355,-1.7638,-0.3796,-0.0083,0.9441,0.3473,0.3016,0.2769,0.2782,0.2204,0.0082,0.0438,0.2204,0.0082,0.0438,0.3000,0.0600,0.0002,0,-2.2635,-143.5000,-0.0060,-2.2635,-143.5000,-0.0060
-5.2939,10.3097,-0.6013,-0.0686,-0.0000,-1.2000,0.0000,0.6400,0.3060,0.0122,-0.0238,0.0089,1306,1480,1500,1502,1000,1000,1505,1000,1000,1505,1205,1498,1139,-2.5476,-1.1227,-0.6522,-0.0328,-0.4728,1.0712,0.3509,0.3088,0.2789,0.2855,0.2204,0.0082,0.0438,0.2204,0.0082,0.0438,0.3000,0.0600,0.0002,0,-2.2635,-143.5000,-0.0060,-2.2635,-143.5000,-0.0060
-5.2833,10.3069,-0.6013,-0.0686,-0.0000,-1.2000,0.0000,0.6400,0.3090,0.0092,-0.0248,0.0035,1309,1480,1500,1502,1000,1000,1505,1000,1000,1505,1205,1498,1139,4.3283,0.9704,1.0315,0.1946,0.1513,1.0790,0.3464,0.3211,0.2785,0.2899,0.2204,0.0082,0.0438,0.2204,0.0082,0.0438,0.3000,0.0600,0.0002,0,-2.2635,-143.5000,-0.0060,-2.2635,-143.5000,-0.0060
-5.3161,10.2898,-0.6083,-0.1371,-0.0000,-1.2000,0.4200,0.6400,0.3100,0.0114,-0.0244,0.0044,1310,1480,1507,1502,1000,1000,1505,1000,1000,1505,1205,1498,1139,-0.5343,2.3298,0.4122,-0.0897,0.1613,0.9381,0.3502,0.3186,0.2787,0.2926,0.2204,0.0082,0.0438,0.2204,0.0082,0.0438,0.3000,0.0600,0.0002,0,-2.2635,-143.5000,-0.0060,-2.2635,-143.5000,-0.0060
-5.3219,10.2618,-0.6104,-0.2057,0.0686,-1.2000,0.4200,0.6400,0.3100,0.0131,-0.0225,0.0106,1310,1481,1509,1504,1000,1000,1505,1000,1000,1505,1205,1498,1139,-4.3786,-1.8639,-1.4137,-0.2434,-0.5386,0.9519,0.3562,0.3088,0.2851,0.2899,0.2204,0.0082,0.0438,0.2204,0.0082,0.0438,0.3000,0.0600,0.0002,0,-2.2635,-143.5000,-0.0060,-2.2635,-143.5000,-0.0060
-5.3122,10.2584,-0.6097,-0.1371,0.0686,-1.2000,0.4200,0.6400,0.3100,0.0104,-0.0222,0.0088,1310,1480,1507,1502,1000,1000,1505,1000,1000,1505,1205,1498,1139,1.5189,-2.4484,-0.8604,0.0709,-0.4695,1.1549,0.3515,0.3130,0.2861,0.2894,0.2204,0.0082,0.0438,0.2204,0.0082,0.0438,0.3000,0.0600,0.0002,0,-2.2635,-143.5000,-0.0060,-2.2635,-143.5000,-0.0060
-5.3152,10.2565,-0.6099,-0.0686,0.0686,-1.2000,0.7200,0.6400,0.3100,0.0097,-0.0237,0.0021,1310,1480,1512,1502,1000,1000,1505,1000,1000,1505,1205,1498,1139,3.1407,2.2703,1.5449,0.3237,0.4213,1.0561,0.3455,0.3218,0.2787,0.2940,0.2204,0.0082,0.0438,0.2204,0.0082,0.0438,0.3000,0.0600,0.0002,0,-2.2635,-143.5000,-0.0060,-2.2635,-143.5000,-0.0060
-5.3212,10.2337,-0.6134,-0.1371,0.0686,-1.2000,0.9000,0.6400,0.3100,0.0109,-0.0233,0.0025,1310,1480,1515,1502,1000,1000,1505,1000,1000,1505,1205,1498,1139,0.5119,2.4329,0.9234,-0.2396,0.3178,0.9244,0.3467,0.3199,0.2783,0.2951,0.2204,0.0082,0.0438,0.2204,0.0082,0.0438,0.3000,0.0600,0.0002,0,-2.2635,-143.5000,-0.0060,-2.2635,-143.5000,-0.0060
-5.3080,10.2053,-0.6102,-0.2057,-0.0686,-1.2000,1.0200,0.6400,0.3100,0.0114,-0.0206,0.0103,1310,1480,1517,1502,1000,1000,1505,1000,1000,1505,1205,1498,1139,-0.7401,-2.9786,-1.3815,-0.2592,-0.2982,0.9717,0.3523,0.3089,0.2882,0.2906,0.2204,0.0082,0.0438,0.2204,0.0082,0.0438,0.3000,0.0600,0.0002,0,-2.2635,-143.5000,-0.0060,-2.2635,-143.5000,-0.0060
-5.2700,10.2071,-0.6026,-0.1371,-0.0000,-1.2000,1.0200,0.6400,0.3100,0.0119,-0.0210,0.0099,1310,1480,1517,1502,1000,1000,1505,1000,1000,1505,1205,1498,1139,-2.1038,-2.0072,-0.9038,0.1365,-0.3593,1.0512,0.3529,0.3092,0.2869,0.2910,0.2204,0.0082,0.0438,0.2204,0.0082,0.0438,0.3000,0.0600,0.0002,0,-2.2635,-143.5000,-0.0060,-2.2635,-143.5000,-0.0060
-5.2534,10.2075,-0.5997,-0.0686,0.0686,-1.2000,1.3200,0.6400,0.3100,0.0100,-0.0221,0.0023,1310,1481,1525,1504,1000,1000,1505,1000,1000,1505,1205,1498,1139,2.2486,1.8505,1.5366,0.2973,0.1830,1.0304,0.3444,0.3197,0.2803,0.2956,0.2204,0.0082,0.0438,0.2204,0.0082,0.0438,0.3000,0.0600,0.0002,0,-2.2635,-143.5000,-0.0060,-2.2635,-143.5000,-0.0060
-5.2733,10.1838,-0.6002,-0.0686,-0.0000,-1.2000,1.6200,0.6400,0.3100,0.0093,-0.0219,0.0011,1310,1480,1527,1502,1000,1000,1505,1000,1000,1505,1205,1498,1139,4.0358,3.0253,1.2251,-0.2484,0.3427,0.8930,0.3423,0.3215,0.2800,0.2962,0.2204,0.0082,0.0438,0.2204,0.0082,0.0438,0.3000,0.0600,0.0002,0,-2.2635,-143.5000,-0.0060,-2.2635,-143.5000,-0.0060
-5.2896,10.1595,-0.6000,-0.1371,0.0686,-1.2000,1.6200,0.6400,0.3100,0.0114,-0.0188,0.0086,1310,1480,1527,1502,1000,1000,1505,1000,1000,1505,1205,1498,1139,-0.7219,-3.8233,-0.9483,-0.3872,-0.1717,0.9447,0.3488,0.3089,0.2884,0.2939,0.2204,0.0082,0.0438,0.2204,0.0082,0.0438,0.3000,0.0600,0.0002,0,-2.2635,-143.5000,-0.0060,-2.2635,-143.5000,-0.0060
-5.2639,10.1655,-0.5959,-0.0686,-0.0000,-1.2000,1.6200,0.6400,0.3100,0.0139,-0.0194,0.0099,1310,1480,1527,1502,1000,1000,1505,1000,1000,1505,1205,1498,1139,-6.5217,-2.6434,-1.0428,0.2753,-0.4077,1.0660,0.3531,0.3057,0.2866,0.2946,0.2204,0.0082,0.0438,0.2204,0.0082,0.0438,0.3000,0.0600,0.0002,0,-2.2635,-143.5000,-0.0060,-2.2635,-143.5000,-0.0060
-5.2376,10.1726,-0.5907,-0.2057,0.0686,-1.2000,1.6200,0.6400,0.3100,0.0114,-0.0219,0.0039,1310,1480,1527,1502,1000,1000,1505,1000,1000,1505,1205,1498,1139,-0.9322,3.0469,1.0233,0.3707,-0.0171,1.0611,0.3472,0.3166,0.2807,0.2956,0.2204,0.0082,0.0438,0.2204,0.0082,0.0438,0.3000,0.0600,0.0002,0,-2.2635,-143.5000,-0.0060,-2.2635,-143.5000,-0.0060
-5.2479,10.1560,-0.5900,-0.1371,0.1371,-1.2000,1.6200,0.6400,0.3100,0.0081,-0.0224,0.0025,1310,1480,1527,1502,1000,1000,1505,1000,1000,1505,1205,1498,1139,6.6678,4.3302,1.1933,-0.1432,0.5119,0.9290,0.3430,0.3219,0.2820,0.2931,0.2204,0.0082,0.0438,0.2204,0.0082,0.0438,0.3000,0.0600,0.0002,0,-2.2635,-143.5000,-0.0060,-2.2635,-143.5000,-0.0060
-5.2636,10.1301,-0.5936,-0.0686,-0.0000,-1.2000,1.6200,0.6400,0.3100,0.0098,-0.0195,0.0086,1313,1481,1528,1504,1000,1000,1505,1000,1000,1505,1205,1498,1139,2.6883,-2.2323,-0.9787,-0.4204,0.0526,0.9221,0.3479,0.3111,0.2893,0.2917,0.2204,0.0082,0.0438,0.2204,0.0082,0.0438,0.3000,0.0600,0.0002,0,-2.2635,-143.5000,-0.0060,-2.2635,-143.5000,-0.0060
-5.2354,10.1226,-0.5928,-0.2057,0.0686,-1.2000,1.6200,0.6400,0.3110,0.0135,-0.0181,0.0105,1311,1480,1527,1502,1000,1000,1505,1000,1000,1505,1205,1498,1139,-5.8895,-5.3816,-1.5565,0.0822,-0.4630,1.0381,0.3531,0.3051,0.2898,0.2959,0.2204,0.0082,0.0438,0.2204,0.0082,0.0438,0.3000,0.0600,0.0002,0,-2.2635,-143.5000,-0.0060,-2.2635,-143.5000,-0.0060
-5.1922,10.1219,-0.5910,-0.1371,0.0686,-1.2000,1.6200,0.6400,0.3190,0.0117,-0.0208,0.0075,1319,1480,1527,1502,1000,1000,1505,1000,1000,1505,1205,1498,1139,-1.9959,0.8171,-0.0790,0.3100,-0.1354,1.0518,0.3590,0.3207,0.2939,0.3024,0.2204,0.0082,0.0438,0.2204,0.0082,0.0438,0.3000,0.0600,0.0002,0,-2.2635,-143.5000,-0.0060,-2.2635,-143.5000,-0.0060
-5.1904,10.1024,-0.5949,-0.1371,-0.0000,-1.2000,1.6200,0.6400,0.3210,0.0077,-0.0219,0.0025,1321,1480,1527,1502,1000,1000,1505,1000,1000,1505,1205,1498,1139,7.1491,3.4067,1.2214,0.0599,0.4976,0.9875,0.3532,0.3327,0.2939,0.3042,0.2204,0.0082,0.0438,0.2204,0.0082,0.0438,0.3000,0.0600,0.0002,0,-2.2635,-143.5000,-0.0060,-2.2635,-143.5000,-0.0060
-5.2171,10.0684,-0.6029,0.0000,-0.0000,-1.2000,1.6200,0.6400,0.3210,0.0094,-0.0201,0.0069,1321,1480,1527,1502,1000,1000,1505,1000,1000,1505,1205,1498,1139,3.5152,-0.6521,-0.5122,-0.2761,0.2115,0.8758,0.3574,0.3248,0.2985,0.3034,0.2204,0.0082,0.0438,0.2204,0.0082,0.0438,0.3000,0.0600,0.0002,0,-2.2635,-143.5000,-0.0060,-2.2635,-143.5000,-0.0060
-5.2167,10.0410,-0.6047,-0.0686,-0.0000,-1.2000,1.6200,0.6400,0.3210,0.0139,-0.0179,0.0116,1321,1480,1527,1502,1000,1000,1505,1000,1000,1505,1205,1498,1139,-6.7361,-5.5514,-1.8090,-0.2310,-0.4670,0.9910,0.3643,0.3135,0.3008,0.3054,0.2204,0.0082,0.0438,0.2204,0.0082,0.0438,0.3000,0.0600,0.0002,0,-2.2635,-143.5000,-0.0060,-2.2635,-143.5000,-0.0060
-5.1805,10.0368,-0.6029,-0.2057,0.0686,-1.2000,1.6200,0.6400,0.3250,0.0138,-0.0198,0.0111,1326,1481,1529,1504,1000,1000,1505,1000,1000,1505,1205,1498,1139,-6.8239,-1.0782,-1.2485,0.2870,-0.2813,1.0785,0.3698,0.3199,0.3025,0.3078,0.2204,0.0082,0.0438,0.2204,0.0082,0.0438,0.3000,0.0600,0.0002,0,-2.2635,-143.5000,-0.0060,-2.2635,-143.5000,-0.0060
-5.1687,10.0278,-0.6067,-0.1371,-0.0000,-1.2000,1.6200,0.6400,0.3260,0.0083,-0.0219,0.0050,1326,1480,1527,1502,1000,1000,1505,1000,1000,1505,1205,1498,1139,5.7779,3.5711,0.3937,0.2215,0.2724,1.0857,0.3612,0.3346,0.3009,0.3074,0.2204,0.0082,0.0438,0.2204,0.0082,0.0438,0.3000,0.0600,0.0002,0,-2.2635,-143.5000,-0.0060,-2.2635,-143.5000,-0.0060
-5.1884,10.0036,-0.6156,0.0000,-0.0000,-1.2000,1.6200,0.6400,0.3260,0.0064,-0.0212,0.0040,1326,1480,1527,1502,1000,1000,1505,1000,1000,1505,1205,1498,1139,10.2223,2.0730,0.5554,-0.2379,0.4108,0.8899,0.3575,0.3368,0.3025,0.3072,0.2204,0.0082,0.0438,0.2204,0.0082,0.0438,0.3000,0.0600,0.0002,0,-2.2635,-143.5000,-0.0060,-2.2635,-143.5000,-0.0060
-5.1906,9.9817,-0.6228,-0.1371,-0.0000,-1.2000,1.6200,0.6400,0.3260,0.0109,-0.0180,0.0085,1326,1480,1527,1502,1000,1000,1505,1000,1000,1505,1205,1498,1139,-0.2137,-5.0337,-0.9101,-0.4833,-0.1470,0.9108,0.3635,0.3246,0.3056,0.3104,0.2204,0.0082,0.0438,0.2204,0.0082,0.0438,0.3000,0.0600,0.0002,0,-2.2635,-143.5000,-0.0060,-2.2635,-143.5000,-0.0060
-5.1308,9.9784,-0.6248,-0.2057,-0.0000,-1.2000,1.6200,0.6400,0.3260,0.0144,-0.0184,0.0108,1326,1480,1527,1502,1000,1000,1505,1000,1000,1505,1205,1498,1139,-8.4973,-4.0461,-1.4665,0.2643,-0.3783,1.0728,0.3697,0.3192,0.3040,0.3112,0.2204,0.0082,0.0438,0.2204,0.0082,0.0438,0.3000,0.0600,0.0002,0,-2.2635,-143.5000,-0.0060,-2.2635,-143.5000,-0.0060
-5.0757,9.9717,-0.6235,-0.0686,-0.0000,-1.2000,1.6200,0.6400,0.3260,0.0098,-0.0211,0.0088,1326,1480,1527,1502,1000,1000,1505,1000,1000,1505,1205,1498,1139,1.7354,2.0717,-0.5363,0.4905,-0.1075,1.1425,0.3658,0.3284,0.3039,0.3059,0.2204,0.0082,0.0438,0.2204,0.0082,0.0438,0.3000,0.0600,0.0002,0,-2.2635,-143.5000,-0.0060,-2.2635,-143.5000,-0.0060
-5.0757,9.9523,-0.6225,0.0000,0.0686,-1.2000,1.6200,0.6400,0.3260,0.0060,-0.0223,0.0040,1328,1481,1527,1504,1000,1000,1505,1000,1000,1505,1205,1498,1139,10.5020,4.8676,0.9101,-0.0363,0.3642,0.9869,0.3583,0.3383,0.3017,0.3057,0.2204,0.0082,0.0438,0.2204,0.0082,0.0438,0.3000,0.0600,0.0002,0,-2.2635,-143.5000,-0.0060,-2.2635,-143.5000,-0.0060
-5.1058,9.9195,-0.6240,-0.1371,-0.1371,-1.2000,1.6200,0.6400,0.3260,0.0091,-0.0197,0.0023,1326,1480,1527,1502,1000,1000,1505,1000,1000,1505,1205,1498,1139,3.6416,-1.0323,0.9262,-0.5299,0.1533,0.9112,0.3570,0.3343,0.2996,0.3131,0.2204,0.0082,0.0438,0.2204,0.0082,0.0438,0.3000,0.0600,0.0002,0,-2.2635,-143.5000,-0.0060,-2.2635,-143.5000,-0.0060
-5.1043,9.8967,-0.6219,-0.1371,-0.0000,-1.2000,1.6200,0.6400,0.3260,0.0144,-0.0184,0.0059,1326,1480,1527,1502,1000,1000,1505,1000,1000,1505,1205,1498,1139,-8.5357,-3.8019,-0.0807,-0.1663,-0.1158,0.9399,0.3647,0.3241,0.2991,0.3161,0.2204,0.0082,0.0438,0.2204,0.0082,0.0438,0.3000,0.0600,0.0002,0,-2.2635,-143.5000,-0.0060,-2.2635,-143.5000,-0.0060
-5.0694,9.9021,-0.6150,-0.1371,-0.0686,-1.2000,1.6200,0.6400,0.3260,0.0140,-0.0190,0.0101,1326,1480,1527,1502,1000,1000,1505,1000,1000,1505,1205,1498,1139,-7.9237,-2.3787,-1.1006,0.3389,-0.2765,1.0799,0.3692,0.3208,0.3031,0.3109,0.2204,0.0082,0.0438,0.2204,0.0082,0.0438,0.3000,0.0600,0.0002,0,-2.2635,-143.5000,-0.0060,-2.2635,-143.5000,-0.0060
-5.0509,9.9016,-0.6079,-0.1371,-0.0000,-1.2000,1.5000,0.6400,0.3260,0.0092,-0.0215,0.0089,1326,1480,1525,1502,1000,1000,1505,1000,1000,1505,1205,1498,1139,3.1143,2.5388,-0.4888,0.2864,-0.1123,1.0866,0.3655,0.3294,0.3043,0.3048,0.2204,0.0082,0.0438,0.2204,0.0082,0.0438,0.3000,0.0600,0.0002,0,-2.2635,-143.5000,-0.0060,-2.2635,-143.5000,-0.0060
-5.0493,9.8842,-0.6042,-0.0686,0.0686,-1.2000,1.5000,0.6400,0.3260,0.0070,-0.0218,0.0036,1326,1480,1525,1502,1000,1000,1505,1000,1000,1505,1205,1498,1139,8.0084,3.4370,1.2433,-0.0942,0.2364,0.9979,0.3584,0.3372,0.3007,0.3076,0.2204,0.0082,0.0438,0.2204,0.0082,0.0438,0.3000,0.0600,0.0002,0,-2.2635,-143.5000,-0.0060,-2.2635,-143.5000,-0.0060
-5.0456,9.8508,-0.6064,-0.1371,-0.0000,-1.2000,1.5000,0.6400,0.3290,0.0090,-0.0204,0.0026,1330,1481,1525,1504,1000,1000,1505,1000,1000,1505,1205,1498,1139,3.4607,0.2183,1.1111,-0.2642,0.2200,0.9178,0.3609,0.3378,0.3022,0.3151,0.2204,0.0082,0.0438,0.2204,0.0082,0.0438,0.3000,0.0600,0.0002,0,-2.2635,-143.5000,-0.0060,-2.2635,-143.5000,-0.0060
-5.0160,9.8123,-0.6096,-0.2057,-0.0000,-1.2000,1.5000,0.6400,0.3300,0.0123,-0.0191,0.0058,1330,1480,1525,1502,1000,1000,1505,1000,1000,1505,1205,1498,1139,-4.1513,-2.4903,-0.3611,-0.1205,0.1575,0.9032,0.3672,0.3310,0.3044,0.3174,0.2204,0.0082,0.0438,0.2204,0.0082,0.0438,0.3000,0.0600,0.0002,0,-2.2635,-143.5000,-0.0060,-2.2635,-143.5000,-0.0060
-4.9730,9.7785,-0.6061,-0.2057,-0.0686,-1.2000,1.5000,0.6400,0.3300,0.0118,-0.0183,0.0109,1330,1480,1525,1502,1000,1000,1505,1000,1000,1505,1205,1498,1139,-3.1700,-4.2415,-1.6211,0.1164,-0.1567,1.0441,0.3709,0.3256,0.3109,0.3126,0.2204,0.0082,0.0438,0.2204,0.0082,0.0438,0.3000,0.0600,0.0002,0,-2.2635,-143.5000,-0.0060,-2.2635,-143.5000,-0.0060
-4.9227,9.7461,-0.5945,-0.1371,-0.0686,-1.2000,1.5000,0.6400,0.3300,0.0102,-0.0194,0.0099,1330,1480,1525,1502,1000,1000,1505,1000,1000,1505,1205,1498,1139,0.0883,-1.4184,-0.7495,0.1671,-0.3759,1.0496,0.3695,0.3293,0.3102,0.3109,0.2204,0.0082,0.0438,0.2204,0.0082,0.0438,0.3000,0.0600,0.0002,0,-2.2635,-143.5000,-0.0060,-2.2635,-143.5000,-0.0060
-4.8835,9.7158,-0.5874,0.0000,-0.0000,-1.2000,1.5000,0.6400,0.3300,0.0079,-0.0206,0.0061,1330,1480,1525,1502,1000,1000,1505,1000,1000,1505,1205,1498,1139,5.2916,1.3112,0.4633,0.1729,-0.0204,1.0558,0.3646,0.3366,0.3077,0.3111,0.2204,0.0082,0.0438,0.2204,0.0082,0.0438,0.3000,0.0600,0.0002,0,-2.2635,-143.5000,-0.0060,-2.2635,-143.5000,-0.0060
-4.8793,9.6851,-0.5898,-0.1371,0.1371,-1.2000,1.5000,0.6400,0.3310,0.0080,-0.0212,0.0029,1331,1480,1525,1502,1000,1000,1505,1000,1000,1505,1205,1498,1139,4.9346,2.8959,1.1606,-0.1921,0.2903,0.9646,0.3631,0.3413,0.3047,0.3149,0.2204,0.0082,0.0438,0.2204,0.0082,0.0438,0.3000,0.0600,0.0002,0,-2.2635,-143.5000,-0.0060,-2.2635,-143.5000,-0.0060
-4.8934,9.6578,-0.5950,-0.1371,-0.0000,-1.2000,1.5000,0.6400,0.3310,0.0100,-0.0201,0.0044,1334,1481,1532,1504,1000,1000,1505,1000,1000,1505,1205,1498,1139,0.4976,0.5381,0.3801,-0.3111,0.4214,0.8712,0.3655,0.3367,0.3053,0.3165,0.2204,0.0082,0.0438,0.2204,0.0082,0.0438,0.3000,0.0600,0.0002,0,-2.2635,-143.5000,-0.0060,-2.2635,-143.5000,-0.0060
-4.9048,9.6439,-0.5958,-0.2743,0.0686,-1.2000,1.9200,0.6400,0.3350,0.0128,-0.0173,0.0074,1335,1480,1532,1502,1000,1000,1505,1000,1000,1505,1205,1498,1139,-5.7894,-3.7641,-0.7317,-0.1233,-0.2442,0.9763,0.3724,0.3321,0.3124,0.3231,0.2204,0.0082,0.0438,0.2204,0.0082,0.0438,0.3000,0.0600,0.0002,0,-2.2635,-143.5000,-0.0060,-2.2635,-143.5000,-0.0060
-4.8844,9.6512,-0.5942,-0.2057,0.0686,-1.2000,1.9200,0.6400,0.3350,0.0134,-0.0179,0.0100,1335,1480,1532,1502,1000,1000,1505,1000,1000,1505,1205,1498,1139,-7.3293,-2.4989,-1.0447,0.2605,-0.4081,1.0839,0.3762,0.3295,0.3138,0.3205,0.2204,0.0082,0.0438,0.2204,0.0082,0.0438,0.3000,0.0600,0.0002,0,-2.2635,-143.5000,-0.0060,-2.2635,-143.5000,-0.0060
-4.8643,9.6548,-0.5955,-0.2743,-0.0000,-1.2000,1.9200,0.6400,0.3350,0.0103,-0.0197,0.0086,1335,1480,1532,1502,1000,1000,1505,1000,1000,1505,1205,1498,1139,-0.3524,1.7597,-0.5224,0.3704,-0.2218,1.1402,0.3736,0.3359,0.3136,0.3170,0.2204,0.0082,0.0438,0.2204,0.0082,0.0438,0.3000,0.0600,0.0002,0,-2.2635,-143.5000,-0.0060,-2.2635,-143.5000,-0.0060
-4.8643,9.6449,-0.5978,-0.2057,0.0686,-1.2000,1.9200,0.6400,0.3390,0.0073,-0.0214,0.0055,1339,1480,1532,1502,1000,1000,1505,1000,1000,1505,1205,1498,1139,6.4692,5.6497,0.4675,-0.0629,0.3258,1.0094,0.3732,0.3476,0.3158,0.3194,0.2204,0.0082,0.0438,0.2204,0.0082,0.0438,0.3000,0.0600,0.0002,0,-2.2635,-143.5000,-0.0060,-2.2635,-143.5000,-0.0060
-4.8758,9.6182,-0.5987,-0.1371,0.0686,-1.2000,1.9200,0.6400,0.3410,0.0075,-0.0200,0.0040,1341,1480,1532,1502,1000,1000,1505,1000,1000,1505,1205,1498,1139,6.1140,2.5051,0.7875,-0.2852,0.3863,0.8680,0.3725,0.3495,0.3176,0.3244,0.2204,0.0082,0.0438,0.2204,0.0082,0.0438,0.3000,0.0600,0.0002,0,-2.2635,-143.5000,-0.0060,-2.2635,-143.5000,-0.0060
-4.8644,9.5865,-0.5992,-0.2057,-0.0000,-1.2000,2.1000,0.6400,0.3410,0.0106,-0.0169,0.0051,1341,1481,1536,1504,1000,1000,1505,1000,1000,1505,1205,1498,1139,-0.9844,-3.5572,0.2727,-0.3300,0.0347,0.9445,0.3735,0.3422,0.3187,0.3296,0.2204,0.0082,0.0438,0.2204,0.0082,0.0438,0.3000,0.0600,0.0002,0,-2.2635,-143.5000,-0.0060,-2.2635,-143.5000,-0.0060
-4.8259,9.5542,-0.5986,-0.1371,-0.0000,-1.2000,2.1000,0.6400,0.3440,0.0129,-0.0155,0.0076,1344,1480,1535,1502,1000,1000,1505,1000,1000,1505,1205,1498,1139,-6.5758,-6.6394,-0.8424,0.0267,-0.1846,0.9505,0.3800,0.3389,0.3233,0.3338,0.2204,0.0082,0.0438,0.2204,0.0082,0.0438,0.3000,0.0600,0.0002,0,-2.2635,-143.5000,-0.0060,-2.2635,-143.5000,-0.0060
-4.7723,9.5253,-0.5958,-0.1371,-0.2057,-1.2000,2.1000,0.6400,0.3450,0.0105,-0.0164,0.0116,1345,1480,1535,1502,1000,1000,1505,1000,1000,1505,1205,1498,1139,-1.2381,-4.4478,-1.6787,0.2988,-0.2739,1.0453,0.3834,0.3393,0.3298,0.3275,0.2204,0.0082,0.0438,0.2204,0.0082,0.0438,0.3000,0.0600,0.0002,0,-2.2635,-143.5000,-0.0060,-2.2635,-143.5000,-0.0060
-4.7307,9.4908,-0.5935,-0.0686,-0.0000,-1.2000,2.2200,0.6400,0.3460,0.0074,-0.0181,0.0118,1346,1480,1537,1502,1000,1000,1505,1000,1000,1505,1205,1498,1139,5.6001,0.2746,-1.4312,0.2652,-0.1773,1.1285,0.3833,0.3449,0.3324,0.3234,0.2204,0.0082,0.0438,0.2204,0.0082,0.0438,0.3000,0.0600,0.0002,0,-2.2635,-143.5000,-0.0060,-2.2635,-143.5000,-0.0060
-4.7027,9.4623,-0.5908,-0.1371,0.0686,-1.2000,2.2200,0.6400,0.3460,0.0064,-0.0196,0.0059,1346,1480,1537,1502,1000,1000,1505,1000,1000,1505,1205,1498,1139,7.6293,3.7605,0.4491,0.0555,0.0234,0.9833,0.3779,0.3532,0.3259,0.3270,0.2204,0.0082,0.0438,0.2204,0.0082,0.0438,0.3000,0.0600,0.0002,0,-2.2635,-143.5000,-0.0060,-2.2635,-143.5000,-0.0060
-4.6829,9.4380,-0.5890,-0.1371,0.0686,-1.2000,2.2200,0.6400,0.3490,0.0079,-0.0188,0.0023,1349,1480,1537,1502,1000,1000,1505,1000,1000,1505,1205,1498,1139,4.1678,2.1501,1.5125,-0.2609,0.3176,0.9465,0.3781,0.3576,0.3246,0.3357,0.2204,0.0082,0.0438,0.2204,0.0082,0.0438,0.3000,0.0600,0.0002,0,-2.2635,-143.5000,-0.0060,-2.2635,-143.5000,-0.0060
-4.6627,9.4197,-0.5921,-0.0686,0.0686,-1.2000,2.2200,0.6400,0.3500,0.0096,-0.0181,0.0017,1350,1481,1537,1504,1000,1000,1505,1000,1000,1505,1205,1498,1139,0.2301,0.7090,1.3256,-0.3369,0.3004,0.9334,0.3794,0.3569,0.3239,0.3398,0.2204,0.0082,0.0438,0.2204,0.0082,0.0438,0.3000,0.0600,0.0002,0,-2.2635,-143.5000,-0.0060,-2.2635,-143.5000,-0.0060
-4.6482,9.4053,-0.5941,-0.2057,-0.0686,-1.2000,2.2200,0.6400,0.3500,0.0110,-0.0170,0.0040,1350,1480,1537,1502,1000,1000,1505,1000,1000,1505,1205,1498,1139,-3.0900,-1.8062,0.0847,-0.0687,0.1562,0.8906,0.3820,0.3520,0.3260,0.3400,0.2204,0.0082,0.0438,0.2204,0.0082,0.0438,0.3000,0.0600,0.0002,0,-2.2635,-143.5000,-0.0060,-2.2635,-143.5000,-0.0060
-4.6379,9.3958,-0.5911,-0.0686,-0.0000,-1.2000,2.2200,0.6400,0.3500,0.0110,-0.0166,0.0087,1350,1480,1537,1502,1000,1000,1505,1000,1000,1505,1205,1498,1139,-3.0254,-2.8165,-0.8367,0.2008,-0.1899,0.9957,0.3862,0.3469,0.3312,0.3357,0.2204,0.0082,0.0438,0.2204,0.0082,0.0438,0.3000,0.0600,0.0002,0,-2.2635,-143.5000,-0.0060,-2.2635,-143.5000,-0.0060
-4.6225,9.3754,-0.5843,-0.2057,0.0686,-1.2000,2.2200,0.6400,0.3500,0.0115,-0.0167,0.0105,1350,1480,1537,1502,1000,1000,1505,1000,1000,1505,1205,1498,1139,-4.3924,-2.4573,-1.2540,0.2587,-0.3786,1.0872,0.3887,0.3446,0.3323,0.3343,0.2204,0.0082,0.0438,0.2204,0.0082,0.0438,0.3000,0.0600,0.0002,0,-2.2635,-143.5000,-0.0060,-2.2635,-143.5000,-0.0060
-4.6068,9.3384,-0.5804,-0.1371,-0.0000,-1.2000,1.8000,0.6400,0.3500,0.0108,-0.0184,0.0118,1350,1480,1530,1502,1000,1000,1505,1000,1000,1505,1205,1498,1139,-2.9447,-0.5064,-1.4632,0.1710,-0.2484,1.1195,0.3910,0.3458,0.3325,0.3307,0.2204,0.0082,0.0438,0.2204,0.0082,0.0438,0.3000,0.0600,0.0002,0,-2.2635,-143.5000,-0.0060,-2.2635,-143.5000,-0.0060
-4.5852,9.2936,-0.5786,-0.1371,-0.0686,-1.2000,1.6200,0.6400,0.3500,0.0085,-0.0195,0.0096,1350,1480,1527,1502,1000,1000,1505,1000,1000,1505,1205,1498,1139,2.3876,1.3679,-0.5509,0.0387,-0.0608,1.0589,0.3876,0.3515,0.3316,0.3294,0.2204,0.0082,0.0438,0.2204,0.0082,0.0438,0.3000,0.0600,0.0002,0,-2.2635,-143.5000,-0.0060,-2.2635,-143.5000,-0.0060
-4.5728,9.2511,-0.5805,-0.0686,-0.0000,-1.2000,1.6200,0.6400,0.3500,0.0070,-0.0194,0.0075,1350,1481,1527,1504,1000,1000,1505,1000,1000,1505,1205,1498,1139,5.6272,1.4153,-0.0474,-0.0671,0.1583,0.9858,0.3840,0.3549,0.3311,0.3301,0.2204,0.0082,0.0438,0.2204,0.0082,0.0438,0.3000,0.0600,0.0002,0,-2.2635,-143.5000,-0.0060,-2.2635,-143.5000,-0.0060
-4.5589,9.2147,-0.5846,-0.2057,-0.0000,-1.2000,1.2000,0.6400,0.3500,0.0070,-0.0203,0.0041,1350,1480,1520,1502,1000,1000,1505,1000,1000,1505,1205,1498,1139,5.5884,1.4494,0.5385,-0.1782,0.2954,0.9150,0.3814,0.3592,0.3268,0.3326,0.2204,0.0082,0.0438,0.2204,0.0082,0.0438,0.3000,0.0600,0.0002,0,-2.2635,-143.5000,-0.0060,-2.2635,-143.5000,-0.0060
-4.5367,9.1850,-0.5899,-0.1371,0.0686,-1.2000,1.0200,0.6400,0.3500,0.0083,-0.0204,0.0047,1350,1480,1517,1502,1000,1000,1505,1000,1000,1505,1205,1498,1139,2.5129,0.8001,0.3965,-0.2862,0.2703,0.8226,0.3834,0.3574,0.3260,0.3333,0.2204,0.0082,0.0438,0.2204,0.0082,0.0438,0.3000,0.0600,0.0002,0,-2.2635,-143.5000,-0.0060,-2.2635,-143.5000,-0.0060
-4.5031,9.1599,-0.5940,-0.1371,0.0686,-1.2000,0.7200,0.6400,0.3500,0.0095,-0.0200,0.0057,1350,1480,1512,1502,1000,1000,1505,1000,1000,1505,1205,1498,1139,-0.4683,-1.3877,-0.0032,-0.1595,0.1733,0.8728,0.3853,0.3547,0.3262,0.3338,0.2204,0.0082,0.0438,0.2204,0.0082,0.0438,0.3000,0.0600,0.0002,0,-2.2635,-143.5000,-0.0060,-2.2635,-143.5000,-0.0060
-4.4745,9.1451,-0.5963,-0.2057,-0.0000,-1.2000,0.6000,0.6400,0.3500,0.0105,-0.0189,0.0083,1350,1480,1510,1502,1000,1000,1505,1000,1000,1505,1205,1498,1139,-2.7424,-4.4066,-0.8083,-0.0174,-0.1229,1.0264,0.3877,0.3502,0.3289,0.3332,0.2204,0.0082,0.0438,0.2204,0.0082,0.0438,0.3000,0.0600,0.0002,0,-2.2635,-143.5000,-0.0060,-2.2635,-143.5000,-0.0060
-4.4437,9.1293,-0.5956,-0.2057,-0.0686,-1.2000,0.1200,0.6400,0.3500,0.0107,-0.0199,0.0100,1350,1480,1502,1502,1000,1000,1505,1000,1000,1505,1205,1498,1139,-3.3271,-4.5353,-1.2208,0.2054,-0.2770,1.0563,0.3905,0.3493,0.3294,0.3308,0.2204,0.0082,0.0438,0.2204,0.0082,0.0438,0.3000,0.0600,0.0002,0,-2.2635,-143.5000,-0.0060,-2.2635,-143.5000,-0.0060
-4.4266,9.1109,-0.5930,-0.2057,-0.0000,-1.2000,0.1200,0.6400,0.3500,0.0104,-0.0210,0.0105,1350,1481,1502,1504,1000,1000,1505,1000,1000,1505,1205,1498,1139,-2.7756,-1.9436,-1.1583,0.3729,-0.3092,1.0581,0.3919,0.3502,0.3291,0.3289,0.2204,0.0082,0.0438,0.2204,0.0082,0.0438,0.3000,0.0600,0.0002,0,-2.2635,-143.5000,-0.0060,-2.2635,-143.5000,-0.0060
-4.4202,9.0883,-0.5897,-0.2057,-0.0000,-1.2000,0.1200,0.6400,0.3500,0.0093,-0.0228,0.0085,1350,1480,1502,1502,1000,1000,1505,1000,1000,1505,1205,1498,1139,-0.3419,2.1794,-0.5927,0.2540,-0.1353,1.1403,0.3905,0.3550,0.3264,0.3281,0.2204,0.0082,0.0438,0.2204,0.0082,0.0438,0.3000,0.0600,0.0002,0,-2.2635,-143.5000,-0.0060,-2.2635,-143.5000,-0.0060
-4.4162,9.0637,-0.5882,-0.1371,0.0686,-1.2000,0.1200,0.6400,0.3500,0.0079,-0.0240,0.0066,1350,1480,1502,1502,1000,1000,1505,1000,1000,1505,1205,1498,1139,2.7649,5.0451,0.2072,0.0227,0.0475,1.0990,0.3885,0.3595,0.3247,0.3274,0.2204,0.0082,0.0438,0.2204,0.0082,0.0438,0.3000,0.0600,0.0002,0,-2.2635,-143.5000,-0.0060,-2.2635,-143.5000,-0.0060
-4.4160,9.0397,-0.5836,-0.2057,0.0686,-1.2000,0.1200,0.6400,0.3500,0.0083,-0.0233,0.0040,1350,1480,1502,1502,1000,1000,1505,1000,1000,1505,1205,1498,1139,1.9712,3.5590,1.0876,-0.1778,0.2154,0.9861,0.3855,0.3610,0.3225,0.3310,0.2204,0.0082,0.0438,0.2204,0.0082,0.0438,0.3000,0.0600,0.0002,0,-2.2635,-143.5000,-0.0060,-2.2635,-143.5000,-0.0060
-4.3996,9.0117,-0.5801,-0.2057,-0.0000,-1.2000,0.1200,0.6400,0.3500,0.0075,-0.0220,0.0020,1350,1480,1502,1502,1000,1000,1505,1000,1000,1505,1205,1498,1139,3.5964,0.7869,1.3975,-0.3738,0.3142,0.9380,0.3815,0.3624,0.3225,0.3335,0.2204,0.0082,0.0438,0.2204,0.0082,0.0438,0.3000,0.0600,0.0002,0,-2.2635,-143.5000,-0.0060,-2.2635,-143.5000,-0.0060
-4.3729,8.9790,-0.5798,-0.3429,-0.0686,-1.2000,0.1200,0.6400,0.3500,0.0081,-0.0206,0.0040,1350,1480,1502,1502,1000,1000,1505,1000,1000,1505,1205,1498,1139,2.1797,-2.1142,0.5596,-0.2515,0.2324,0.8948,0.3827,0.3586,0.3252,0.3335,0.2204,0.0082,0.0438,0.2204,0.0082,0.0438,0.3000,0.0600,0.0002,0,-2.2635,-143.5000,-0.0060,-2.2635,-143.5000,-0.0060
-4.3427,8.9439,-0.5797,-0.2743,0.0686,-1.5000,0.1200,0.6400,0.3500,0.0087,-0.0197,0.0054,1350,1475,1502,1504,1000,1000,1505,1000,1000,1505,1205,1498,1139,-0.8861,-4.1800,0.0765,-0.0511,0.0353,0.8495,0.3838,0.3555,0.3271,0.3336,0.2204,0.0082,0.0438,0.2204,0.0082,0.0438,0.3000,0.0600,0.0002,0,-2.2635,-143.5000,-0.0060,-2.2635,-143.5000,-0.0060
-4.3089,8.9124,-0.5796,-0.2743,-0.0000,-1.6800,0.1200,0.6400,0.3500,0.0089,-0.0201,0.0077,1350,1472,1502,1502,1000,1000,1505,1000,1000,1505,1205,1498,1139,-2.3498,-2.9585,-0.9924,0.0496,-0.0509,0.9485,0.3867,0.3536,0.3287,0.3311,0.2204,0.0082,0.0438,0.2204,0.0082,0.0438,0.3000,0.0600,0.0002,0,-2.2635,-143.5000,-0.0060,-2.2635,-143.5000,-0.0060
-4.2780,8.8814,-0.5796,-0.2057,0.1371,-1.6800,0.1200,0.6400,0.3500,0.0093,-0.0207,0.0109,1350,1472,1502,1502,1000,1000,1505,1000,1000,1505,1205,1498,1139,-3.4500,-1.4085,-1.5276,0.2068,-0.2506,0.9779,0.3909,0.3505,0.3309,0.3276,0.2204,0.0082,0.0438,0.2204,0.0082,0.0438,0.3000,0.0600,0.0002,0,-2.2635,-143.5000,-0.0060,-2.2635,-143.5000,-0.0060
-4.2562,8.8547,-0.5750,-0.2057,0.0686,-1.6800,0.1200,0.6400,0.3510,0.0092,-0.0205,0.0109,1351,1472,1502,1502,1000,1000,1505,1000,1000,1505,1205,1498,1139,-3.3871,-1.8786,-1.1754,0.2484,-0.3088,1.1435,0.3916,0.3514,0.3322,0.3288,0.2204,0.0082,0.0438,0.2204,0.0082,0.0438,0.3000,0.0600,0.0002,0,-2.2635,-143.5000,-0.0060,-2.2635,-143.5000,-0.0060
-4.2420,8.8293,-0.5714,-0.1371,0.0686,-1.6800,0.1200,0.6400,0.3510,0.0075,-0.0209,0.0111,1351,1472,1502,1502,1000,1000,1505,1000,1000,1505,1205,1498,1139,0.4651,-0.8112,-1.1049,0.1059,-0.1547,1.1702,0.3905,0.3533,0.3337,0.3265,0.2204,0.0082,0.0438,0.2204,0.0082,0.0438,0.3000,0.0600,0.0002,0,-2.2635,-143.5000,-0.0060,-2.2635,-143.5000,-0.0060
-4.2369,8.8036,-0.5714,-0.1371,-0.0686,-1.9800,0.0000,0.6400,0.3540,0.0058,-0.0222,0.0092,1354,1467,1500,1502,1000,1000,1505,1000,1000,1505,1205,1498,1139,2.7248,1.7622,-0.3936,0.1218,-0.1005,1.0858,0.3912,0.3612,0.3351,0.3284,0.2204,0.0082,0.0438,0.2204,0.0082,0.0438,0.3000,0.0600,0.0002,0,-2.2635,-143.5000,-0.0060,-2.2635,-143.5000,-0.0060
-4.2289,8.7865,-0.5751,-0.0686,-0.0000,-2.1000,0.0000,0.6400,0.3550,0.0050,-0.0230,0.0065,1356,1465,1500,1504,1000,1000,1505,1000,1000,1505,1205,1498,1139,3.9363,3.5524,0.3286,-0.0844,0.1975,0.9588,0.3895,0.3664,0.3335,0.3305,0.2204,0.0082,0.0438,0.2204,0.0082,0.0438,0.3000,0.0600,0.0002,0,-2.2635,-143.5000,-0.0060,-2.2635,-143.5000,-0.0060
-4.2127,8.7644,-0.5829,-0.2057,0.1371,-2.1000,0.0000,0.6400,0.3560,0.0046,-0.0231,0.0058,1356,1465,1500,1502,1000,1000,1505,1000,1000,1505,1205,1498,1139,4.7428,4.0482,0.0154,-0.2870,0.4038,0.9417,0.3895,0.3687,0.3340,0.3317,0.2204,0.0082,0.0438,0.2204,0.0082,0.0438,0.3000,0.0600,0.0002,0,-2.2635,-143.5000,-0.0060,-2.2635,-143.5000,-0.0060
-4.1985,8.7391,-0.5904,-0.2057,0.1371,-2.4000,0.0000,0.6400,0.3590,0.0047,-0.0218,0.0041,1359,1460,1500,1502,1000,1000,1505,1000,1000,1505,1205,1498,1139,2.9827,1.2242,0.6060,-0.2909,0.3300,0.8960,0.3897,0.3720,0.3366,0.3377,0.2204,0.0082,0.0438,0.2204,0.0082,0.0438,0.3000,0.0600,0.0002,0,-2.2635,-143.5000,-0.0060,-2.2635,-143.5000,-0.0060
-4.1894,8.7191,-0.5927,-0.2743,0.0686,-2.6400,0.0000,0.6400,0.3600,0.0061,-0.0200,0.0044,1360,1456,1500,1502,1000,1000,1505,1000,1000,1505,1205,1498,1139,-1.4439,-2.9784,0.3898,-0.2581,0.1542,0.8801,0.3904,0.3695,0.3383,0.3418,0.2204,0.0082,0.0438,0.2204,0.0082,0.0438,0.3000,0.0600,0.0002,0,-2.2635,-143.5000,-0.0060,-2.2635,-143.5000,-0.0060
-4.1802,8.7061,-0.5950,-0.2057,0.0686,-2.6400,0.0000,0.6400,0.3600,0.0074,-0.0190,0.0063,1360,1456,1500,1502,1000,1000,1505,1000,1000,1505,1205,1498,1139,-4.3773,-5.0937,-0.2493,-0.0160,-0.0154,0.9370,0.3927,0.3653,0.3399,0.3420,0.2204,0.0082,0.0438,0.2204,0.0082,0.0438,0.3000,0.0600,0.0002,0,-2.2635,-143.5000,-0.0060,-2.2635,-143.5000,-0.0060
-4.1636,8.6892,-0.5937,-0.2743,0.0686,-2.6400,0.0000,0.6400,0.3600,0.0075,-0.0199,0.0072,1360,1456,1500,1502,1000,1000,1505,1000,1000,1505,1205,1498,1139,-4.6867,-2.8748,-0.4112,0.2783,-0.1954,0.9762,0.3946,0.3652,0.3398,0.3403,0.2204,0.0082,0.0438,0.2204,0.0082,0.0438,0.3000,0.0600,0.0002,0,-2.2635,-143.5000,-0.0060,-2.2635,-143.5000,-0.0060
-4.1482,8.6710,-0.5926,-0.2057,-0.0000,-2.6400,0.0000,0.6400,0.3610,0.0074,-0.0205,0.0096,1363,1457,1501,1504,1000,1000,1505,1000,1000,1505,1205,1498,1139,-4.5907,-1.6224,-1.0671,0.3151,-0.2618,1.0501,0.3984,0.3645,0.3427,0.3384,0.2204,0.0082,0.0438,0.2204,0.0082,0.0438,0.3000,0.0600,0.0002,0,-2.2635,-143.5000,-0.0060,-2.2635,-143.5000,-0.0060
-4.1330,8.6463,-0.5932,-0.2057,0.1371,-2.3400,0.4200,0.6400,0.3610,0.0068,-0.0203,0.0103,1361,1461,1507,1502,1000,1000,1505,1000,1000,1505,1205,1498,1139,-1.7619,0.2435,-1.4769,0.2763,-0.2584,1.1495,0.3983,0.3643,0.3442,0.3372,0.2204,0.0082,0.0438,0.2204,0.0082,0.0438,0.3000,0.0600,0.0002,0,-2.2635,-143.5000,-0.0060,-2.2635,-143.5000,-0.0060
-4.1137,8.6183,-0.5921,-0.2057,-0.0000,-2.3400,0.4200,0.6400,0.3610,0.0060,-0.0200,0.0122,1361,1461,1507,1502,1000,1000,1505,1000,1000,1505,1205,1498,1139,-0.0398,-0.1672,-1.5933,0.2036,-0.2584,1.2300,0.3992,0.3629,0.3471,0.3348,0.2204,0.0082,0.0438,0.2204,0.0082,0.0438,0.3000,0.0600,0.0002,0,-2.2635,-143.5000,-0.0060,-2.2635,-143.5000,-0.0060
-4.0798,8.5937,-0.5915,-0.2057,0.0686,-2.3400,0.4200,0.6400,0.3640,0.0050,-0.0204,0.0114,1364,1461,1507,1502,1000,1000,1505,1000,1000,1505,1205,1498,1139,1.9632,0.7692,-1.2339,0.0849,-0.1654,1.1324,0.4008,0.3680,0.3500,0.3372,0.2204,0.0082,0.0438,0.2204,0.0082,0.0438,0.3000,0.0600,0.0002,0,-2.2635,-143.5000,-0.0060,-2.2635,-143.5000,-0.0060
-4.0409,8.5716,-0.5909,-0.2743,0.0686,-2.3400,0.4200,0.6400,0.3650,0.0044,-0.0208,0.0092,1365,1461,1507,1502,1000,1000,1505,1000,1000,1505,1205,1498,1139,3.1337,1.8883,-0.5804,-0.0122,-0.0707,1.0596,0.3995,0.3722,0.3489,0.3394,0.2204,0.0082,0.0438,0.2204,0.0082,0.0438,0.3000,0.0600,0.0002,0,-2.2635,-143.5000,-0.0060,-2.2635,-143.5000,-0.0060
-4.0127,8.5470,-0.5881,-0.1371,-0.0000,-2.3400,0.9000,0.6400,0.3650,0.0043,-0.0203,0.0070,1365,1461,1515,1502,1000,1000,1505,1000,1000,1505,1205,1498,1139,3.1709,3.2469,0.2422,0.0274,0.0477,0.9410,0.3967,0.3739,0.3474,0.3420,0.2204,0.0082,0.0438,0.2204,0.0082,0.0438,0.3000,0.0600,0.0002,0,-2.2635,-143.5000,-0.0060,-2.2635,-143.5000,-0.0060
-4.0029,8.5152,-0.5849,-0.2743,-0.0000,-2.3400,1.0200,0.6400,0.3650,0.0054,-0.0193,0.0044,1366,1464,1533,1504,1000,1000,1505,1000,1000,1505,1205,1498,1139,0.8019,1.5697,0.9883,-0.1356,0.1765,0.9164,0.3940,0.3745,0.3448,0.3467,0.2204,0.0082,0.0438,0.2204,0.0082,0.0438,0.3000,0.0600,0.0002,0,-2.2635,-143.5000,-0.0060,-2.2635,-143.5000,-0.0060
-4.0061,8.4837,-0.5847,-0.2057,0.1371,-2.2800,2.2200,0.6400,0.3660,0.0053,-0.0171,0.0043,1366,1461,1537,1502,1000,1000,1505,1000,1000,1505,1205,1498,1139,1.2329,2.8728,0.5496,-0.2949,0.3490,0.8875,0.3927,0.3735,0.3479,0.3499,0.2204,0.0082,0.0438,0.2204,0.0082,0.0438,0.3000,0.0600,0.0002,0,-2.2635,-143.5000,-0.0060,-2.2635,-143.5000,-0.0060
-4.0145,8.4523,-0.5885,-0.0686,0.0686,-2.1000,2.5200,0.6400,0.3660,0.0061,-0.0159,0.0061,1366,1465,1542,1502,1000,1000,1505,1000,1000,1505,1205,1498,1139,0.4975,1.6680,0.2061,-0.3133,0.2993,0.8648,0.3940,0.3697,0.3502,0.3501,0.2204,0.0082,0.0438,0.2204,0.0082,0.0438,0.3000,0.0600,0.0002,0,-2.2635,-143.5000,-0.0060,-2.2635,-143.5000,-0.0060
-4.0157,8.4301,-0.5935,-0.1371,0.0686,-2.1000,2.7000,0.6400,0.3660,0.0066,-0.0145,0.0061,1366,1465,1545,1502,1000,1000,1505,1000,1000,1505,1205,1498,1139,-0.6752,-0.4689,0.1238,-0.2461,0.2239,0.7599,0.3932,0.3678,0.3511,0.3519,0.2204,0.0082,0.0438,0.2204,0.0082,0.0438,0.3000,0.0600,0.0002,0,-2.2635,-143.5000,-0.0060,-2.2635,-143.5000,-0.0060
-4.0055,8.4190,-0.5973,-0.2057,0.0686,-2.1000,2.8200,0.6400,0.3660,0.0067,-0.0137,0.0060,1366,1465,1547,1502,1000,1000,1505,1000,1000,1505,1205,1498,1139,-0.9818,-1.5530,-0.0534,-0.1685,0.1979,0.8936,0.3924,0.3670,0.3516,0.3530,0.2204,0.0082,0.0438,0.2204,0.0082,0.0438,0.3000,0.0600,0.0002,0,-2.2635,-143.5000,-0.0060,-2.2635,-143.5000,-0.0060
-3.9773,8.4141,-0.5985,-0.1371,-0.0000,-2.1000,2.8200,0.6400,0.3660,0.0063,-0.0128,0.0070,1366,1465,1547,1502,1000,1000,1505,1000,1000,1505,1205,1498,1139,-0.3551,-3.5374,-0.2389,-0.0232,0.0841,0.9797,0.3922,0.3655,0.3538,0.3525,0.2204,0.0082,0.0438,0.2204,0.0082,0.0438,0.3000,0.0600,0.0002,0,-2.2635,-143.5000,-0.0060,-2.2635,-143.5000,-0.0060
-3.9331,8.4109,-0.5968,-0.2057,0.0686,-1.8000,3.1200,0.6400,0.3660,0.0069,-0.0124,0.0072,1366,1472,1554,1504,1000,1000,1505,1000,1000,1505,1205,1498,1139,-0.3520,-2.9873,-0.2950,0.1475,-0.1301,0.9582,0.3925,0.3643,0.3539,0.3533,0.2204,0.0082,0.0438,0.2204,0.0082,0.0438,0.3000,0.0600,0.0002,0,-2.2635,-143.5000,-0.0060,-2.2635,-143.5000,-0.0060
-3.8884,8.4027,-0.5929,-0.2057,0.1371,-1.6800,3.6000,0.6400,0.3660,0.0074,-0.0115,0.0071,1366,1472,1560,1502,1000,1000,1505,1000,1000,1505,1205,1498,1139,-1.1140,-2.5700,-0.5198,0.3107,-0.3260,1.0186,0.3920,0.3630,0.3542,0.3548,0.2204,0.0082,0.0438,0.2204,0.0082,0.0438,0.3000,0.0600,0.0002,0,-2.2635,-143.5000,-0.0060,-2.2635,-143.5000,-0.0060
-3.8527,8.3860,-0.5864,-0.1371,0.1371,-1.6800,3.7200,0.6400,0.3660,0.0075,-0.0116,0.0079,1366,1472,1562,1502,1000,1000,1505,1000,1000,1505,1205,1498,1139,-1.4716,-1.6806,-0.4123,0.2925,-0.3268,1.0916,0.3929,0.3623,0.3548,0.3540,0.2204,0.0082,0.0438,0.2204,0.0082,0.0438,0.3000,0.0600,0.0002,0,-2.2635,-143.5000,-0.0060,-2.2635,-143.5000,-0.0060
-3.8345,8.3571,-0.5774,-0.1371,0.1371,-1.6800,4.2000,0.6400,0.3660,0.0074,-0.0110,0.0086,1366,1472,1570,1502,1000,1000,1505,1000,1000,1505,1205,1498,1139,-1.2699,-0.5147,-0.4340,0.2531,-0.2791,1.2005,0.3929,0.3610,0.3562,0.3538,0.2204,0.0082,0.0438,0.2204,0.0082,0.0438,0.3000,0.0600,0.0002,0,-2.2635,-143.5000,-0.0060,-2.2635,-143.5000,-0.0060
-3.8246,8.3194,-0.5687,-0.1371,-0.0000,-1.6800,4.3200,0.6400,0.3660,0.0072,-0.0109,0.0086,1366,1472,1572,1502,1000,1000,1505,1000,1000,1505,1205,1498,1139,-1.0698,0.1018,-0.3266,0.1936,-0.1776,1.1557,0.3928,0.3610,0.3565,0.3537,0.2204,0.0082,0.0438,0.2204,0.0082,0.0438,0.3000,0.0600,0.0002,0,-2.2635,-143.5000,-0.0060,-2.2635,-143.5000,-0.0060
-3.8293,8.2850,-0.5639,-0.2057,0.0686,-1.6800,4.6200,0.6400,0.3660,0.0070,-0.0107,0.0086,1366,1472,1577,1502,1000,1000,1505,1000,1000,1505,1205,1498,1139,-0.5151,1.3364,-0.3108,0.0832,-0.0924,1.1088,0.3923,0.3611,0.3569,0.3537,0.2204,0.0082,0.0438,0.2204,0.0082,0.0438,0.3000,0.0600,0.0002,0,-2.2635,-143.5000,-0.0060,-2.2635,-143.5000,-0.0060
-3.8364,8.2614,-0.5639,-0.1371,-0.0000,-1.6800,4.8000,0.6400,0.3660,0.0060,-0.0107,0.0080,1367,1475,1587,1504,1000,1000,1505,1000,1000,1505,1205,1498,1139,1.8289,2.2271,-0.1294,-0.0381,0.0200,1.0717,0.3906,0.3627,0.3573,0.3534,0.2204,0.0082,0.0438,0.2204,0.0082,0.0438,0.3000,0.0600,0.0002,0,-2.2635,-143.5000,-0.0060,-2.2635,-143.5000,-0.0060
-3.8334,8.2490,-0.5659,-0.2057,0.0686,-1.5000,5.2200,0.6400,0.3660,0.0058,-0.0102,0.0046,1366,1475,1587,1502,1000,1000,1505,1000,1000,1505,1205,1498,1139,3.1051,3.3375,0.6201,-0.1727,0.2522,1.1157,0.3867,0.3657,0.3546,0.3570,0.2204,0.0082,0.0438,0.2204,0.0082,0.0438,0.3000,0.0600,0.0002,0,-2.2635,-143.5000,-0.0060,-2.2635,-143.5000,-0.0060
-3.8174,8.2394,-0.5681,-0.2057,0.1371,-1.5000,5.2200,0.6400,0.3660,0.0054,-0.0103,0.0036,1366,1475,1587,1502,1000,1000,1505,1000,1000,1505,1205,1498,1139,4.0965,3.7390,1.1226,-0.1971,0.3182,0.9538,0.3853,0.3674,0.3539,0.3574,0.2204,0.0082,0.0438,0.2204,0.0082,0.0438,0.3000,0.0600,0.0002,0,-2.2635,-143.5000,-0.0060,-2.2635,-143.5000,-0.0060
-3.7882,8.2271,-0.5695,-0.1371,0.0686,-1.5000,5.2200,0.6400,0.3660,0.0056,-0.0096,0.0027,1366,1475,1587,1502,1000,1000,1505,1000,1000,1505,1205,1498,1139,3.3201,2.1296,1.2748,-0.1934,0.3129,0.7543,0.3840,0.3673,0.3535,0.3593,0.2204,0.0082,0.0438,0.2204,0.0082,0.0438,0.3000,0.0600,0.0002,0,-2.2635,-143.5000,-0.0060,-2.2635,-143.5000,-0.0060
-3.7522,8.2096,-0.5694,-0.2057,0.2057,-1.3800,5.4000,0.6400,0.3700,0.0066,-0.0082,0.0037,1370,1477,1590,1502,1000,1000,1505,1000,1000,1505,1205,1498,1139,1.6479,-0.0893,0.8148,-0.1455,0.2285,0.7763,0.3884,0.3680,0.3589,0.3647,0.2204,0.0082,0.0438,0.2204,0.0082,0.0438,0.3000,0.0600,0.0002,0,-2.2635,-143.5000,-0.0060,-2.2635,-143.5000,-0.0060
-3.7176,8.1844,-0.5707,-0.1371,0.1371,-1.3800,5.5200,0.6400,0.3710,0.0075,-0.0068,0.0066,1371,1477,1592,1502,1000,1000,1505,1000,1000,1505,1205,1498,1139,-0.6723,-2.5413,-0.2606,-0.1004,0.1536,0.9667,0.3919,0.3637,0.3633,0.3651,0.2204,0.0082,0.0438,0.2204,0.0082,0.0438,0.3000,0.0600,0.0002,0,-2.2635,-143.5000,-0.0060,-2.2635,-143.5000,-0.0060
-3.6919,8.1495,-0.5722,-0.2057,0.0686,-1.3800,5.5200,0.6400,0.3710,0.0084,-0.0063,0.0084,1373,1478,1592,1504,1000,1000,1505,1000,1000,1505,1205,1498,1139,-2.8350,-3.6321,-0.8975,-0.0081,-0.0469,1.0020,0.3941,0.3605,0.3648,0.3647,0.2204,0.0082,0.0438,0.2204,0.0082,0.0438,0.3000,0.0600,0.0002,0,-2.2635,-143.5000,-0.0060,-2.2635,-143.5000,-0.0060
-3.6697,8.1120,-0.5702,-0.2057,0.0686,-1.3800,5.5200,0.6400,0.3760,0.0086,-0.0067,0.0093,1376,1477,1592,1502,1000,1000,1505,1000,1000,1505,1205,1498,1139,-3.5209,-2.3866,-1.2806,0.1456,-0.2584,0.9605,0.4007,0.3647,0.3700,0.3686,0.2204,0.0082,0.0438,0.2204,0.0082,0.0438,0.3000,0.0600,0.0002,0,-2.2635,-143.5000,-0.0060,-2.2635,-143.5000,-0.0060
-3.6516,8.0854,-0.5689,-0.1371,0.0686,-1.3800,5.5200,0.6400,0.3760,0.0084,-0.0073,0.0121,1376,1477,1592,1502,1000,1000,1505,1000,1000,1505,1205,1498,1139,-2.9676,-0.9359,-1.7143,0.2353,-0.3068,1.0668,0.4038,0.3628,0.3725,0.3649,0.2204,0.0082,0.0438,0.2204,0.0082,0.0438,0.3000,0.0600,0.0002,0,-2.2635,-143.5000,-0.0060,-2.2635,-143.5000,-0.0060
-3.6366,8.0659,-0.5684,-0.2743,-0.0000,-1.3800,5.5200,0.6400,0.3760,0.0077,-0.0071,0.0123,1376,1477,1592,1502,1000,1000,1505,1000,1000,1505,1205,1498,1139,-1.5930,-1.3706,-1.5904,0.2097,-0.3011,1.2051,0.4031,0.3630,0.3736,0.3643,0.2204,0.0082,0.0438,0.2204,0.0082,0.0438,0.3000,0.0600,0.0002,0,-2.2635,-143.5000,-0.0060,-2.2635,-143.5000,-0.0060
-3.6230,8.0501,-0.5687,-0.1371,0.1371,-1.3800,5.5200,0.6400,0.3760,0.0065,-0.0081,0.0118,1376,1477,1592,1502,1000,1000,1505,1000,1000,1505,1205,1498,1139,1.0798,1.0537,-1.1857,0.0926,-0.1700,1.1639,0.4024,0.3657,0.3732,0.3626,0.2204,0.0082,0.0438,0.2204,0.0082,0.0438,0.3000,0.0600,0.0002,0,-2.2635,-143.5000,-0.0060,-2.2635,-143.5000,-0.0060
-3.6069,8.0331,-0.5686,-0.0686,-0.0000,-1.3800,5.5200,0.6400,0.3760,0.0053,-0.0085,0.0082,1376,1477,1592,1502,1000,1000,1505,1000,1000,1505,1205,1498,1139,3.7117,2.0655,0.0188,0.0081,-0.1185,1.0878,0.3980,0.3710,0.3703,0.3647,0.2204,0.0082,0.0438,0.2204,0.0082,0.0438,0.3000,0.0600,0.0002,0,-2.2635,-143.5000,-0.0060,-2.2635,-143.5000,-0.0060
-3.5828,8.0049,-0.5675,-0.0686,0.0686,-1.3800,5.5200,0.6400,0.3760,0.0046,-0.0081,0.0066,1378,1479,1593,1504,1000,1000,1505,1000,1000,1505,1205,1498,1139,5.2341,1.3909,0.4409,-0.0746,0.0443,0.9706,0.3953,0.3730,0.3698,0.3659,0.2204,0.0082,0.0438,0.2204,0.0082,0.0438,0.3000,0.0600,0.0002,0,-2.2635,-143.5000,-0.0060,-2.2635,-143.5000,-0.0060
-3.5545,7.9650,-0.5687,-0.1371,0.1371,-1.3800,5.5200,0.6400,0.3760,0.0048,-0.0077,0.0037,1376,1477,1592,1502,1000,1000,1505,1000,1000,1505,1205,1498,1139,4.7501,0.5999,0.9523,-0.1346,0.2217,0.8983,0.3921,0.3753,0.3672,0.3694,0.2204,0.0082,0.0438,0.2204,0.0082,0.0438,0.3000,0.0600,0.0002,0,-2.2635,-143.5000,-0.0060,-2.2635,-143.5000,-0.0060
-3.5253,7.9241,-0.5698,-0.0686,0.0686,-1.3800,5.5200,0.6400,0.3760,0.0051,-0.0074,0.0029,1376,1477,1592,1502,1000,1000,1505,1000,1000,1505,1205,1498,1139,3.8258,0.1872,1.4020,-0.1945,0.3033,0.8394,0.3914,0.3755,0.3663,0.3708,0.2204,0.0082,0.0438,0.2204,0.0082,0.0438,0.3000,0.0600,0.0002,0,-2.2635,-143.5000,-0.0060,-2.2635,-143.5000,-0.0060
-3.5060,7.8871,-0.5698,-0.2057,-0.0000,-1.3800,5.5200,0.6400,0.3760,0.0060,-0.0072,0.0025,1376,1477,1592,1502,1000,1000,1505,1000,1000,1505,1205,1498,1139,1.6668,-0.2034,1.3616,-0.1981,0.3151,0.7905,0.3917,0.3747,0.3653,0.3724,0.2204,0.0082,0.0438,0.2204,0.0082,0.0438,0.3000,0.0600,0.0002,0,-2.2635,-143.5000,-0.0060,-2.2635,-143.5000,-0.0060
-3.4901,7.8577,-0.5699,-0.1371,0.0686,-1.3800,5.2200,0.6400,0.3790,0.0061,-0.0080,0.0040,1379,1477,1587,1502,1000,1000,1505,1000,1000,1505,1205,1498,1139,1.3057,0.2102,0.8126,-0.1938,0.2234,0.8435,0.3971,0.3768,0.3689,0.3731,0.2204,0.0082,0.0438,0.2204,0.0082,0.0438,0.3000,0.0600,0.0002,0,-2.2635,-143.5000,-0.0060,-2.2635,-143.5000,-0.0060
-3.4686,7.8371,-0.5689,-0.2057,-0.0000,-1.3800,5.1000,0.6400,0.3800,0.0068,-0.0077,0.0048,1380,1477,1585,1502,1000,1000,1505,1000,1000,1505,1205,1498,1139,-0.3888,-0.7616,0.4790,-0.1047,0.0818,0.9364,0.3994,0.3761,0.3702,0.3743,0.2204,0.0082,0.0438,0.2204,0.0082,0.0438,0.3000,0.0600,0.0002,0,-2.2635,-143.5000,-0.0060,-2.2635,-143.5000,-0.0060
-3.4474,7.8236,-0.5683,-0.1371,-0.0000,-1.3800,5.1000,0.6400,0.3810,0.0074,-0.0076,0.0063,1381,1479,1585,1504,1000,1000,1505,1000,1000,1505,1205,1498,1139,-1.8793,-1.1436,-0.1146,-0.0029,-0.0059,0.9963,0.4023,0.3748,0.3724,0.3745,0.2204,0.0082,0.0438,0.2204,0.0082,0.0438,0.3000,0.0600,0.0002,0,-2.2635,-143.5000,-0.0060,-2.2635,-143.5000,-0.0060
-3.4198,7.8112,-0.5655,-0.0686,0.0686,-1.3800,4.6200,0.6400,0.3810,0.0074,-0.0084,0.0069,1381,1477,1577,1502,1000,1000,1505,1000,1000,1505,1205,1498,1139,-1.8534,-1.5611,-0.4778,0.1228,-0.1210,1.0701,0.4036,0.3752,0.3721,0.3731,0.2204,0.0082,0.0438,0.2204,0.0082,0.0438,0.3000,0.0600,0.0002,0,-2.2635,-143.5000,-0.0060,-2.2635,-143.5000,-0.0060
-3.3883,7.7902,-0.5649,-0.1371,-0.0000,-1.3800,4.6200,0.6400,0.3810,0.0069,-0.0081,0.0112,1381,1477,1577,1502,1000,1000,1505,1000,1000,1505,1205,1498,1139,-0.9947,-2.2197,-1.5260,0.2364,-0.1920,1.1081,0.4071,0.3710,0.3772,0.3687,0.2204,0.0082,0.0438,0.2204,0.0082,0.0438,0.3000,0.0600,0.0002,0,-2.2635,-143.5000,-0.0060,-2.2635,-143.5000,-0.0060
-3.3540,7.7593,-0.5715,-0.2057,-0.0000,-1.3800,4.5000,0.6400,0.3810,0.0070,-0.0077,0.0130,1381,1477,1575,1502,1000,1000,1505,1000,1000,1505,1205,1498,1139,-1.4624,-3.5574,-2.1104,0.3151,-0.2642,1.2556,0.4087,0.3686,0.3793,0.3673,0.2204,0.0082,0.0438,0.2204,0.0082,0.0438,0.3000,0.0600,0.0002,0,-2.2635,-143.5000,-0.0060,-2.2635,-143.5000,-0.0060
-3.3237,7.7235,-0.5776,-0.1371,-0.0686,-1.3800,4.5000,0.6400,0.3810,0.0067,-0.0077,0.0131,1381,1477,1575,1502,1000,1000,1505,1000,1000,1505,1205,1498,1139,-0.7449,-3.2726,-1.9412,0.2302,-0.2065,1.2761,0.4085,0.3689,0.3797,0.3668,0.2204,0.0082,0.0438,0.2204,0.0082,0.0438,0.3000,0.0600,0.0002,0,-2.2635,-143.5000,-0.0060,-2.2635,-143.5000,-0.0060
-3.2950,7.6810,-0.5848,-0.2057,-0.0000,-1.3800,4.5000,0.6400,0.3810,0.0059,-0.0081,0.0129,1381,1477,1575,1502,1000,1000,1505,1000,1000,1505,1205,1498,1139,0.7874,-2.2804,-1.8423,0.1472,-0.1644,1.1807,0.4079,0.3702,0.3800,0.3659,0.2204,0.0082,0.0438,0.2204,0.0082,0.0438,0.3000,0.0600,0.0002,0,-2.2635,-143.5000,-0.0060,-2.2635,-143.5000,-0.0060
-3.2672,7.6355,-0.5900,-0.1371,0.0686,-1.3800,4.5000,0.6400,0.3810,0.0051,-0.0085,0.0117,1381,1479,1575,1504,1000,1000,1505,1000,1000,1505,1205,1498,1139,2.4757,-1.0134,-1.3155,0.1243,-0.1533,1.0704,0.4063,0.3727,0.3790,0.3659,0.2204,0.0082,0.0438,0.2204,0.0082,0.0438,0.3000,0.0600,0.0002,0,-2.2635,-143.5000,-0.0060,-2.2635,-143.5000,-0.0060
-3.2332,7.5986,-0.5952,-0.2057,0.1371,-1.3800,4.5000,0.6400,0.3810,0.0046,-0.0094,0.0102,1381,1477,1575,1502,1000,1000,1505,1000,1000,1505,1205,1498,1139,3.5639,1.1044,-1.0143,0.0478,-0.0631,0.9800,0.4051,0.3756,0.3772,0.3660,0.2204,0.0082,0.0438,0.2204,0.0082,0.0438,0.3000,0.0600,0.0002,0,-2.2635,-143.5000,-0.0060,-2.2635,-143.5000,-0.0060
-3.1989,7.5734,-0.6031,-0.1371,-0.0686,-1.3800,4.3200,0.6400,0.3810,0.0041,-0.0102,0.0088,1381,1477,1572,1502,1000,1000,1505,1000,1000,1505,1205,1498,1139,4.4828,2.3224,-0.4158,-0.0364,0.1019,0.9379,0.4041,0.3784,0.3754,0.3661,0.2204,0.0082,0.0438,0.2204,0.0082,0.0438,0.3000,0.0600,0.0002,0,-2.2635,-143.5000,-0.0060,-2.2635,-143.5000,-0.0060
-3.1637,7.5503,-0.6095,-0.0686,-0.0000,-1.3800,4.3200,0.6400,0.3810,0.0038,-0.0107,0.0072,1381,1477,1572,1502,1000,1000,1505,1000,1000,1505,1205,1498,1139,4.9111,3.5981,0.0608,-0.1535,0.2869,0.8941,0.4028,0.3807,0.3736,0.3669,0.2204,0.0082,0.0438,0.2204,0.0082,0.0438,0.3000,0.0600,0.0002,0,-2.2635,-143.5000,-0.0060,-2.2635,-143.5000,-0.0060
-3.1298,7.5279,-0.6156,-0.1371,-0.1371,-1.3800,4.3200,0.6400,0.3810,0.0037,-0.0104,0.0060,1381,1477,1572,1502,1000,1000,1505,1000,1000,1505,1205,1498,1139,5.0040,2.8379,0.3772,-0.2238,0.3214,0.8108,0.4011,0.3816,0.3729,0.3683,0.2204,0.0082,0.0438,0.2204,0.0082,0.0438,0.3000,0.0600,0.0002,0,-2.2635,-143.5000,-0.0060,-2.2635,-143.5000,-0.0060
-3.0967,7.5136,-0.6236,-0.0686,0.0686,-1.3800,4.3200,0.6400,0.3810,0.0041,-0.0101,0.0067,1381,1477,1572,1502,1000,1000,1505,1000,1000,1505,1205,1498,1139,3.9958,2.3298,0.0383,-0.2713,0.3337,0.7716,0.4019,0.3803,0.3735,0.3683,0.2204,0.0082,0.0438,0.2204,0.0082,0.0438,0.3000,0.0600,0.0002,0,-2.2635,-143.5000,-0.0060,-2.2635,-143.5000,-0.0060
-3.0598,7.4994,-0.6319,-0.1371,0.0686,-1.3800,4.3200,0.6400,0.3850,0.0042,-0.0095,0.0063,1386,1479,1572,1504,1000,1000,1505,1000,1000,1505,1205,1498,1139,3.5495,1.0234,0.0404,-0.2471,0.3094,0.7989,0.4050,0.3841,0.3775,0.3734,0.2204,0.0082,0.0438,0.2204,0.0082,0.0438,0.3000,0.0600,0.0002,0,-2.2635,-143.5000,-0.0060,-2.2635,-143.5000,-0.0060
-3.0257,7.4852,-0.6397,-0.1371,0.0686,-1.3800,4.3200,0.6400,0.3860,0.0047,-0.0096,0.0069,1386,1477,1572,1502,1000,1000,1505,1000,1000,1505,1205,1498,1139,2.2070,1.2251,-0.4679,-0.1778,0.2790,0.8259,0.4072,0.3840,0.3786,0.3743,0.2204,0.0082,0.0438,0.2204,0.0082,0.0438,0.3000,0.0600,0.0002,0,-2.2635,-143.5000,-0.0060,-2.2635,-143.5000,-0.0060
