roll_imu,pitch_imu,yaw_imu,alpha,beta,roll_des,pitch_des,yaw_des,throttle_des,roll_pid,pitch_pid,yaw_pid,radio_ch1,radio_ch2,radio_ch3,radio_ch4,radio_ch5,radio_ch6,radio_ch7,radio_ch8,radio_ch9,radio_ch10,radio_ch11,radio_ch12,radio_ch13,GyroX,GyroY,GyroZ,AccX,AccY,AccZ,s1_command,s2_command,s3_command,s4_command,kp_roll,ki_roll,kd_roll,kp_pitch,ki_pitch,kd_pitch,kp_yaw,ki_yaw,kd_yaw,failsafeTriggered,kp_alphaRoll,ki_alphaRoll,kd_alphaRoll,kp_betaPitch,ki_betaPitch,kd_betaPitch
0.0000,0.0000,0.0000,9.1543,-2.1600,0.0000,0.0000,0.0000,0.0000,0.0000,0.0000,0.0000,998,1492,1497,1504,1000,1000,1505,1000,1000,1359,1005,1122,1131,0.0000,0.0000,0.0000,0.0000,0.0000,0.0000,0.0000,0.0000,0.0000,0.0000,0.2204,0.0082,0.0438,0.2204,0.0082,0.0438,0.3000,0.0600,0.0002,0,-0.3000,-100.0000,-0.0010,-0.3000,-100.0000,-0.0010
-40.3779,62.2719,-25.1313,0.0000,-0.0000,-0.4800,-0.1800,0.6400,0.0000,0.0900,-0.1377,0.0144,996,1492,1497,1502,1000,1000,1505,1000,1000,1359,1005,1122,1131,0.0077,0.0370,-0.0229,-0.0032,0.0013,0.9644,0.2420,0.0333,-0.2133,-0.0620,0.2204,0.0082,0.0438,0.2204,0.0082,0.0438,0.3000,0.0600,0.0002,0,-1.8693,-3.5000,-0.0022,-1.8693,-3.5000,-0.0022
-40.3363,62.2519,-25.0946,-0.0686,-0.1371,-0.4800,-0.1800,0.6400,0.0000,0.0899,-0.1376,0.0153,996,1492,1497,1502,1000,1000,1505,1000,1000,1359,1005,1122,1131,-0.0103,-0.0496,-0.0129,-0.0061,0.0002,1.0013,0.2428,0.0324,-0.2121,-0.0630,0.2204,0.0082,0.0438,0.2204,0.0082,0.0438,0.3000,0.0600,0.0002,0,-1.8693,-3.5000,-0.0022,-1.8693,-3.5000,-0.0022
-40.2935,62.2314,-25.0564,0.0000,-0.0686,-0.4800,-0.1800,0.6400,0.0000,0.0898,-0.1375,0.0152,996,1492,1497,1502,1000,1000,1505,1000,1000,1361,1005,1122,1131,-0.0232,-0.0568,0.0344,-0.0050,0.0008,1.0015,0.2425,0.0325,-0.2121,-0.0629,0.2204,0.0082,0.0438,0.2204,0.0082,0.0438,0.3000,0.0600,0.0002,0,-1.8747,-3.5000,-0.0022,-1.8747,-3.5000,-0.0022
-40.2509,62.2110,-25.0182,0.0000,-0.0686,-0.4800,-0.1800,0.6400,0.0000,0.0897,-0.1375,0.0152,996,1492,1497,1502,1000,1000,1505,1000,1000,1361,1005,1122,1131,-0.0020,-0.0344,0.0180,-0.0054,0.0010,0.9945,0.2424,0.0326,-0.2120,-0.0630,0.2204,0.0082,0.0438,0.2204,0.0082,0.0438,0.3000,0.0600,0.0002,0,-1.8747,-3.5000,-0.0022,-1.8747,-3.5000,-0.0022
-40.2078,62.1902,-24.9794,0.0000,-0.0000,-0.4800,-0.1800,0.6400,0.0000,0.0896,-0.1374,0.0151,996,1492,1497,1502,1000,1000,1505,1000,1000,1359,1005,1122,1131,0.0329,-0.0742,0.0531,-0.0044,0.0011,1.0032,0.2422,0.0327,-0.2119,-0.0630,0.2204,0.0082,0.0438,0.2204,0.0082,0.0438,0.3000,0.0600,0.0002,0,-1.8693,-3.5000,-0.0022,-1.8693,-3.5000,-0.0022
-40.1651,62.1698,-24.9416,0.0000,-0.0686,-0.4800,-0.1800,0.6400,0.0000,0.0895,-0.1374,0.0150,998,1492,1497,1504,1000,1000,1505,1000,1000,1359,1005,1122,1131,-0.0284,-0.0090,0.0921,-0.0050,0.0010,1.0048,0.2420,0.0329,-0.2119,-0.0629,0.2204,0.0082,0.0438,0.2204,0.0082,0.0438,0.3000,0.0600,0.0002,0,-1.8693,-3.5000,-0.0022,-1.8693,-3.5000,-0.0022
-40.1225,62.1495,-24.9035,0.0000,-0.0686,-0.4800,-0.1800,0.6400,0.0000,0.0894,-0.1374,0.0141,996,1492,1497,1502,1000,1000,1505,1000,1000,1359,1005,1122,1131,0.0239,-0.0500,0.0634,-0.0047,0.0010,1.0023,0.2409,0.0338,-0.2127,-0.0620,0.2204,0.0082,0.0438,0.2204,0.0082,0.0438,0.3000,0.0600,0.0002,0,-1.8693,-3.5000,-0.0022,-1.8693,-3.5000,-0.0022
-40.0787,62.1296,-24.8644,0.0686,-0.0686,-0.4800,-0.1800,0.6400,0.0000,0.0893,-0.1373,0.0149,996,1492,1497,1502,1000,1000,1505,1000,1000,1361,1005,1122,1131,-0.0222,0.0295,0.1293,-0.0075,-0.0037,1.0007,0.2416,0.0331,-0.2117,-0.0629,0.2204,0.0082,0.0438,0.2204,0.0082,0.0438,0.3000,0.0600,0.0002,0,-1.8747,-3.5000,-0.0022,-1.8747,-3.5000,-0.0022
-40.0363,62.1096,-24.8262,0.0000,-0.0000,-0.4800,-0.1800,0.6400,0.0000,0.0892,-0.1373,0.0152,996,1492,1497,1502,1000,1000,1505,1000,1000,1361,1005,1122,1131,-0.0391,-0.0142,0.0325,-0.0039,0.0016,1.0027,0.2417,0.0328,-0.2113,-0.0632,0.2204,0.0082,0.0438,0.2204,0.0082,0.0438,0.3000,0.0600,0.0002,0,-1.8747,-3.5000,-0.0022,-1.8747,-3.5000,-0.0022
-39.9947,62.0887,-24.7889,0.0000,-0.0686,-0.4800,-0.1800,0.6400,0.0000,0.0892,-0.1372,0.0153,996,1492,1497,1502,1000,1000,1505,1000,1000,1361,1005,1122,1131,-0.0340,-0.0833,-0.0032,-0.0052,-0.0001,0.9976,0.2417,0.0327,-0.2110,-0.0634,0.2204,0.0082,0.0438,0.2204,0.0082,0.0438,0.3000,0.0600,0.0002,0,-1.8747,-3.5000,-0.0022,-1.8747,-3.5000,-0.0022
-39.9516,62.0679,-24.7504,0.0000,-0.0000,-0.4800,-0.1800,0.6400,0.0000,0.0891,-0.1372,0.0152,996,1492,1497,1502,1000,1000,1505,1000,1000,1361,1005,1122,1131,-0.0569,-0.0281,0.0589,-0.0060,-0.0004,1.0036,0.2414,0.0329,-0.2111,-0.0633,0.2204,0.0082,0.0438,0.2204,0.0082,0.0438,0.3000,0.0600,0.0002,0,-1.8747,-3.5000,-0.0022,-1.8747,-3.5000,-0.0022
-39.9102,62.0474,-24.7136,0.0000,-0.1371,-0.4800,-0.1800,0.6400,0.0000,0.0890,-0.1371,0.0154,998,1492,1497,1504,1000,1000,1505,1000,1000,1361,1005,1122,1131,-0.0155,-0.0180,-0.0301,-0.0034,0.0012,1.0016,0.2415,0.0328,-0.2107,-0.0636,0.2204,0.0082,0.0438,0.2204,0.0082,0.0438,0.3000,0.0600,0.0002,0,-1.8747,-3.5000,-0.0022,-1.8747,-3.5000,-0.0022
-39.8681,62.0266,-24.6765,0.0000,-0.0686,-0.4800,-0.1800,0.6400,0.0000,0.0888,-0.1371,0.0142,996,1492,1497,1502,1000,1000,1505,1000,1000,1359,1005,1122,1131,0.0353,-0.0064,0.0317,-0.0032,0.0006,1.0007,0.2402,0.0340,-0.2117,-0.0625,0.2204,0.0082,0.0438,0.2204,0.0082,0.0438,0.3000,0.0600,0.0002,0,-1.8693,-3.5000,-0.0022,-1.8693,-3.5000,-0.0022
-39.8248,62.0066,-24.6379,0.0000,-0.0686,-0.4800,-0.1800,0.6400,0.0000,0.0888,-0.1370,0.0152,996,1492,1497,1502,1000,1000,1505,1000,1000,1359,1005,1122,1131,-0.0248,-0.1124,0.0389,-0.0036,0.0016,1.0038,0.2410,0.0330,-0.2105,-0.0635,0.2204,0.0082,0.0438,0.2204,0.0082,0.0438,0.3000,0.0600,0.0002,0,-1.8693,-3.5000,-0.0022,-1.8693,-3.5000,-0.0022
-39.7817,61.9856,-24.5990,0.0000,-0.0686,-0.4800,-0.1800,0.6400,0.0000,0.0887,-0.1370,0.0153,996,1492,1497,1502,1000,1000,1505,1000,1000,1361,1005,1122,1131,-0.0466,-0.1244,0.0252,-0.0049,0.0005,1.0005,0.2409,0.0330,-0.2104,-0.0635,0.2204,0.0082,0.0438,0.2204,0.0082,0.0438,0.3000,0.0600,0.0002,0,-1.8747,-3.5000,-0.0022,-1.8747,-3.5000,-0.0022
-39.7394,61.9647,-24.5611,-0.0686,-0.0686,-0.4800,-0.1800,0.6400,0.0000,0.0886,-0.1369,0.0153,996,1492,1497,1502,1000,1000,1505,1000,1000,1361,1005,1122,1131,-0.0602,-0.0512,0.0332,-0.0048,-0.0028,1.0037,0.2408,0.0331,-0.2103,-0.0636,0.2204,0.0082,0.0438,0.2204,0.0082,0.0438,0.3000,0.0600,0.0002,0,-1.8747,-3.5000,-0.0022,-1.8747,-3.5000,-0.0022
-39.6973,61.9443,-24.5234,0.0000,-0.2057,-0.4800,-0.1800,0.6400,0.0000,0.0885,-0.1369,0.0153,996,1492,1497,1502,1000,1000,1505,1000,1000,1359,1005,1121,1131,-0.0757,-0.0397,0.0081,-0.0048,-0.0013,1.0006,0.2408,0.0330,-0.2101,-0.0637,0.2204,0.0082,0.0438,0.2204,0.0082,0.0438,0.3000,0.0600,0.0002,0,-1.8693,-3.5000,-0.0022,-1.8693,-3.5000,-0.0022
-39.6560,61.9232,-24.4867,0.0000,-0.0686,-0.4800,-0.1800,0.6400,0.0000,0.0884,-0.1368,0.0155,998,1492,1497,1504,1000,1000,1505,1000,1000,1361,1005,1122,1131,-0.0173,-0.0683,-0.0559,-0.0068,0.0018,1.0041,0.2408,0.0329,-0.2097,-0.0640,0.2204,0.0082,0.0438,0.2204,0.0082,0.0438,0.3000,0.0600,0.0002,0,-1.8693,-3.5000,-0.0022,-1.8693,-3.5000,-0.0022
-39.6136,61.9020,-24.4489,0.0000,-0.1371,-0.4800,-0.1800,0.6400,0.0000,0.0883,-0.1368,0.0143,996,1492,1497,1502,1000,1000,1505,1000,1000,1361,1005,1122,1131,-0.0050,0.0088,0.0212,-0.0058,0.0027,1.0031,0.2395,0.0342,-0.2108,-0.0629,0.2204,0.0082,0.0438,0.2204,0.0082,0.0438,0.3000,0.0600,0.0002,0,-1.8747,-3.5000,-0.0022,-1.8747,-3.5000,-0.0022
-39.5715,61.8810,-24.4117,0.0000,-0.0000,-0.4800,-0.1800,0.6400,0.0000,0.0882,-0.1367,0.0154,996,1492,1497,1502,1000,1000,1505,1000,1000,1361,1005,1122,1131,-0.0112,-0.0938,-0.0190,-0.0064,-0.0007,1.0060,0.2404,0.0331,-0.2095,-0.0640,0.2204,0.0082,0.0438,0.2204,0.0082,0.0438,0.3000,0.0600,0.0002,0,-1.8747,-3.5000,-0.0022,-1.8747,-3.5000,-0.0022
-39.5289,61.8592,-24.3744,-0.0686,-0.0686,-0.4800,-0.1800,0.6400,0.0000,0.0881,-0.1367,0.0154,996,1492,1497,1502,1000,1000,1505,1000,1000,1361,1005,1122,1131,0.0503,-0.0865,-0.0280,-0.0028,0.0033,1.0037,0.2402,0.0332,-0.2094,-0.0640,0.2204,0.0082,0.0438,0.2204,0.0082,0.0438,0.3000,0.0600,0.0002,0,-1.8747,-3.5000,-0.0022,-1.8747,-3.5000,-0.0022
-39.4873,61.8381,-24.3375,0.0000,-0.1371,-0.4800,-0.1800,0.6400,0.0000,0.0880,-0.1367,0.0154,996,1492,1497,1502,1000,1000,1505,1000,1000,1361,1005,1122,1131,-0.0376,0.0068,-0.0009,-0.0074,0.0002,1.0025,0.2401,0.0333,-0.2094,-0.0640,0.2204,0.0082,0.0438,0.2204,0.0082,0.0438,0.3000,0.0600,0.0002,0,-1.8747,-3.5000,-0.0022,-1.8747,-3.5000,-0.0022
-39.4464,61.8172,-24.3010,0.0000,-0.1371,-0.4800,-0.1800,0.6400,0.0000,0.0879,-0.1366,0.0154,996,1492,1497,1502,1000,1000,1505,1000,1000,1361,1005,1122,1131,-0.0388,-0.0301,-0.0035,-0.0041,-0.0025,1.0054,0.2400,0.0333,-0.2092,-0.0641,0.2204,0.0082,0.0438,0.2204,0.0082,0.0438,0.3000,0.0600,0.0002,0,-1.8747,-3.5000,-0.0022,-1.8747,-3.5000,-0.0022
-39.4049,61.7963,-24.2640,0.0000,-0.0686,-0.4800,-0.1800,0.6400,0.0000,0.0879,-0.1366,0.0154,998,1492,1497,1504,1000,1000,1505,1000,1000,1361,1005,1122,1131,-0.0673,-0.0493,0.0077,-0.0036,-0.0017,1.0025,0.2398,0.0333,-0.2090,-0.0641,0.2204,0.0082,0.0438,0.2204,0.0082,0.0438,0.3000,0.0600,0.0002,0,-1.8747,-3.5000,-0.0022,-1.8747,-3.5000,-0.0022
-39.3638,61.7748,-24.2275,0.0000,-0.0686,-0.4800,-0.1800,0.6400,0.0000,0.0878,-0.1365,0.0149,996,1492,1497,1502,1000,1000,1505,1000,1000,1361,1005,1122,1131,-0.0526,-0.0298,-0.0814,-0.0025,-0.0030,1.0000,0.2392,0.0339,-0.2095,-0.0636,0.2204,0.0082,0.0438,0.2204,0.0082,0.0438,0.3000,0.0600,0.0002,0,-1.8747,-3.5000,-0.0022,-1.8747,-3.5000,-0.0022
-39.3115,61.7587,-24.1784,0.0000,0.1371,-0.4800,-0.1800,0.6400,0.0000,0.0877,-0.1365,0.0096,996,1492,1497,1502,1000,1000,1505,1000,1000,1361,1005,1122,1131,-0.1388,-0.1244,1.8350,-0.0251,0.0183,0.9890,0.2338,0.0392,-0.2145,-0.0584,0.2204,0.0082,0.0438,0.2204,0.0082,0.0438,0.3000,0.0600,0.0002,0,-1.8747,-3.5000,-0.0022,-1.8747,-3.5000,-0.0022
-39.2450,61.7461,-24.1134,0.0000,-0.0686,-0.4800,-0.1800,0.6400,0.0000,0.0874,-0.1364,0.0145,996,1492,1497,1502,1000,1000,1505,1000,1000,1361,1005,1122,1131,0.1969,-0.1445,0.4427,0.0130,-0.0148,0.9959,0.2383,0.0345,-0.2093,-0.0635,0.2204,0.0082,0.0438,0.2204,0.0082,0.0438,0.3000,0.0600,0.0002,0,-1.8747,-3.5000,-0.0022,-1.8747,-3.5000,-0.0022
-39.2165,61.7206,-24.0908,0.0000,0.2057,-0.4800,-0.1800,0.6400,0.0000,0.0876,-0.1364,0.0195,996,1492,1497,1502,1000,1000,1505,1000,1000,1361,1005,1122,1131,-0.3074,-0.0889,-1.3479,0.0036,-0.0057,1.0044,0.2434,0.0293,-0.2045,-0.0683,0.2204,0.0082,0.0438,0.2204,0.0082,0.0438,0.3000,0.0600,0.0002,0,-1.8747,-3.5000,-0.0022,-1.8747,-3.5000,-0.0022
-39.1834,61.6954,-24.0629,0.0000,-0.1371,-0.4800,-0.1800,0.6400,0.0000,0.0874,-0.1364,0.0143,996,1492,1497,1502,1000,1000,1505,1000,1000,1359,1005,1122,1131,-0.0056,0.0245,0.2545,-0.0242,0.0031,0.9946,0.2381,0.0347,-0.2094,-0.0634,0.2204,0.0082,0.0438,0.2204,0.0082,0.0438,0.3000,0.0600,0.0002,0,-1.8693,-3.5000,-0.0022,-1.8693,-3.5000,-0.0022
-39.1313,61.6786,-24.0134,0.0000,-0.0000,-0.4800,-0.1800,0.6400,0.0000,0.0872,-0.1363,0.0139,998,1492,1497,1504,1000,1000,1505,1000,1000,1361,1005,1122,1131,-0.0113,0.0282,0.5414,0.0132,-0.0069,1.0082,0.2375,0.0352,-0.2097,-0.0630,0.2204,0.0082,0.0438,0.2204,0.0082,0.0438,0.3000,0.0600,0.0002,0,-1.8693,-3.5000,-0.0022,-1.8693,-3.5000,-0.0022
-39.0934,61.6568,-23.9812,0.0000,-0.0000,-0.4800,-0.1800,0.6400,0.0000,0.0872,-0.1363,0.0173,996,1492,1497,1502,1000,1000,1505,1000,1000,1361,1005,1122,1131,-0.1158,-0.0716,-0.8803,-0.0078,0.0077,1.0089,0.2407,0.0318,-0.2062,-0.0663,0.2204,0.0082,0.0438,0.2204,0.0082,0.0438,0.3000,0.0600,0.0002,0,-1.8747,-3.5000,-0.0022,-1.8747,-3.5000,-0.0022
-39.0673,61.6273,-23.9625,0.0000,-0.0000,-0.4800,-0.1800,0.6400,0.0000,0.0870,-0.1362,0.0174,996,1492,1497,1502,1000,1000,1505,1000,1000,1359,1005,1122,1131,0.1808,0.0276,-0.7821,-0.0151,0.0099,1.0027,0.2407,0.0318,-0.2058,-0.0667,0.2204,0.0082,0.0438,0.2204,0.0082,0.0438,0.3000,0.0600,0.0002,0,-1.8693,-3.5000,-0.0022,-1.8693,-3.5000,-0.0022
-39.0257,61.6072,-23.9259,0.0000,-0.2057,-0.4800,-0.1800,0.6400,0.0000,0.0870,-0.1361,0.0133,996,1492,1497,1502,1000,1000,1505,1000,1000,1359,1005,1122,1131,0.0234,-0.1155,0.6624,-0.0049,0.0011,1.0013,0.2365,0.0358,-0.2098,-0.0625,0.2204,0.0082,0.0438,0.2204,0.0082,0.0438,0.3000,0.0600,0.0002,0,-1.8693,-3.5000,-0.0022,-1.8693,-3.5000,-0.0022
-38.9839,61.5870,-23.8889,0.0000,-0.0000,-0.4800,-0.1800,0.6400,0.0000,0.0868,-0.1362,0.0178,996,1492,1497,1502,1000,1000,1505,1000,1000,1361,1005,1122,1131,0.1848,0.1266,-0.7086,0.0013,-0.0139,1.0025,0.2408,0.0316,-0.2053,-0.0671,0.2204,0.0082,0.0438,0.2204,0.0082,0.0438,0.3000,0.0600,0.0002,0,-1.8747,-3.5000,-0.0022,-1.8747,-3.5000,-0.0022
-38.9571,61.5595,-23.8688,0.0000,-0.1371,-0.4800,-0.1800,0.6400,0.0000,0.0869,-0.1361,0.0174,996,1492,1497,1502,1000,1000,1505,1000,1000,1361,1005,1122,1131,-0.1795,0.0154,-0.7027,-0.0164,0.0005,0.9984,0.2405,0.0317,-0.2056,-0.0666,0.2204,0.0082,0.0438,0.2204,0.0082,0.0438,0.3000,0.0600,0.0002,0,-1.8747,-3.5000,-0.0022,-1.8747,-3.5000,-0.0022
-38.9207,61.5370,-23.8374,0.0686,-0.0686,-0.4800,-0.1800,0.6400,0.0000,0.0868,-0.1360,0.0148,998,1492,1497,1504,1000,1000,1505,1000,1000,1361,1005,1122,1131,0.0469,-0.0517,0.1754,-0.0037,0.0067,1.0037,0.2376,0.0344,-0.2080,-0.0641,0.2204,0.0082,0.0438,0.2204,0.0082,0.0438,0.3000,0.0600,0.0002,0,-1.8747,-3.5000,-0.0022,-1.8747,-3.5000,-0.0022
-38.8747,61.5175,-23.7953,-0.0686,0.0686,-0.4800,-0.1800,0.6400,0.0000,0.0867,-0.1360,0.0142,996,1492,1497,1502,1000,1000,1505,1000,1000,1361,1005,1122,1131,-0.1203,-0.0346,0.1498,0.0045,-0.0060,1.0082,0.2369,0.0351,-0.2085,-0.0634,0.2204,0.0082,0.0438,0.2204,0.0082,0.0438,0.3000,0.0600,0.0002,0,-1.8747,-3.5000,-0.0022,-1.8747,-3.5000,-0.0022
-38.8399,61.4934,-23.7660,0.0000,-0.2057,-0.4800,-0.1800,0.6400,0.0000,0.0866,-0.1359,0.0175,996,1492,1497,1502,1000,1000,1505,1000,1000,1361,1005,1122,1131,0.0073,-0.0520,-0.7052,-0.0174,0.0106,0.9948,0.2400,0.0318,-0.2050,-0.0668,0.2204,0.0082,0.0438,0.2204,0.0082,0.0438,0.3000,0.0600,0.0002,0,-1.8747,-3.5000,-0.0022,-1.8747,-3.5000,-0.0022
-38.8038,61.4695,-23.7348,0.0000,0.1371,-0.4800,-0.1800,0.6400,0.0000,0.0865,-0.1359,0.0148,996,1492,1497,1502,1000,1000,1505,1000,1000,1361,1005,1122,1131,0.0570,-0.0563,0.1278,-0.0014,-0.0044,1.0020,0.2372,0.0345,-0.2075,-0.0642,0.2204,0.0082,0.0438,0.2204,0.0082,0.0438,0.3000,0.0600,0.0002,0,-1.8747,-3.5000,-0.0022,-1.8747,-3.5000,-0.0022
-38.7540,61.4528,-23.6880,-0.1371,-0.1371,-0.4800,-0.1800,0.6400,0.0000,0.0865,-0.1358,0.0133,996,1492,1497,1502,1000,1000,1505,1000,1000,1361,1005,1122,1131,-0.1715,0.0198,0.7534,-0.0060,-0.0009,1.0048,0.2356,0.0360,-0.2090,-0.0627,0.2204,0.0082,0.0438,0.2204,0.0082,0.0438,0.3000,0.0600,0.0002,0,-1.8747,-3.5000,-0.0022,-1.8747,-3.5000,-0.0022
-38.7103,61.4325,-23.6488,-0.0686,-0.0000,-0.4800,-0.1800,0.6400,0.0000,0.0863,-0.1358,0.0162,996,1492,1497,1502,1000,1000,1505,1000,1000,1361,1005,1122,1131,0.1090,-0.0001,-0.2167,-0.0104,-0.0002,1.0009,0.2382,0.0334,-0.2059,-0.0657,0.2204,0.0082,0.0438,0.2204,0.0082,0.0438,0.3000,0.0600,0.0002,0,-1.8747,-3.5000,-0.0022,-1.8747,-3.5000,-0.0022
-38.6695,61.4101,-23.6135,-0.1371,-0.2057,-0.4800,-0.1800,0.6400,0.0000,0.0863,-0.1357,0.0148,998,1492,1497,1504,1000,1000,1505,1000,1000,1359,1005,1122,1131,-0.0975,-0.1932,0.1680,0.0043,0.0020,1.0000,0.2368,0.0346,-0.2071,-0.0642,0.2204,0.0082,0.0438,0.2204,0.0082,0.0438,0.3000,0.0600,0.0002,0,-1.8747,-3.5000,-0.0022,-1.8747,-3.5000,-0.0022
-38.6204,61.3924,-23.5683,0.0686,-0.0000,-0.4800,-0.1800,0.6400,0.0000,0.0861,-0.1357,0.0120,996,1492,1497,1502,1000,1000,1505,1000,1000,1359,1005,1122,1131,0.0252,0.0396,0.8276,-0.0101,0.0053,1.0026,0.2339,0.0376,-0.2098,-0.0617,0.2204,0.0082,0.0438,0.2204,0.0082,0.0438,0.3000,0.0600,0.0002,0,-1.8693,-3.5000,-0.0022,-1.8693,-3.5000,-0.0022
-38.5717,61.3739,-23.5224,0.0000,0.0686,-0.4800,-0.1800,0.6400,0.0000,0.0860,-0.1356,0.0148,996,1492,1497,1502,1000,1000,1505,1000,1000,1361,1005,1122,1131,0.0218,-0.0461,0.2341,-0.0073,-0.0013,1.0030,0.2365,0.0348,-0.2068,-0.0645,0.2204,0.0082,0.0438,0.2204,0.0082,0.0438,0.3000,0.0600,0.0002,0,-1.8747,-3.5000,-0.0022,-1.8747,-3.5000,-0.0022
-38.5315,61.3527,-23.4867,0.0000,-0.0686,-0.4800,-0.1800,0.6400,0.0000,0.0860,-0.1355,0.0157,996,1492,1497,1502,1000,1000,1505,1000,1000,1361,1005,1122,1131,-0.0916,-0.1697,-0.0935,0.0002,-0.0022,1.0021,0.2372,0.0339,-0.2058,-0.0653,0.2204,0.0082,0.0438,0.2204,0.0082,0.0438,0.3000,0.0600,0.0002,0,-1.8747,-3.5000,-0.0022,-1.8747,-3.5000,-0.0022
-38.4857,61.3323,-23.4445,-0.0686,0.1371,-0.4800,-0.1800,0.6400,0.0000,0.0858,-0.1355,0.0137,996,1492,1497,1502,1000,1000,1505,1000,1000,1361,1005,1122,1131,-0.0643,-0.0576,0.5486,-0.0077,-0.0062,1.0006,0.2351,0.0360,-0.2076,-0.0635,0.2204,0.0082,0.0438,0.2204,0.0082,0.0438,0.3000,0.0600,0.0002,0,-1.8747,-3.5000,-0.0022,-1.8747,-3.5000,-0.0022
-38.4355,61.3128,-23.3979,0.0686,-0.0000,-0.4800,-0.1800,0.6400,0.0000,0.0857,-0.1354,0.0144,996,1492,1497,1502,1000,1000,1505,1000,1000,1361,1005,1122,1131,-0.0619,-0.1908,0.3928,-0.0116,0.0067,0.9982,0.2356,0.0353,-0.2068,-0.0641,0.2204,0.0082,0.0438,0.2204,0.0082,0.0438,0.3000,0.0600,0.0002,0,-1.8747,-3.5000,-0.0022,-1.8747,-3.5000,-0.0022
-38.3951,61.2905,-23.3623,-0.0686,-0.0686,-0.4800,-0.1800,0.6400,0.0000,0.0856,-0.1354,0.0160,998,1492,1497,1504,2008,1000,1505,1000,1000,1359,1005,1122,1131,0.0302,-0.1748,-0.1787,0.0048,0.0090,1.0093,0.2370,0.0338,-0.2050,-0.0658,0.2204,0.0082,0.0438,0.2204,0.0082,0.0438,0.3000,0.0600,0.0002,0,-1.8693,-3.5000,-0.0022,-1.8693,-3.5000,-0.0022
-38.3546,61.2677,-23.3272,0.0000,-0.0000,-0.4800,-0.1800,0.6400,0.0000,0.0855,-0.1354,0.0142,996,1492,1497,1502,2008,1000,1505,1000,1000,1359,1005,1121,1131,0.0651,0.0038,0.0722,-0.0054,-0.0007,0.9946,0.2352,0.0357,-0.2067,-0.0642,0.2204,0.0082,0.0438,0.2204,0.0082,0.0438,0.3000,0.0600,0.0002,0,-1.8693,-3.5000,-0.0022,-1.8693,-3.5000,-0.0022
-38.3106,61.2467,-23.2875,-0.0686,-0.0686,-0.4800,-0.1800,0.6400,0.0000,0.0854,-0.1353,0.0152,996,1492,1497,1502,2008,1000,1505,1000,1000,1359,1005,1121,1131,0.0504,-0.2312,0.1155,-0.0074,-0.0063,0.9985,0.2359,0.0347,-0.2055,-0.0650,0.2204,0.0082,0.0438,0.2204,0.0082,0.0438,0.3000,0.0600,0.0002,0,-1.8693,-3.5000,-0.0022,-1.8693,-3.5000,-0.0022
-38.2695,61.2251,-23.2513,0.0000,-0.0686,-0.4800,-0.1800,0.6400,0.0000,0.0854,-0.1353,0.0158,996,1492,1497,1502,2008,1000,1505,1000,1000,1359,1005,1121,1131,-0.0958,-0.0524,-0.0873,-0.0036,-0.0060,1.0037,0.2365,0.0341,-0.2049,-0.0657,0.2204,0.0082,0.0438,0.2204,0.0082,0.0438,0.3000,0.0600,0.0002,0,-1.8693,-3.5000,-0.0022,-1.8693,-3.5000,-0.0022
-38.2305,61.2019,-23.2175,-0.0686,-0.0686,-0.4800,-0.1800,0.6400,0.0000,0.0853,-0.1353,0.0163,996,1492,1497,1502,2008,1000,1505,1000,1000,1359,1005,1121,1131,-0.0437,-0.0119,-0.2632,-0.0038,0.0042,1.0045,0.2369,0.0337,-0.2042,-0.0663,0.2204,0.0082,0.0438,0.2204,0.0082,0.0438,0.3000,0.0600,0.0002,0,-1.8693,-3.5000,-0.0022,-1.8693,-3.5000,-0.0022
