roll_imu,pitch_imu,yaw_imu,alpha,beta,roll_des,pitch_des,yaw_des,throttle_des,roll_pid,pitch_pid,yaw_pid,radio_ch1,radio_ch2,radio_ch3,radio_ch4,radio_ch5,radio_ch6,radio_ch7,radio_ch8,radio_ch9,radio_ch10,radio_ch11,radio_ch12,radio_ch13,GyroX,GyroY,GyroZ,AccX,AccY,AccZ,s1_command,s2_command,s3_command,s4_command,kp_roll,ki_roll,kd_roll,kp_pitch,ki_pitch,kd_pitch,kp_yaw,ki_yaw,kd_yaw,failsafeTriggered,kp_alphaRoll,ki_alphaRoll,kd_alphaRoll,kp_betaPitch,ki_betaPitch,kd_betaPitch
0.0000,0.0000,0.0000,9.2914,-2.3657,0.0000,0.0000,0.0000,0.0000,0.0000,0.0000,0.0000,998,1492,1497,1504,1000,1000,1505,1000,1000,1379,1005,1198,1131,0.0000,0.0000,0.0000,0.0000,0.0000,0.0000,0.0000,0.0000,0.0000,0.0000,0.2204,0.0082,0.0438,0.2204,0.0082,0.0438,0.3000,0.0600,0.0002,0,-0.3000,-100.0000,-0.0010,-0.3000,-100.0000,-0.0010
-4.8739,16.6263,-0.7616,0.0000,-0.0686,-0.4800,-0.1800,0.6400,0.0000,0.0111,-0.0370,0.0044,996,1492,1497,1502,1000,1000,1505,1000,1000,1379,1005,1198,1131,-0.0711,-0.0303,-0.1699,-0.0046,-0.0033,0.9617,0.0526,0.0215,-0.0437,-0.0304,0.2204,0.0082,0.0438,0.2204,0.0082,0.0438,0.3000,0.0600,0.0002,0,-1.9233,-3.5000,-0.0030,-1.9233,-3.5000,-0.0030
-4.8615,16.5820,-0.7595,0.0686,-0.0686,-0.4800,-0.1800,0.6400,0.0000,0.0111,-0.0369,0.0051,996,1492,1497,1502,1000,1000,1505,1000,1000,1379,1005,1198,1131,-0.0559,-0.0246,-0.0656,-0.0028,-0.0020,0.9960,0.0531,0.0208,-0.0429,-0.0309,0.2204,0.0082,0.0438,0.2204,0.0082,0.0438,0.3000,0.0600,0.0002,0,-1.9233,-3.5000,-0.0030,-1.9233,-3.5000,-0.0030
-4.8489,16.5373,-0.7573,0.0000,-0.0686,-0.4800,-0.1800,0.6400,0.0000,0.0110,-0.0368,0.0055,996,1492,1497,1502,1000,1000,1505,1000,1000,1379,1005,1198,1131,-0.0402,-0.0162,-0.1785,-0.0021,-0.0026,1.0057,0.0534,0.0203,-0.0424,-0.0313,0.2204,0.0082,0.0438,0.2204,0.0082,0.0438,0.3000,0.0600,0.0002,0,-1.9233,-3.5000,-0.0030,-1.9233,-3.5000,-0.0030
-4.8361,16.4925,-0.7549,0.0686,-0.1371,-0.4800,-0.1800,0.6400,0.0000,0.0110,-0.0367,0.0052,996,1492,1497,1502,1000,1000,1505,1000,1000,1379,1005,1198,1131,-0.0449,-0.0296,-0.0928,-0.0044,-0.0039,1.0022,0.0530,0.0205,-0.0426,-0.0309,0.2204,0.0082,0.0438,0.2204,0.0082,0.0438,0.3000,0.0600,0.0002,0,-1.9233,-3.5000,-0.0030,-1.9233,-3.5000,-0.0030
-4.8238,16.4476,-0.7521,0.0000,-0.0686,-0.4800,-0.1800,0.6400,0.0000,0.0110,-0.0366,0.0052,996,1492,1497,1502,1000,1000,1505,1000,1000,1379,1005,1197,1131,0.0233,-0.0973,-0.0862,-0.0009,-0.0042,0.9956,0.0527,0.0205,-0.0424,-0.0308,0.2204,0.0082,0.0438,0.2204,0.0082,0.0438,0.3000,0.0600,0.0002,0,-1.9233,-3.5000,-0.0030,-1.9233,-3.5000,-0.0030
-4.8109,16.4022,-0.7496,0.0686,-0.0686,-0.4800,-0.1800,0.6400,0.0000,0.0109,-0.0365,0.0054,998,1493,1497,1504,1000,1000,1505,1000,1000,1379,1005,1197,1131,0.0154,-0.0368,-0.1324,-0.0031,-0.0041,1.0001,0.0529,0.0202,-0.0421,-0.0310,0.2204,0.0082,0.0438,0.2204,0.0082,0.0438,0.3000,0.0600,0.0002,0,-1.9233,-3.5000,-0.0030,-1.9233,-3.5000,-0.0030
-4.7982,16.3565,-0.7469,0.0686,-0.0686,-0.4800,-0.1800,0.6400,0.0000,0.0109,-0.0364,0.0041,996,1492,1497,1502,1000,1000,1505,1000,1000,1379,1005,1197,1131,-0.0411,-0.1237,-0.0586,-0.0015,-0.0032,1.0012,0.0515,0.0213,-0.0432,-0.0296,0.2204,0.0082,0.0438,0.2204,0.0082,0.0438,0.3000,0.0600,0.0002,0,-1.9233,-3.5000,-0.0030,-1.9233,-3.5000,-0.0030
-4.7855,16.3110,-0.7433,0.0000,-0.1371,-0.4800,-0.1800,0.6400,0.0000,0.0109,-0.0363,0.0051,996,1492,1497,1502,1000,1000,1505,1000,1000,1379,1005,1198,1131,-0.0186,-0.0875,-0.0574,-0.0025,-0.0045,1.0035,0.0524,0.0203,-0.0421,-0.0305,0.2204,0.0082,0.0438,0.2204,0.0082,0.0438,0.3000,0.0600,0.0002,0,-1.9233,-3.5000,-0.0030,-1.9233,-3.5000,-0.0030
-4.7728,16.2652,-0.7396,0.0000,-0.0686,-0.4800,-0.1800,0.6400,0.0000,0.0109,-0.0362,0.0049,996,1492,1497,1502,1000,1000,1505,1000,1000,1379,1005,1198,1131,-0.0712,-0.1281,-0.0139,-0.0027,-0.0031,1.0051,0.0520,0.0203,-0.0422,-0.0302,0.2204,0.0082,0.0438,0.2204,0.0082,0.0438,0.3000,0.0600,0.0002,0,-1.9233,-3.5000,-0.0030,-1.9233,-3.5000,-0.0030
-4.7595,16.2196,-0.7351,0.0000,-0.0686,-0.4800,-0.1800,0.6400,0.0000,0.0109,-0.0361,0.0048,996,1492,1497,1502,1000,1000,1505,1000,1000,1379,1005,1198,1131,-0.0714,-0.1879,0.0455,-0.0042,-0.0028,1.0032,0.0518,0.0203,-0.0421,-0.0300,0.2204,0.0082,0.0438,0.2204,0.0082,0.0438,0.3000,0.0600,0.0002,0,-1.9233,-3.5000,-0.0030,-1.9233,-3.5000,-0.0030
-4.7463,16.1742,-0.7304,0.0686,-0.0686,-0.4800,-0.1800,0.6400,0.0000,0.0108,-0.0360,0.0046,996,1492,1497,1502,1000,1000,1505,1000,1000,1379,1005,1198,1131,-0.0078,-0.0885,0.1230,-0.0045,-0.0050,1.0002,0.0514,0.0206,-0.0422,-0.0298,0.2204,0.0082,0.0438,0.2204,0.0082,0.0438,0.3000,0.0600,0.0002,0,-1.9233,-3.5000,-0.0030,-1.9233,-3.5000,-0.0030
-4.7335,16.1289,-0.7249,0.0686,-0.0686,-0.4800,-0.1800,0.6400,0.0000,0.0108,-0.0359,0.0043,998,1492,1497,1504,1000,1000,1505,1000,1000,1379,1005,1197,1131,-0.0799,-0.0880,0.2344,-0.0036,-0.0039,0.9991,0.0510,0.0208,-0.0425,-0.0293,0.2204,0.0082,0.0438,0.2204,0.0082,0.0438,0.3000,0.0600,0.0002,0,-1.9233,-3.5000,-0.0030,-1.9233,-3.5000,-0.0030
-4.7199,16.0837,-0.7187,0.0000,-0.1371,-0.4800,-0.1800,0.6400,0.0000,0.0108,-0.0358,0.0034,996,1492,1497,1502,1000,1000,1505,1000,1000,1379,1005,1198,1131,-0.0039,-0.0945,0.2040,-0.0052,-0.0042,0.9977,0.0500,0.0216,-0.0432,-0.0284,0.2204,0.0082,0.0438,0.2204,0.0082,0.0438,0.3000,0.0600,0.0002,0,-1.9233,-3.5000,-0.0030,-1.9233,-3.5000,-0.0030
-4.7058,16.0386,-0.7127,0.0686,-0.0686,-0.4800,-0.1800,0.6400,0.0000,0.0107,-0.0357,0.0044,996,1492,1497,1502,1000,1000,1505,1000,1000,1379,1005,1198,1131,0.0141,-0.0843,0.2055,-0.0053,-0.0053,1.0018,0.0508,0.0206,-0.0421,-0.0293,0.2204,0.0082,0.0438,0.2204,0.0082,0.0438,0.3000,0.0600,0.0002,0,-1.9233,-3.5000,-0.0030,-1.9233,-3.5000,-0.0030
-4.6924,15.9931,-0.7074,0.0686,-0.0686,-0.4800,-0.1800,0.6400,0.0000,0.0107,-0.0356,0.0047,996,1492,1497,1502,1000,1000,1505,1000,1000,1379,1005,1197,1131,-0.0470,-0.1637,0.0926,-0.0036,-0.0047,1.0004,0.0510,0.0202,-0.0416,-0.0295,0.2204,0.0082,0.0438,0.2204,0.0082,0.0438,0.3000,0.0600,0.0002,0,-1.9233,-3.5000,-0.0030,-1.9233,-3.5000,-0.0030
-4.6787,15.9471,-0.7019,0.0000,-0.1371,-0.4800,-0.1800,0.6400,0.0000,0.0107,-0.0355,0.0045,996,1492,1497,1502,1000,1000,1505,1000,1000,1379,1005,1197,1131,-0.0387,-0.1379,0.1635,-0.0002,-0.0019,1.0004,0.0507,0.0203,-0.0417,-0.0293,0.2204,0.0082,0.0438,0.2204,0.0082,0.0438,0.3000,0.0600,0.0002,0,-1.9233,-3.5000,-0.0030,-1.9233,-3.5000,-0.0030
-4.6655,15.9011,-0.6970,0.0686,-0.0686,-0.4800,-0.1800,0.6400,0.0000,0.0107,-0.0354,0.0049,996,1492,1497,1502,1000,1000,1505,1000,1000,1379,1005,1197,1131,0.0303,-0.1165,0.0261,-0.0033,-0.0046,0.9977,0.0510,0.0198,-0.0411,-0.0297,0.2204,0.0082,0.0438,0.2204,0.0082,0.0438,0.3000,0.0600,0.0002,0,-1.9233,-3.5000,-0.0030,-1.9233,-3.5000,-0.0030
-4.6521,15.8558,-0.6931,0.0686,-0.0686,-0.4800,-0.1800,0.6400,0.0000,0.0107,-0.0353,0.0050,998,1492,1497,1504,1000,1000,1505,1000,1000,1379,1005,1197,1131,-0.1178,-0.0906,-0.0031,-0.0012,-0.0006,1.0049,0.0510,0.0196,-0.0410,-0.0296,0.2204,0.0082,0.0438,0.2204,0.0082,0.0438,0.3000,0.0600,0.0002,0,-1.9233,-3.5000,-0.0030,-1.9233,-3.5000,-0.0030
-4.6389,15.8106,-0.6892,0.0000,-0.2057,-0.4800,-0.1800,0.6400,0.0000,0.0106,-0.0352,0.0040,996,1492,1497,1502,1000,1000,1505,1000,1000,1379,1005,1197,1131,0.0276,-0.0508,-0.0003,-0.0016,-0.0023,1.0009,0.0498,0.0206,-0.0418,-0.0286,0.2204,0.0082,0.0438,0.2204,0.0082,0.0438,0.3000,0.0600,0.0002,0,-1.9233,-3.5000,-0.0030,-1.9233,-3.5000,-0.0030
-4.6261,15.7650,-0.6861,0.0686,-0.0000,-0.4800,-0.1800,0.6400,0.0000,0.0106,-0.0351,0.0050,996,1492,1497,1502,1000,1000,1505,1000,1000,1379,1005,1198,1131,-0.0232,-0.1118,-0.0150,-0.0026,-0.0052,1.0050,0.0507,0.0195,-0.0407,-0.0295,0.2204,0.0082,0.0438,0.2204,0.0082,0.0438,0.3000,0.0600,0.0002,0,-1.9233,-3.5000,-0.0030,-1.9233,-3.5000,-0.0030
-4.6134,15.7200,-0.6835,0.0000,-0.1371,-0.4800,-0.1800,0.6400,0.0000,0.0106,-0.0351,0.0055,996,1492,1497,1502,1000,1000,1505,1000,1000,1379,1005,1198,1131,-0.0169,0.0244,-0.1639,0.0003,-0.0014,1.0011,0.0511,0.0190,-0.0402,-0.0299,0.2204,0.0082,0.0438,0.2204,0.0082,0.0438,0.3000,0.0600,0.0002,0,-1.9233,-3.5000,-0.0030,-1.9233,-3.5000,-0.0030
-4.6005,15.6749,-0.6812,0.0000,-0.0000,-0.4800,-0.1800,0.6400,0.0000,0.0106,-0.0349,0.0055,996,1492,1497,1502,1000,1000,1505,1000,1000,1379,1005,1198,1131,-0.0284,-0.1002,-0.1572,-0.0032,-0.0048,1.0061,0.0509,0.0189,-0.0400,-0.0298,0.2204,0.0082,0.0438,0.2204,0.0082,0.0438,0.3000,0.0600,0.0002,0,-1.9233,-3.5000,-0.0030,-1.9233,-3.5000,-0.0030
-4.5886,15.6293,-0.6793,0.0000,-0.0686,-0.4800,-0.1800,0.6400,0.0000,0.0105,-0.0348,0.0052,996,1492,1497,1502,1000,1000,1505,1000,1000,1379,1005,1198,1131,-0.0399,-0.0890,-0.0950,-0.0028,-0.0045,1.0021,0.0506,0.0190,-0.0401,-0.0295,0.2204,0.0082,0.0438,0.2204,0.0082,0.0438,0.3000,0.0600,0.0002,0,-1.9233,-3.5000,-0.0030,-1.9233,-3.5000,-0.0030
-4.5761,15.5842,-0.6768,0.0686,-0.0686,-0.4800,-0.1800,0.6400,0.0000,0.0105,-0.0348,0.0053,998,1492,1497,1504,1000,1000,1505,1000,1000,1379,1005,1197,1131,-0.0461,0.0176,-0.1021,-0.0003,-0.0033,1.0018,0.0506,0.0189,-0.0400,-0.0295,0.2204,0.0082,0.0438,0.2204,0.0082,0.0438,0.3000,0.0600,0.0002,0,-1.9233,-3.5000,-0.0030,-1.9233,-3.5000,-0.0030
-4.5634,15.5388,-0.6747,0.0000,-0.1371,-0.4800,-0.1800,0.6400,0.0000,0.0105,-0.0346,0.0044,996,1492,1497,1502,1000,1000,1505,1000,1000,1379,1005,1198,1131,0.0096,-0.1322,-0.1183,-0.0045,-0.0015,0.9997,0.0494,0.0197,-0.0407,-0.0285,0.2204,0.0082,0.0438,0.2204,0.0082,0.0438,0.3000,0.0600,0.0002,0,-1.9233,-3.5000,-0.0030,-1.9233,-3.5000,-0.0030
-4.5499,15.4929,-0.6722,0.0686,-0.0686,-0.4800,-0.1800,0.6400,0.0000,0.0104,-0.0345,0.0054,996,1492,1497,1502,1000,1000,1505,1000,1000,1379,1005,1198,1131,0.0446,-0.1544,-0.1119,-0.0019,-0.0037,1.0052,0.0503,0.0187,-0.0395,-0.0294,0.2204,0.0082,0.0438,0.2204,0.0082,0.0438,0.3000,0.0600,0.0002,0,-1.9233,-3.5000,-0.0030,-1.9233,-3.5000,-0.0030
-4.5365,15.4470,-0.6696,0.0686,-0.0000,-0.4800,-0.1800,0.6400,0.0000,0.0104,-0.0344,0.0052,996,1492,1497,1502,1000,1000,1505,1000,1000,1379,1005,1198,1131,0.0664,-0.1523,-0.0512,-0.0020,-0.0021,1.0058,0.0499,0.0188,-0.0396,-0.0291,0.2204,0.0082,0.0438,0.2204,0.0082,0.0438,0.3000,0.0600,0.0002,0,-1.9233,-3.5000,-0.0030,-1.9233,-3.5000,-0.0030
-4.5234,15.4010,-0.6661,0.0000,-0.0686,-0.4800,-0.1800,0.6400,0.0000,0.0104,-0.0343,0.0051,996,1492,1497,1502,1000,1000,1505,1000,1000,1379,1005,1198,1131,-0.0680,-0.1414,-0.0128,-0.0043,-0.0016,1.0034,0.0498,0.0188,-0.0396,-0.0289,0.2204,0.0082,0.0438,0.2204,0.0082,0.0438,0.3000,0.0600,0.0002,0,-1.9233,-3.5000,-0.0030,-1.9233,-3.5000,-0.0030
-4.5107,15.3554,-0.6625,0.0000,-0.0000,-0.4800,-0.1800,0.6400,0.0000,0.0104,-0.0342,0.0052,996,1492,1497,1502,1000,1000,1505,1000,1000,1379,1005,1198,1131,-0.0629,-0.1161,-0.0373,-0.0027,-0.0035,1.0037,0.0498,0.0186,-0.0394,-0.0290,0.2204,0.0082,0.0438,0.2204,0.0082,0.0438,0.3000,0.0600,0.0002,0,-1.9233,-3.5000,-0.0030,-1.9233,-3.5000,-0.0030
-4.4985,15.3095,-0.6590,0.0686,-0.0686,-0.4800,-0.1800,0.6400,0.0000,0.0104,-0.0341,0.0048,998,1493,1497,1504,1000,1000,1505,1000,1000,1379,1005,1198,1131,-0.0669,-0.0809,0.0669,-0.0031,-0.0062,1.0026,0.0493,0.0189,-0.0397,-0.0285,0.2204,0.0082,0.0438,0.2204,0.0082,0.0438,0.3000,0.0600,0.0002,0,-1.9233,-3.5000,-0.0030,-1.9233,-3.5000,-0.0030
-4.4859,15.2641,-0.6549,0.0000,-0.1371,-0.4800,-0.1800,0.6400,0.0000,0.0103,-0.0340,0.0038,996,1492,1497,1502,1000,1000,1505,1000,1000,1379,1005,1198,1131,-0.0462,-0.1064,0.0739,-0.0017,-0.0035,1.0006,0.0481,0.0198,-0.0405,-0.0275,0.2204,0.0082,0.0438,0.2204,0.0082,0.0438,0.3000,0.0600,0.0002,0,-1.9233,-3.5000,-0.0030,-1.9233,-3.5000,-0.0030
-4.4728,15.2182,-0.6500,0.0686,-0.0686,-0.4800,-0.1800,0.6400,0.0000,0.0103,-0.0339,0.0047,996,1492,1497,1502,1000,1000,1505,1000,1000,1379,1005,1198,1131,-0.0968,-0.0756,0.1264,-0.0039,-0.0049,1.0010,0.0489,0.0189,-0.0396,-0.0282,0.2204,0.0082,0.0438,0.2204,0.0082,0.0438,0.3000,0.0600,0.0002,0,-1.9233,-3.5000,-0.0030,-1.9233,-3.5000,-0.0030
-4.4594,15.1732,-0.6445,0.0000,-0.0686,-0.4800,-0.1800,0.6400,0.0000,0.0103,-0.0338,0.0047,996,1492,1497,1502,1000,1000,1505,1000,1000,1379,1005,1198,1131,-0.0249,-0.0423,0.1154,-0.0057,-0.0041,0.9998,0.0488,0.0188,-0.0394,-0.0283,0.2204,0.0082,0.0438,0.2204,0.0082,0.0438,0.3000,0.0600,0.0002,0,-1.9233,-3.5000,-0.0030,-1.9233,-3.5000,-0.0030
-4.4459,15.1279,-0.6397,0.0686,-0.0686,-0.4800,-0.1800,0.6400,0.0000,0.0103,-0.0337,0.0043,996,1492,1497,1502,1000,1000,1505,1000,1000,1379,1005,1198,1131,-0.0211,-0.0331,0.2177,-0.0048,-0.0016,1.0018,0.0483,0.0191,-0.0396,-0.0278,0.2204,0.0082,0.0438,0.2204,0.0082,0.0438,0.3000,0.0600,0.0002,0,-1.9233,-3.5000,-0.0030,-1.9233,-3.5000,-0.0030
-4.4325,15.0831,-0.6346,0.0686,-0.0000,-0.4800,-0.1800,0.6400,0.0000,0.0102,-0.0336,0.0048,996,1492,1497,1502,1000,1000,1505,1000,1000,1379,1005,1198,1131,0.0037,-0.0222,0.0987,-0.0034,-0.0029,1.0006,0.0486,0.0186,-0.0391,-0.0282,0.2204,0.0082,0.0438,0.2204,0.0082,0.0438,0.3000,0.0600,0.0002,0,-1.9233,-3.5000,-0.0030,-1.9233,-3.5000,-0.0030
-4.4190,15.0380,-0.6301,0.0686,-0.0686,-0.4800,-0.1800,0.6400,0.0000,0.0102,-0.0335,0.0047,998,1492,1497,1504,1000,1000,1505,1000,1000,1379,1005,1197,1131,0.0120,-0.0581,0.1274,0.0002,-0.0010,1.0016,0.0484,0.0187,-0.0390,-0.0280,0.2204,0.0082,0.0438,0.2204,0.0082,0.0438,0.3000,0.0600,0.0002,0,-1.9233,-3.5000,-0.0030,-1.9233,-3.5000,-0.0030
-4.4050,14.9930,-0.6254,0.0000,-0.0686,-0.4800,-0.1800,0.6400,0.0000,0.0102,-0.0334,0.0038,996,1492,1497,1502,1000,1000,1505,1000,1000,1379,1005,1198,1131,0.0244,-0.0738,0.0906,-0.0033,-0.0018,0.9977,0.0474,0.0194,-0.0397,-0.0271,0.2204,0.0082,0.0438,0.2204,0.0082,0.0438,0.3000,0.0600,0.0002,0,-1.9233,-3.5000,-0.0030,-1.9233,-3.5000,-0.0030
-4.3915,14.9478,-0.6211,0.0686,-0.1371,-0.4800,-0.1800,0.6400,0.0000,0.0102,-0.0333,0.0052,996,1492,1497,1502,1000,1000,1505,1000,1000,1379,1005,1198,1131,-0.0480,-0.1021,-0.0111,-0.0040,-0.0036,1.0002,0.0486,0.0180,-0.0383,-0.0283,0.2204,0.0082,0.0438,0.2204,0.0082,0.0438,0.3000,0.0600,0.0002,0,-1.9233,-3.5000,-0.0030,-1.9233,-3.5000,-0.0030
-4.3786,14.9024,-0.6172,0.0686,-0.0686,-0.4800,-0.1800,0.6400,0.0000,0.0101,-0.0332,0.0051,996,1492,1497,1502,1000,1000,1505,1000,1000,1379,1005,1198,1131,-0.0090,-0.0154,-0.0115,-0.0026,-0.0029,1.0012,0.0485,0.0180,-0.0382,-0.0282,0.2204,0.0082,0.0438,0.2204,0.0082,0.0438,0.3000,0.0600,0.0002,0,-1.9233,-3.5000,-0.0030,-1.9233,-3.5000,-0.0030
-4.3657,14.8571,-0.6143,-0.0686,-0.2057,-0.4800,-0.1800,0.6400,0.0000,0.0101,-0.0331,0.0053,996,1492,1497,1502,1000,1000,1505,1000,1000,1379,1005,1198,1131,0.0072,-0.0404,-0.0797,-0.0010,-0.0013,1.0028,0.0485,0.0177,-0.0379,-0.0284,0.2204,0.0082,0.0438,0.2204,0.0082,0.0438,0.3000,0.0600,0.0002,0,-1.9233,-3.5000,-0.0030,-1.9233,-3.5000,-0.0030
-4.3530,14.8117,-0.6120,0.0686,-0.0686,-0.4800,-0.1800,0.6400,0.0000,0.0101,-0.0330,0.0054,996,1492,1497,1502,1000,1000,1505,1000,1000,1379,1005,1197,1131,-0.0157,-0.0291,-0.1091,-0.0027,-0.0029,1.0050,0.0485,0.0175,-0.0377,-0.0284,0.2204,0.0082,0.0438,0.2204,0.0082,0.0438,0.3000,0.0600,0.0002,0,-1.9233,-3.5000,-0.0030,-1.9233,-3.5000,-0.0030
-4.3402,14.7669,-0.6103,0.0000,-0.0686,-0.4800,-0.1800,0.6400,0.0000,0.0100,-0.0329,0.0057,998,1492,1497,1504,1000,1000,1505,1000,1000,1379,1005,1197,1131,0.0334,-0.0776,-0.2172,-0.0057,-0.0051,1.0028,0.0487,0.0172,-0.0372,-0.0286,0.2204,0.0082,0.0438,0.2204,0.0082,0.0438,0.3000,0.0600,0.0002,0,-1.9233,-3.5000,-0.0030,-1.9233,-3.5000,-0.0030
-4.3275,14.7216,-0.6088,-0.0686,-0.1371,-0.4800,-0.1800,0.6400,0.0000,0.0100,-0.0328,0.0046,996,1492,1497,1502,1000,1000,1505,1000,1000,1379,1005,1197,1131,-0.0188,0.0091,-0.1693,-0.0039,-0.0048,1.0025,0.0475,0.0182,-0.0383,-0.0274,0.2204,0.0082,0.0438,0.2204,0.0082,0.0438,0.3000,0.0600,0.0002,0,-1.9233,-3.5000,-0.0030,-1.9233,-3.5000,-0.0030
-4.3154,14.6764,-0.6070,0.0686,-0.0686,-0.4800,-0.1800,0.6400,0.0000,0.0100,-0.0327,0.0055,996,1492,1497,1502,1000,1000,1505,1000,1000,1379,1005,1198,1131,-0.1029,-0.0069,-0.1279,-0.0051,-0.0046,0.9987,0.0482,0.0172,-0.0373,-0.0282,0.2204,0.0082,0.0438,0.2204,0.0082,0.0438,0.3000,0.0600,0.0002,0,-1.9233,-3.5000,-0.0030,-1.9233,-3.5000,-0.0030
-4.3030,14.6314,-0.6047,0.0000,-0.1371,-0.4800,-0.1800,0.6400,0.0000,0.0100,-0.0326,0.0055,996,1492,1497,1502,1000,1000,1505,1000,1000,1379,1005,1198,1131,-0.0709,-0.0642,-0.1431,-0.0016,-0.0029,1.0018,0.0481,0.0171,-0.0371,-0.0281,0.2204,0.0082,0.0438,0.2204,0.0082,0.0438,0.3000,0.0600,0.0002,0,-1.9233,-3.5000,-0.0030,-1.9233,-3.5000,-0.0030
-4.2905,14.5862,-0.6027,0.0686,-0.0686,-0.4800,-0.1800,0.6400,0.0000,0.0100,-0.0325,0.0052,996,1492,1497,1502,1000,1000,1505,1000,1000,1379,1005,1198,1131,-0.0815,-0.0833,-0.0631,-0.0014,-0.0017,0.9972,0.0477,0.0173,-0.0373,-0.0277,0.2204,0.0082,0.0438,0.2204,0.0082,0.0438,0.3000,0.0600,0.0002,0,-1.9233,-3.5000,-0.0030,-1.9233,-3.5000,-0.0030
-4.2779,14.5401,-0.5996,0.0686,-0.0686,-0.4800,-0.1800,0.6400,0.0000,0.0099,-0.0324,0.0051,996,1492,1497,1502,1000,1000,1505,1000,1000,1379,1005,1198,1131,-0.0346,-0.1723,-0.0007,-0.0030,-0.0029,1.0020,0.0474,0.0173,-0.0372,-0.0275,0.2204,0.0082,0.0438,0.2204,0.0082,0.0438,0.3000,0.0600,0.0002,0,-1.9233,-3.5000,-0.0030,-1.9233,-3.5000,-0.0030
-4.2657,14.4942,-0.5970,0.0686,-0.0686,-0.4800,-0.1800,0.6400,0.0000,0.0100,-0.0323,0.0055,998,1492,1497,1504,1000,1000,1505,1000,1000,1379,1005,1198,1131,-0.1317,-0.0601,-0.1074,-0.0014,-0.0060,1.0000,0.0477,0.0169,-0.0368,-0.0278,0.2204,0.0082,0.0438,0.2204,0.0082,0.0438,0.3000,0.0600,0.0002,0,-1.9233,-3.5000,-0.0030,-1.9233,-3.5000,-0.0030
-4.2544,14.4489,-0.5945,0.0000,-0.0000,-0.4800,-0.1800,0.6400,0.0000,0.0099,-0.0322,0.0041,996,1492,1497,1502,1000,1000,1505,1000,1000,1379,1005,1197,1131,-0.1364,-0.0437,0.0095,-0.0032,-0.0045,0.9990,0.0463,0.0182,-0.0381,-0.0264,0.2204,0.0082,0.0438,0.2204,0.0082,0.0438,0.3000,0.0600,0.0002,0,-1.9233,-3.5000,-0.0030,-1.9233,-3.5000,-0.0030
-4.2421,14.4037,-0.5910,0.0000,-0.0686,-0.4800,-0.1800,0.6400,0.0000,0.0099,-0.0321,0.0050,996,1492,1497,1502,1000,1000,1505,1000,1000,1379,1005,1197,1131,-0.0636,-0.0496,0.0217,-0.0036,-0.0058,0.9978,0.0470,0.0172,-0.0370,-0.0273,0.2204,0.0082,0.0438,0.2204,0.0082,0.0438,0.3000,0.0600,0.0002,0,-1.9233,-3.5000,-0.0030,-1.9233,-3.5000,-0.0030
-4.2292,14.3579,-0.5871,0.0686,-0.1371,-0.4800,-0.1800,0.6400,0.0000,0.0098,-0.0320,0.0048,996,1492,1497,1502,1000,1000,1505,1000,1000,1379,1005,1197,1131,-0.0194,-0.1620,0.0639,-0.0019,-0.0039,1.0024,0.0466,0.0173,-0.0370,-0.0270,0.2204,0.0082,0.0438,0.2204,0.0082,0.0438,0.3000,0.0600,0.0002,0,-1.9233,-3.5000,-0.0030,-1.9233,-3.5000,-0.0030
-4.2155,14.3125,-0.5827,0.0686,-0.1371,-0.4800,-0.1800,0.6400,0.0000,0.0098,-0.0319,0.0051,996,1492,1497,1502,1000,1000,1505,1000,1000,1379,1005,1197,1131,-0.0182,-0.0984,0.0436,-0.0055,-0.0058,1.0004,0.0468,0.0170,-0.0367,-0.0271,0.2204,0.0082,0.0438,0.2204,0.0082,0.0438,0.3000,0.0600,0.0002,0,-1.9233,-3.5000,-0.0030,-1.9233,-3.5000,-0.0030
-4.2027,14.2664,-0.5790,0.0686,-0.1371,-0.4800,-0.1800,0.6400,0.0000,0.0098,-0.0318,0.0049,996,1492,1497,1502,1000,1000,1505,1000,1000,1379,1005,1197,1131,-0.0244,-0.1276,0.0574,-0.0027,-0.0029,1.0040,0.0465,0.0171,-0.0367,-0.0269,0.2204,0.0082,0.0438,0.2204,0.0082,0.0438,0.3000,0.0600,0.0002,0,-1.9233,-3.5000,-0.0030,-1.9233,-3.5000,-0.0030
-4.1893,14.2205,-0.5745,0.0686,-0.1371,-0.4800,-0.1800,0.6400,0.0000,0.0098,-0.0317,0.0049,998,1492,1497,1504,1000,1000,1505,1000,1000,1379,1005,1198,1131,-0.0995,-0.1593,0.0712,-0.0031,-0.0023,1.0015,0.0464,0.0169,-0.0365,-0.0268,0.2204,0.0082,0.0438,0.2204,0.0082,0.0438,0.3000,0.0600,0.0002,0,-1.9233,-3.5000,-0.0030,-1.9233,-3.5000,-0.0030
-4.1765,14.1749,-0.5703,0.0686,-0.0686,-0.4800,-0.1800,0.6400,0.0000,0.0097,-0.0316,0.0037,996,1492,1497,1502,1000,1000,1505,1000,1000,1379,1005,1198,1131,-0.0547,-0.0906,0.1347,-0.0026,-0.0039,1.0037,0.0451,0.0181,-0.0376,-0.0256,0.2204,0.0082,0.0438,0.2204,0.0082,0.0438,0.3000,0.0600,0.0002,0,-1.9233,-3.5000,-0.0030,-1.9233,-3.5000,-0.0030
-4.1630,14.1296,-0.5653,0.0000,-0.0686,-0.4800,-0.1800,0.6400,0.0000,0.0097,-0.0315,0.0048,996,1492,1497,1502,1000,1000,1505,1000,1000,1379,1005,1198,1131,0.0145,0.0010,0.1209,-0.0022,-0.0008,1.0025,0.0460,0.0170,-0.0364,-0.0267,0.2204,0.0082,0.0438,0.2204,0.0082,0.0438,0.3000,0.0600,0.0002,0,-1.9233,-3.5000,-0.0030,-1.9233,-3.5000,-0.0030
-4.1495,14.0847,-0.5612,0.0686,-0.0686,-0.4800,-0.1800,0.6400,0.0000,0.0096,-0.0314,0.0049,996,1492,1497,1502,1000,1000,1505,1000,1000,1379,1005,1198,1131,0.0494,-0.0859,0.0918,-0.0039,-0.0041,1.0036,0.0459,0.0169,-0.0362,-0.0266,0.2204,0.0082,0.0438,0.2204,0.0082,0.0438,0.3000,0.0600,0.0002,0,-1.9233,-3.5000,-0.0030,-1.9233,-3.5000,-0.0030
-4.1360,14.0395,-0.5576,0.0686,-0.1371,-0.4800,-0.1800,0.6400,0.0000,0.0096,-0.0313,0.0048,996,1492,1497,1502,1000,1000,1505,1000,1000,1379,1005,1198,1131,0.0162,-0.0127,0.1072,-0.0041,-0.0042,1.0036,0.0458,0.0169,-0.0362,-0.0265,0.2204,0.0082,0.0438,0.2204,0.0082,0.0438,0.3000,0.0600,0.0002,0,-1.9233,-3.5000,-0.0030,-1.9233,-3.5000,-0.0030
-4.1232,13.9941,-0.5540,0.0000,-0.2057,-0.4800,-0.1800,0.6400,0.0000,0.0097,-0.0312,0.0054,996,1492,1497,1502,1000,1000,1505,1000,1000,1379,1005,1198,1131,-0.0736,-0.0628,-0.0632,-0.0018,-0.0031,1.0000,0.0462,0.0162,-0.0355,-0.0269,0.2204,0.0082,0.0438,0.2204,0.0082,0.0438,0.3000,0.0600,0.0002,0,-1.9233,-3.5000,-0.0030,-1.9233,-3.5000,-0.0030
-4.1105,13.9486,-0.5513,0.0686,-0.1371,-0.4800,-0.1800,0.6400,0.0000,0.0096,-0.0311,0.0052,998,1492,1497,1504,1000,1000,1505,1000,1000,1379,1005,1198,1131,-0.0698,-0.0617,0.0039,-0.0013,-0.0028,1.0082,0.0459,0.0163,-0.0356,-0.0266,0.2204,0.0082,0.0438,0.2204,0.0082,0.0438,0.3000,0.0600,0.0002,0,-1.9233,-3.5000,-0.0030,-1.9233,-3.5000,-0.0030
-4.0978,13.9029,-0.5487,0.0000,-0.2057,-0.4800,-0.1800,0.6400,0.0000,0.0096,-0.0310,0.0043,996,1492,1497,1502,1000,1000,1505,1000,1000,1379,1005,1197,1131,-0.0044,-0.0554,-0.0540,-0.0055,-0.0020,1.0001,0.0449,0.0171,-0.0363,-0.0258,0.2204,0.0082,0.0438,0.2204,0.0082,0.0438,0.3000,0.0600,0.0002,0,-1.9233,-3.5000,-0.0030,-1.9233,-3.5000,-0.0030
-4.0848,13.8574,-0.5464,0.0686,-0.0686,-0.4800,-0.1800,0.6400,0.0000,0.0096,-0.0309,0.0056,996,1492,1497,1502,1000,1000,1505,1000,1000,1379,1005,1197,1131,-0.0262,-0.0820,-0.1426,0.0011,-0.0051,1.0037,0.0461,0.0157,-0.0348,-0.0270,0.2204,0.0082,0.0438,0.2204,0.0082,0.0438,0.3000,0.0600,0.0002,0,-1.9233,-3.5000,-0.0030,-1.9233,-3.5000,-0.0030
-4.0724,13.8118,-0.5449,0.0000,-0.0686,-0.4800,-0.1800,0.6400,0.0000,0.0095,-0.0308,0.0057,996,1492,1497,1502,1000,1000,1505,1000,1000,1379,1005,1198,1131,-0.0305,0.0092,-0.1765,-0.0017,-0.0013,1.0041,0.0461,0.0156,-0.0347,-0.0270,0.2204,0.0082,0.0438,0.2204,0.0082,0.0438,0.3000,0.0600,0.0002,0,-1.9233,-3.5000,-0.0030,-1.9233,-3.5000,-0.0030
-4.0592,13.7665,-0.5432,0.0686,-0.0686,-0.4800,-0.1800,0.6400,0.0000,0.0095,-0.0307,0.0056,996,1492,1497,1502,1000,1000,1505,1000,1000,1379,1005,1198,1131,0.0184,0.0022,-0.1478,-0.0025,-0.0025,1.0019,0.0458,0.0157,-0.0346,-0.0268,0.2204,0.0082,0.0438,0.2204,0.0082,0.0438,0.3000,0.0600,0.0002,0,-1.9233,-3.5000,-0.0030,-1.9233,-3.5000,-0.0030
-4.0470,13.7211,-0.5412,0.1371,-0.0686,-0.4800,-0.1800,0.6400,0.0000,0.0095,-0.0306,0.0053,996,1492,1497,1502,1000,1000,1505,1000,1000,1379,1005,1198,1131,-0.0923,-0.0788,-0.0416,-0.0043,-0.0041,1.0055,0.0455,0.0158,-0.0348,-0.0264,0.2204,0.0082,0.0438,0.2204,0.0082,0.0438,0.3000,0.0600,0.0002,0,-1.9233,-3.5000,-0.0030,-1.9233,-3.5000,-0.0030
-4.0341,13.6753,-0.5386,0.0000,-0.0686,-0.4800,-0.1800,0.6400,0.0000,0.0094,-0.0305,0.0056,998,1493,1497,1504,1000,1000,1505,1000,1000,1379,1005,1197,1131,-0.0075,-0.1509,-0.1437,-0.0026,-0.0018,0.9987,0.0456,0.0154,-0.0343,-0.0267,0.2204,0.0082,0.0438,0.2204,0.0082,0.0438,0.3000,0.0600,0.0002,0,-1.9233,-3.5000,-0.0030,-1.9233,-3.5000,-0.0030
-4.0210,13.6291,-0.5366,0.0000,-0.1371,-0.4800,-0.1800,0.6400,0.0000,0.0094,-0.0304,0.0044,996,1492,1497,1502,1000,1000,1505,1000,1000,1379,1005,1197,1131,0.0213,-0.1401,-0.0574,-0.0001,-0.0064,1.0031,0.0442,0.0166,-0.0354,-0.0254,0.2204,0.0082,0.0438,0.2204,0.0082,0.0438,0.3000,0.0600,0.0002,0,-1.9233,-3.5000,-0.0030,-1.9233,-3.5000,-0.0030
-4.0086,13.5829,-0.5342,0.1371,-0.0000,-0.4800,-0.1800,0.6400,0.0000,0.0094,-0.0303,0.0053,996,1492,1497,1502,1000,1000,1505,1000,1000,1379,1005,1198,1131,-0.0846,-0.1042,-0.0494,-0.0033,-0.0017,1.0026,0.0451,0.0155,-0.0344,-0.0262,0.2204,0.0082,0.0438,0.2204,0.0082,0.0438,0.3000,0.0600,0.0002,0,-1.9233,-3.5000,-0.0030,-1.9233,-3.5000,-0.0030
-3.9957,13.5373,-0.5314,0.0000,-0.0686,-0.4800,-0.1800,0.6400,0.0000,0.0094,-0.0302,0.0054,996,1492,1497,1502,1000,1000,1505,1000,1000,1379,1005,1198,1131,-0.0271,-0.0333,-0.0502,-0.0016,-0.0028,1.0007,0.0450,0.0155,-0.0342,-0.0262,0.2204,0.0082,0.0438,0.2204,0.0082,0.0438,0.3000,0.0600,0.0002,0,-1.9233,-3.5000,-0.0030,-1.9233,-3.5000,-0.0030
-3.9828,13.4915,-0.5286,0.0686,-0.0686,-0.4800,-0.1800,0.6400,0.0000,0.0094,-0.0301,0.0052,996,1492,1497,1502,1000,1000,1505,1000,1000,1379,1005,1198,1131,-0.0698,-0.1187,-0.0386,-0.0029,-0.0015,0.9973,0.0447,0.0155,-0.0342,-0.0259,0.2204,0.0082,0.0438,0.2204,0.0082,0.0438,0.3000,0.0600,0.0002,0,-1.9233,-3.5000,-0.0030,-1.9233,-3.5000,-0.0030
-3.9692,13.4458,-0.5247,0.0686,-0.2057,-0.4800,-0.1800,0.6400,0.0000,0.0093,-0.0300,0.0049,996,1492,1497,1502,1000,1000,1505,1000,1000,1379,1005,1198,1131,0.0503,-0.0457,0.1066,-0.0036,-0.0050,0.9986,0.0442,0.0158,-0.0344,-0.0256,0.2204,0.0082,0.0438,0.2204,0.0082,0.0438,0.3000,0.0600,0.0002,0,-1.9233,-3.5000,-0.0030,-1.9233,-3.5000,-0.0030
-3.9561,13.4002,-0.5207,0.0000,-0.0686,-0.4800,-0.1800,0.6400,0.0000,0.0093,-0.0299,0.0048,998,1492,1497,1504,1000,1000,1505,1000,1000,1379,1005,1198,1131,-0.0277,-0.0376,0.1543,-0.0014,-0.0057,1.0045,0.0440,0.0158,-0.0345,-0.0254,0.2204,0.0082,0.0438,0.2204,0.0082,0.0438,0.3000,0.0600,0.0002,0,-1.9233,-3.5000,-0.0030,-1.9233,-3.5000,-0.0030
-3.9430,13.3547,-0.5165,0.0000,-0.0686,-0.4800,-0.1800,0.6400,0.0000,0.0093,-0.0298,0.0040,996,1492,1497,1502,1000,1000,1505,1000,1000,1379,1005,1197,1131,-0.0309,-0.0683,0.0900,-0.0054,-0.0048,1.0016,0.0431,0.0165,-0.0351,-0.0245,0.2204,0.0082,0.0438,0.2204,0.0082,0.0438,0.3000,0.0600,0.0002,0,-1.9233,-3.5000,-0.0030,-1.9233,-3.5000,-0.0030
-3.9303,13.3092,-0.5125,0.0000,-0.0686,-0.4800,-0.1800,0.6400,0.0000,0.0093,-0.0297,0.0049,996,1492,1497,1502,1000,1000,1505,1000,1000,1379,1005,1197,1131,-0.0880,-0.0586,0.1117,-0.0026,-0.0053,0.9981,0.0439,0.0156,-0.0341,-0.0253,0.2204,0.0082,0.0438,0.2204,0.0082,0.0438,0.3000,0.0600,0.0002,0,-1.9233,-3.5000,-0.0030,-1.9233,-3.5000,-0.0030
-3.9180,13.2630,-0.5084,0.0000,-0.0686,-0.4800,-0.1800,0.6400,0.0000,0.0093,-0.0296,0.0051,996,1492,1497,1502,1000,1000,1505,1000,1000,1379,1005,1198,1131,-0.1107,-0.1049,0.0431,-0.0004,-0.0031,1.0061,0.0440,0.0152,-0.0337,-0.0254,0.2204,0.0082,0.0438,0.2204,0.0082,0.0438,0.3000,0.0600,0.0002,0,-1.9233,-3.5000,-0.0030,-1.9233,-3.5000,-0.0030
-3.9051,13.2172,-0.5049,0.0686,-0.0686,-0.4800,-0.1800,0.6400,0.0000,0.0092,-0.0295,0.0052,996,1492,1497,1502,1000,1000,1505,1000,1000,1379,1005,1198,1131,-0.0297,-0.0506,0.0037,-0.0029,-0.0023,1.0021,0.0439,0.0151,-0.0335,-0.0255,0.2204,0.0082,0.0438,0.2204,0.0082,0.0438,0.3000,0.0600,0.0002,0,-1.9233,-3.5000,-0.0030,-1.9233,-3.5000,-0.0030
-3.8919,13.1713,-0.5008,-0.0686,-0.0686,-0.4800,-0.1800,0.6400,0.0000,0.0092,-0.0294,0.0052,996,1492,1497,1502,1000,1000,1505,1000,1000,1379,1005,1197,1131,-0.1014,-0.1042,0.0131,-0.0035,-0.0043,0.9996,0.0438,0.0149,-0.0333,-0.0254,0.2204,0.0082,0.0438,0.2204,0.0082,0.0438,0.3000,0.0600,0.0002,0,-1.9233,-3.5000,-0.0030,-1.9233,-3.5000,-0.0030
-3.8790,13.1255,-0.4977,0.0686,-0.0686,-0.4800,-0.1800,0.6400,0.0000,0.0091,-0.0292,0.0053,998,1493,1497,1504,1000,1000,1505,1000,1000,1379,1005,1198,1131,0.0130,-0.1738,-0.0007,-0.0043,-0.0033,1.0008,0.0436,0.0149,-0.0331,-0.0254,0.2204,0.0082,0.0438,0.2204,0.0082,0.0438,0.3000,0.0600,0.0002,0,-1.9233,-3.5000,-0.0030,-1.9233,-3.5000,-0.0030
-3.8660,13.0795,-0.4945,0.0686,-0.0686,-0.4800,-0.1800,0.6400,0.0000,0.0091,-0.0292,0.0042,996,1492,1497,1502,1000,1000,1505,1000,1000,1379,1005,1198,1131,-0.0821,-0.0781,-0.0018,-0.0037,-0.0041,1.0030,0.0426,0.0158,-0.0341,-0.0243,0.2204,0.0082,0.0438,0.2204,0.0082,0.0438,0.3000,0.0600,0.0002,0,-1.9233,-3.5000,-0.0030,-1.9233,-3.5000,-0.0030
-3.8530,13.0333,-0.4916,0.0000,-0.2743,-0.4800,-0.1800,0.6400,0.0000,0.0091,-0.0291,0.0051,996,1492,1497,1502,1000,1000,1505,1000,1000,1379,1005,1198,1131,-0.0240,-0.1421,0.0320,-0.0016,-0.0027,1.0001,0.0433,0.0148,-0.0330,-0.0251,0.2204,0.0082,0.0438,0.2204,0.0082,0.0438,0.3000,0.0600,0.0002,0,-1.9233,-3.5000,-0.0030,-1.9233,-3.5000,-0.0030
-3.8398,12.9869,-0.4883,0.0686,-0.0000,-0.4800,-0.1800,0.6400,0.0000,0.0091,-0.0289,0.0053,996,1492,1497,1502,1000,1000,1505,1000,1000,1379,1005,1198,1131,-0.0729,-0.1736,-0.0010,-0.0020,-0.0039,1.0037,0.0433,0.0146,-0.0328,-0.0251,0.2204,0.0082,0.0438,0.2204,0.0082,0.0438,0.3000,0.0600,0.0002,0,-1.9233,-3.5000,-0.0030,-1.9233,-3.5000,-0.0030
-3.8273,12.9406,-0.4857,0.0000,-0.1371,-0.4800,-0.1800,0.6400,0.0000,0.0090,-0.0289,0.0054,996,1492,1497,1502,1000,1000,1505,1000,1000,1379,1005,1197,1131,0.0257,-0.0862,-0.0433,-0.0036,-0.0053,1.0010,0.0433,0.0145,-0.0325,-0.0252,0.2204,0.0082,0.0438,0.2204,0.0082,0.0438,0.3000,0.0600,0.0002,0,-1.9233,-3.5000,-0.0030,-1.9233,-3.5000,-0.0030
-3.8143,12.8952,-0.4833,0.0686,-0.0686,-0.4800,-0.1800,0.6400,0.0000,0.0090,-0.0288,0.0053,996,1492,1497,1502,1000,1000,1505,1000,1000,1379,1005,1197,1131,-0.0688,-0.0015,-0.0386,-0.0022,-0.0032,1.0029,0.0432,0.0144,-0.0325,-0.0251,0.2204,0.0082,0.0438,0.2204,0.0082,0.0438,0.3000,0.0600,0.0002,0,-1.9233,-3.5000,-0.0030,-1.9233,-3.5000,-0.0030
-3.8016,12.8498,-0.4808,0.0000,-0.0686,-0.4800,-0.1800,0.6400,0.0000,0.0090,-0.0287,0.0054,998,1492,1497,1504,1000,1000,1505,1000,1000,1379,1005,1198,1131,-0.0109,-0.0950,-0.0142,-0.0041,-0.0015,1.0010,0.0430,0.0143,-0.0323,-0.0251,0.2204,0.0082,0.0438,0.2204,0.0082,0.0438,0.3000,0.0600,0.0002,0,-1.9233,-3.5000,-0.0030,-1.9233,-3.5000,-0.0030
-3.7889,12.8039,-0.4788,0.0000,-0.0000,-0.4800,-0.1800,0.6400,0.0000,0.0090,-0.0286,0.0046,996,1492,1497,1502,1000,1000,1505,1000,1000,1379,1005,1198,1131,-0.0366,-0.0342,-0.1139,-0.0033,-0.0035,1.0018,0.0422,0.0150,-0.0330,-0.0243,0.2204,0.0082,0.0438,0.2204,0.0082,0.0438,0.3000,0.0600,0.0002,0,-1.9233,-3.5000,-0.0030,-1.9233,-3.5000,-0.0030
-3.7758,12.7582,-0.4770,0.0686,-0.1371,-0.4800,-0.1800,0.6400,0.0000,0.0089,-0.0285,0.0056,996,1492,1497,1502,1000,1000,1505,1000,1000,1379,1005,1198,1131,-0.0234,-0.1441,-0.1059,-0.0027,-0.0030,1.0017,0.0430,0.0139,-0.0318,-0.0251,0.2204,0.0082,0.0438,0.2204,0.0082,0.0438,0.3000,0.0600,0.0002,0,-1.9233,-3.5000,-0.0030,-1.9233,-3.5000,-0.0030
-3.7630,12.7121,-0.4751,0.1371,-0.0686,-0.4800,-0.1800,0.6400,0.0000,0.0089,-0.0284,0.0054,996,1492,1497,1502,1000,1000,1505,1000,1000,1379,1005,1197,1131,-0.0222,-0.1150,-0.0480,-0.0021,-0.0041,1.0022,0.0427,0.0141,-0.0319,-0.0248,0.2204,0.0082,0.0438,0.2204,0.0082,0.0438,0.3000,0.0600,0.0002,0,-1.9233,-3.5000,-0.0030,-1.9233,-3.5000,-0.0030
-3.7498,12.6662,-0.4725,0.0686,-0.1371,-0.4800,-0.1800,0.6400,0.0160,0.0089,-0.0283,0.0055,1016,1492,1497,1502,1000,1000,1505,1000,1000,1379,1005,1197,1131,-0.0202,-0.0740,-0.0727,-0.0046,-0.0014,0.9980,0.0587,0.0298,-0.0156,-0.0089,0.2204,0.0082,0.0438,0.2204,0.0082,0.0438,0.3000,0.0600,0.0002,0,-1.9233,-3.5000,-0.0030,-1.9233,-3.5000,-0.0030
-3.7367,12.6206,-0.4696,0.0000,-0.0686,-0.4800,-0.1800,0.6400,0.0210,0.0089,-0.0282,0.0052,1021,1492,1497,1502,1000,1000,1505,1000,1000,1379,1005,1198,1131,-0.0751,-0.0627,0.0151,0.0009,-0.0049,1.0036,0.0633,0.0351,-0.0108,-0.0035,0.2204,0.0082,0.0438,0.2204,0.0082,0.0438,0.3000,0.0600,0.0002,0,-1.9233,-3.5000,-0.0030,-1.9233,-3.5000,-0.0030
-3.7240,12.5747,-0.4661,0.0686,-0.1371,-0.4800,-0.1800,0.6400,0.0600,0.0089,-0.0281,0.0053,1072,1493,1497,1504,1000,1000,1505,1000,1000,1379,1005,1198,1131,-0.0736,-0.1122,0.0004,0.0011,-0.0028,1.0054,0.1023,0.0739,0.0284,0.0355,0.2204,0.0082,0.0438,0.2204,0.0082,0.0438,0.3000,0.0600,0.0002,0,-1.9233,-3.5000,-0.0030,-1.9233,-3.5000,-0.0030
-3.7118,12.5292,-0.4635,0.0000,-0.0686,-0.4800,-0.1800,0.6400,0.0910,0.0088,-0.0280,0.0043,1091,1492,1497,1502,1000,1000,1505,1000,1000,1379,1005,1198,1131,-0.0644,-0.0006,0.0079,-0.0022,-0.0043,1.0039,0.1321,0.1059,0.0584,0.0675,0.2204,0.0082,0.0438,0.2204,0.0082,0.0438,0.3000,0.0600,0.0002,0,-1.9233,-3.5000,-0.0030,-1.9233,-3.5000,-0.0030
-3.6985,12.4839,-0.4596,0.0000,-0.1371,-0.4800,-0.1800,0.6400,0.0990,0.0088,-0.0279,0.0049,1099,1492,1497,1502,1000,1000,1505,1000,1000,1379,1005,1198,1131,0.0139,-0.0445,0.1455,-0.0026,-0.0040,1.0033,0.1406,0.1133,0.0672,0.0750,0.2204,0.0082,0.0438,0.2204,0.0082,0.0438,0.3000,0.0600,0.0002,0,-1.9233,-3.5000,-0.0030,-1.9233,-3.5000,-0.0030
-3.6853,12.4380,-0.4556,0.0000,-0.0686,-0.4800,-0.1800,0.6400,0.1360,0.0088,-0.0278,0.0050,1136,1492,1497,1502,1000,1000,1505,1000,1000,1379,1005,1198,1131,-0.0803,-0.0751,0.0827,-0.0025,-0.0040,1.0015,0.1776,0.1500,0.1044,0.1119,0.2204,0.0082,0.0438,0.2204,0.0082,0.0438,0.3000,0.0600,0.0002,0,-1.9233,-3.5000,-0.0030,-1.9233,-3.5000,-0.0030
-3.6725,12.3915,-0.4518,0.0686,-0.1371,-0.4800,-0.1800,0.6400,0.1460,0.0088,-0.0277,0.0052,1146,1492,1497,1502,1000,1000,1505,1000,1000,1379,1005,1198,1131,-0.0550,-0.2134,0.0697,-0.0026,-0.0040,1.0025,0.1876,0.1598,0.1147,0.1219,0.2204,0.0082,0.0438,0.2204,0.0082,0.0438,0.3000,0.0600,0.0002,0,-1.9233,-3.5000,-0.0030,-1.9233,-3.5000,-0.0030
-3.6597,12.3450,-0.4482,0.0686,-0.2057,-0.4800,-0.1800,0.6400,0.1610,0.0087,-0.0276,0.0051,1161,1492,1497,1502,1000,1000,1505,1000,1000,1379,1005,1198,1131,-0.0245,-0.0876,0.0740,-0.0001,-0.0035,1.0060,0.2025,0.1748,0.1298,0.1370,0.2204,0.0082,0.0438,0.2204,0.0082,0.0438,0.3000,0.0600,0.0002,0,-1.9233,-3.5000,-0.0030,-1.9233,-3.5000,-0.0030
-3.6464,12.2991,-0.4447,0.0686,-0.1371,-0.4800,-0.1800,0.6400,0.1660,0.0087,-0.0276,0.0051,1178,1492,1497,1504,1000,1000,1505,1000,1000,1379,1005,1198,1131,-0.0182,-0.0393,0.0620,-0.0050,-0.0016,1.0018,0.2074,0.1797,0.1349,0.1420,0.2204,0.0082,0.0438,0.2204,0.0082,0.0438,0.3000,0.0600,0.0002,0,-1.9233,-3.5000,-0.0030,-1.9233,-3.5000,-0.0030
-3.6329,12.2533,-0.4406,0.0000,-0.1371,-0.4800,-0.1800,0.6400,0.1810,0.0087,-0.0274,0.0042,1181,1492,1497,1502,1000,1000,1505,1000,1000,1379,1005,1198,1131,-0.0334,-0.1227,0.0675,-0.0034,-0.0037,1.0033,0.2213,0.1956,0.1491,0.1580,0.2204,0.0082,0.0438,0.2204,0.0082,0.0438,0.3000,0.0600,0.0002,0,-1.9233,-3.5000,-0.0030,-1.9233,-3.5000,-0.0030
-3.6201,12.2073,-0.4374,0.0686,-0.0000,-0.4800,-0.1800,0.6400,0.1810,0.0086,-0.0274,0.0052,1181,1492,1497,1502,1000,1000,1505,1000,1000,1379,1005,1198,1131,-0.0420,-0.0822,0.0346,-0.0045,-0.0047,1.0016,0.2222,0.1945,0.1502,0.1570,0.2204,0.0082,0.0438,0.2204,0.0082,0.0438,0.3000,0.0600,0.0002,0,-1.9233,-3.5000,-0.0030,-1.9233,-3.5000,-0.0030
-3.6072,12.1611,-0.4339,0.0000,-0.2057,-0.4800,-0.1800,0.6400,0.1810,0.0086,-0.0273,0.0052,1181,1492,1497,1502,1000,1000,1505,1000,1000,1379,1005,1197,1131,-0.0068,-0.1215,0.0692,-0.0015,-0.0026,1.0041,0.2220,0.1945,0.1503,0.1572,0.2204,0.0082,0.0438,0.2204,0.0082,0.0438,0.3000,0.0600,0.0002,0,-1.9233,-3.5000,-0.0030,-1.9233,-3.5000,-0.0030
-3.5944,12.1151,-0.4304,0.0686,-0.1371,-0.4800,-0.1800,0.6400,0.1810,0.0086,-0.0272,0.0051,1181,1492,1497,1502,1000,1000,1505,1000,1000,1379,1005,1197,1131,-0.0714,-0.0713,0.0915,-0.0056,-0.0013,1.0026,0.2219,0.1945,0.1503,0.1573,0.2204,0.0082,0.0438,0.2204,0.0082,0.0438,0.3000,0.0600,0.0002,0,-1.9233,-3.5000,-0.0030,-1.9233,-3.5000,-0.0030
-3.5815,12.0693,-0.4268,0.0000,-0.0686,-0.4800,-0.1800,0.6400,0.1810,0.0086,-0.0271,0.0054,1181,1492,1497,1502,1000,1000,1505,1000,1000,1379,1005,1197,1131,-0.0775,-0.0691,-0.0007,-0.0016,-0.0033,0.9999,0.2220,0.1942,0.1507,0.1571,0.2204,0.0082,0.0438,0.2204,0.0082,0.0438,0.3000,0.0600,0.0002,0,-1.9233,-3.5000,-0.0030,-1.9233,-3.5000,-0.0030
-3.5690,12.0240,-0.4242,0.0000,-0.1371,-0.4800,-0.1800,0.6400,0.1810,0.0085,-0.0270,0.0054,1183,1492,1497,1504,1000,1000,1505,1000,1000,1379,1005,1197,1131,0.0117,-0.0227,-0.0178,-0.0011,-0.0048,1.0050,0.2219,0.1941,0.1508,0.1571,0.2204,0.0082,0.0438,0.2204,0.0082,0.0438,0.3000,0.0600,0.0002,0,-1.9233,-3.5000,-0.0030,-1.9233,-3.5000,-0.0030
-3.5559,11.9780,-0.4217,0.0000,-0.0686,-0.4800,-0.1800,0.6400,0.1900,0.0085,-0.0269,0.0046,1190,1492,1497,1502,1000,1000,1505,1000,1000,1379,1005,1197,1131,0.0234,-0.0697,-0.0540,-0.0025,-0.0017,1.0000,0.2300,0.2039,0.1592,0.1670,0.2204,0.0082,0.0438,0.2204,0.0082,0.0438,0.3000,0.0600,0.0002,0,-1.9233,-3.5000,-0.0030,-1.9233,-3.5000,-0.0030
-3.5427,11.9323,-0.4200,0.0000,-0.0686,-0.4800,-0.1800,0.6400,0.1910,0.0085,-0.0268,0.0055,1191,1492,1497,1502,1000,1000,1505,1000,1000,1379,1005,1198,1131,-0.0859,-0.0287,-0.0752,-0.0027,-0.0018,0.9994,0.2319,0.2038,0.1612,0.1671,0.2204,0.0082,0.0438,0.2204,0.0082,0.0438,0.3000,0.0600,0.0002,0,-1.9233,-3.5000,-0.0030,-1.9233,-3.5000,-0.0030
-3.5309,11.8863,-0.4177,0.0686,-0.0686,-0.4800,-0.1800,0.6400,0.2000,0.0085,-0.0267,0.0055,1200,1492,1497,1502,1000,1000,1505,1000,1000,1379,1005,1198,1131,-0.1191,-0.0692,-0.0575,-0.0033,-0.0029,0.9994,0.2408,0.2127,0.1703,0.1762,0.2204,0.0082,0.0438,0.2204,0.0082,0.0438,0.3000,0.0600,0.0002,0,-1.9233,-3.5000,-0.0030,-1.9233,-3.5000,-0.0030
-3.5186,11.8404,-0.4160,0.0686,-0.1371,-0.4800,-0.1800,0.6400,0.2010,0.0085,-0.0267,0.0057,1201,1492,1497,1502,1000,1000,1505,1000,1000,1379,1005,1198,1131,-0.0889,-0.0084,-0.1086,-0.0042,-0.0065,1.0023,0.2418,0.2135,0.1716,0.1771,0.2204,0.0082,0.0438,0.2204,0.0082,0.0438,0.3000,0.0600,0.0002,0,-1.9233,-3.5000,-0.0030,-1.9233,-3.5000,-0.0030
-3.5059,11.7944,-0.4140,0.0686,-0.0686,-0.4800,-0.1800,0.6400,0.2010,0.0084,-0.0266,0.0054,1201,1492,1497,1502,1000,1000,1505,1000,1000,1379,1005,1198,1131,-0.0373,-0.0450,-0.0135,0.0001,-0.0049,1.0040,0.2414,0.2137,0.1714,0.1774,0.2204,0.0082,0.0438,0.2204,0.0082,0.0438,0.3000,0.0600,0.0002,0,-1.9233,-3.5000,-0.0030,-1.9233,-3.5000,-0.0030
-3.4936,11.7484,-0.4120,0.0686,-0.2057,-0.4800,-0.1800,0.6400,0.2010,0.0084,-0.0265,0.0053,1203,1492,1497,1504,1000,1000,1505,1000,1000,1379,1005,1198,1131,-0.0263,-0.0565,-0.0070,-0.0039,-0.0040,1.0006,0.2412,0.2138,0.1715,0.1776,0.2204,0.0082,0.0438,0.2204,0.0082,0.0438,0.3000,0.0600,0.0002,0,-1.9233,-3.5000,-0.0030,-1.9233,-3.5000,-0.0030
-3.4804,11.7030,-0.4094,0.0686,-0.1371,-0.4800,-0.1800,0.6400,0.2010,0.0083,-0.0264,0.0045,1201,1492,1497,1502,1000,1000,1505,1000,1000,1379,1005,1198,1131,0.0455,-0.0579,-0.0159,-0.0038,-0.0056,1.0028,0.2402,0.2146,0.1708,0.1785,0.2204,0.0082,0.0438,0.2204,0.0082,0.0438,0.3000,0.0600,0.0002,0,-1.9233,-3.5000,-0.0030,-1.9233,-3.5000,-0.0030
-3.4674,11.6572,-0.4071,0.1371,-0.1371,-0.4800,-0.1800,0.6400,0.2010,0.0083,-0.0263,0.0056,1201,1492,1497,1502,1000,1000,1505,1000,1000,1379,1005,1198,1131,-0.0533,-0.0359,-0.0484,-0.0045,-0.0028,1.0000,0.2412,0.2134,0.1719,0.1775,0.2204,0.0082,0.0438,0.2204,0.0082,0.0438,0.3000,0.0600,0.0002,0,-1.9233,-3.5000,-0.0030,-1.9233,-3.5000,-0.0030
-3.4539,11.6105,-0.4046,0.0686,-0.0686,-0.4800,-0.1800,0.6400,0.2010,0.0083,-0.0261,0.0054,1201,1492,1497,1502,1000,1000,1505,1000,1000,1379,1005,1198,1131,-0.0446,-0.1856,-0.0116,0.0015,-0.0007,1.0030,0.2408,0.2134,0.1719,0.1778,0.2204,0.0082,0.0438,0.2204,0.0082,0.0438,0.3000,0.0600,0.0002,0,-1.9233,-3.5000,-0.0030,-1.9233,-3.5000,-0.0030
-3.4409,11.5640,-0.4015,0.0000,-0.0686,-0.4800,-0.1800,0.6400,0.2010,0.0083,-0.0261,0.0052,1201,1492,1497,1502,1000,1000,1505,1000,1000,1379,1005,1198,1131,0.0039,-0.1008,0.0419,-0.0016,-0.0031,1.0038,0.2406,0.2136,0.1719,0.1779,0.2204,0.0082,0.0438,0.2204,0.0082,0.0438,0.3000,0.0600,0.0002,0,-1.9233,-3.5000,-0.0030,-1.9233,-3.5000,-0.0030
-3.4278,11.5179,-0.3987,0.0686,-0.1371,-0.4800,-0.1800,0.6400,0.2010,0.0083,-0.0260,0.0055,1201,1492,1497,1502,1000,1000,1505,1000,1000,1379,1005,1198,1131,-0.0285,-0.1237,-0.0168,-0.0043,-0.0051,0.9979,0.2407,0.2133,0.1722,0.1778,0.2204,0.0082,0.0438,0.2204,0.0082,0.0438,0.3000,0.0600,0.0002,0,-1.9233,-3.5000,-0.0030,-1.9233,-3.5000,-0.0030
-3.4151,11.4713,-0.3959,0.0686,-0.0686,-0.4800,-0.1800,0.6400,0.2040,0.0082,-0.0259,0.0053,1205,1492,1497,1504,1000,1000,1505,1000,1000,1379,1005,1197,1131,-0.0713,-0.1889,0.0321,-0.0055,-0.0025,0.9978,0.2434,0.2163,0.1752,0.1811,0.2204,0.0082,0.0438,0.2204,0.0082,0.0438,0.3000,0.0600,0.0002,0,-1.9233,-3.5000,-0.0030,-1.9233,-3.5000,-0.0030
-3.4028,11.4244,-0.3922,0.0686,-0.0686,-0.4800,-0.1800,0.6400,0.2050,0.0082,-0.0258,0.0025,1205,1492,1497,1502,1000,1000,1505,1000,1000,1379,1005,1197,1131,-0.0173,-0.0124,0.5495,-0.0194,0.0097,1.0012,0.2415,0.2202,0.1734,0.1849,0.2204,0.0082,0.0438,0.2204,0.0082,0.0438,0.3000,0.0600,0.0002,0,-1.9233,-3.5000,-0.0030,-1.9233,-3.5000,-0.0030
-3.3846,11.3792,-0.3736,0.0686,-0.2057,-0.4800,-0.1800,0.6400,0.2050,0.0081,-0.0256,0.0006,1205,1492,1497,1502,1000,1000,1505,1000,1000,1379,1005,1198,1131,0.0112,-0.2938,1.6479,0.0176,-0.0189,1.0227,0.2394,0.2219,0.1718,0.1869,0.2204,0.0082,0.0438,0.2204,0.0082,0.0438,0.3000,0.0600,0.0002,0,-1.9233,-3.5000,-0.0030,-1.9233,-3.5000,-0.0030
-3.3696,11.3334,-0.3622,0.0686,-0.1371,-0.4800,-0.1800,0.6400,0.2060,0.0082,-0.0257,0.0063,1206,1492,1497,1502,1000,1000,1505,1000,1000,1379,1005,1198,1131,-0.1035,0.1157,-0.2152,-0.0088,-0.0060,0.9915,0.2462,0.2172,0.1785,0.1821,0.2204,0.0082,0.0438,0.2204,0.0082,0.0438,0.3000,0.0600,0.0002,0,-1.9233,-3.5000,-0.0030,-1.9233,-3.5000,-0.0030
-3.3614,11.2859,-0.3705,0.0686,-0.1371,-0.4800,-0.1800,0.6400,0.2060,0.0081,-0.0255,0.0080,1206,1492,1497,1502,1000,1000,1505,1000,1000,1379,1005,1198,1131,-0.0301,-0.1367,-0.9356,-0.0072,0.0035,1.0082,0.2476,0.2154,0.1803,0.1806,0.2204,0.0082,0.0438,0.2204,0.0082,0.0438,0.3000,0.0600,0.0002,0,-1.9233,-3.5000,-0.0030,-1.9233,-3.5000,-0.0030
-3.3481,11.2392,-0.3656,0.0686,-0.1371,-0.4800,-0.1800,0.6400,0.2060,0.0080,-0.0253,0.0029,1206,1492,1497,1502,1000,1000,1505,1000,1000,1379,1005,1198,1131,0.0711,-0.3719,0.8258,0.0148,0.0164,1.0151,0.2422,0.2204,0.1755,0.1859,0.2204,0.0082,0.0438,0.2204,0.0082,0.0438,0.3000,0.0600,0.0002,0,-1.9233,-3.5000,-0.0030,-1.9233,-3.5000,-0.0030
-3.3333,11.1960,-0.3655,-0.1371,-0.2057,-0.4800,-0.1800,0.6400,0.2060,0.0079,-0.0256,0.0117,1207,1492,1497,1504,1000,1000,1505,1000,1000,1379,1005,1197,1131,0.4073,0.5799,-1.9682,-0.0456,-0.0263,0.9992,0.2512,0.2121,0.1842,0.1765,0.2204,0.0082,0.0438,0.2204,0.0082,0.0438,0.3000,0.0600,0.0002,0,-1.9233,-3.5000,-0.0030,-1.9233,-3.5000,-0.0030
-3.3252,11.1451,-0.3873,0.0000,-0.2057,-0.4800,-0.1800,0.6400,0.2060,0.0080,-0.0252,0.0095,1206,1492,1497,1502,1000,1000,1505,1000,1000,1379,1005,1198,1131,0.0611,-0.2882,-1.7597,0.0116,-0.0305,0.9849,0.2487,0.2137,0.1823,0.1793,0.2204,0.0082,0.0438,0.2204,0.0082,0.0438,0.3000,0.0600,0.0002,0,-1.9233,-3.5000,-0.0030,-1.9233,-3.5000,-0.0030
-3.3215,11.1001,-0.4006,0.1371,-0.0686,-0.4800,-0.1800,0.6400,0.2060,0.0081,-0.0250,0.0068,1206,1492,1497,1502,1000,1000,1505,1000,1000,1379,1005,1198,1131,-0.1975,-0.4931,-0.6251,0.0487,0.0172,1.0149,0.2459,0.2161,0.1797,0.1823,0.2204,0.0082,0.0438,0.2204,0.0082,0.0438,0.3000,0.0600,0.0002,0,-1.9233,-3.5000,-0.0030,-1.9233,-3.5000,-0.0030
-3.3053,11.0545,-0.3883,0.0000,-0.0686,-0.4800,-0.1800,0.6400,0.2060,0.0083,-0.0255,0.0011,1206,1492,1497,1502,1000,1000,1505,1000,1000,1379,1005,1197,1131,-0.6384,0.9155,1.4469,-0.0472,0.0105,0.9869,0.2409,0.2221,0.1733,0.1876,0.2204,0.0082,0.0438,0.2204,0.0082,0.0438,0.3000,0.0600,0.0002,0,-1.9233,-3.5000,-0.0030,-1.9233,-3.5000,-0.0030
-3.2877,11.0078,-0.3801,0.0686,-0.2057,-0.4800,-0.1800,0.6400,0.2060,0.0077,-0.0247,0.0074,1206,1492,1497,1502,1000,1000,1505,1000,1000,1379,1005,1197,1131,0.6115,-0.7373,-0.5705,-0.0294,-0.0013,1.0132,0.2458,0.2156,0.1811,0.1816,0.2204,0.0082,0.0438,0.2204,0.0082,0.0438,0.3000,0.0600,0.0002,0,-1.9233,-3.5000,-0.0030,-1.9233,-3.5000,-0.0030
-3.2773,10.9654,-0.3881,0.0686,-0.0000,-0.4800,-0.1800,0.6400,0.2060,0.0079,-0.0248,0.0074,1206,1492,1497,1502,1000,1000,1505,1000,1000,1379,1005,1198,1131,0.1875,-0.2337,-0.6959,0.0244,-0.0167,1.0019,0.2461,0.2156,0.1807,0.1816,0.2204,0.0082,0.0438,0.2204,0.0082,0.0438,0.3000,0.0600,0.0002,0,-1.9233,-3.5000,-0.0030,-1.9233,-3.5000,-0.0030
-3.2633,10.9157,-0.3869,0.0000,-0.1371,-0.4800,-0.1800,0.6400,0.2060,0.0080,-0.0250,0.0044,1208,1493,1497,1504,1000,1000,1505,1000,1000,1379,1005,1198,1131,-0.2168,0.4851,0.3154,0.0184,-0.0025,1.0016,0.2434,0.2187,0.1773,0.1846,0.2204,0.0082,0.0438,0.2204,0.0082,0.0438,0.3000,0.0600,0.0002,0,-1.9233,-3.5000,-0.0030,-1.9233,-3.5000,-0.0030
-3.2472,10.8724,-0.3757,0.0686,-0.1371,-0.4800,-0.1800,0.6400,0.2060,0.0079,-0.0245,0.0014,1206,1492,1497,1502,1000,1000,1505,1000,1000,1379,1005,1198,1131,0.0160,-0.5257,1.0356,0.0061,0.0054,0.9820,0.2398,0.2212,0.1750,0.1879,0.2204,0.0082,0.0438,0.2204,0.0082,0.0438,0.3000,0.0600,0.0002,0,-1.9233,-3.5000,-0.0030,-1.9233,-3.5000,-0.0030
-3.2328,10.8281,-0.3663,0.0000,-0.0686,-0.4800,-0.1800,0.6400,0.2060,0.0079,-0.0248,0.0053,1206,1492,1497,1502,1000,1000,1505,1000,1000,1379,1005,1198,1131,-0.0091,0.3571,0.0851,-0.0219,-0.0104,1.0092,0.2440,0.2177,0.1786,0.1837,0.2204,0.0082,0.0438,0.2204,0.0082,0.0438,0.3000,0.0600,0.0002,0,-1.9233,-3.5000,-0.0030,-1.9233,-3.5000,-0.0030
-3.2250,10.7797,-0.3648,0.0686,-0.2057,-0.4800,-0.1800,0.6400,0.2060,0.0078,-0.0245,0.0054,1206,1492,1497,1502,1000,1000,1505,1000,1000,1379,1005,1198,1131,-0.0342,-0.2553,0.0053,0.0043,-0.0079,1.0060,0.2437,0.2172,0.1791,0.1840,0.2204,0.0082,0.0438,0.2204,0.0082,0.0438,0.3000,0.0600,0.0002,0,-1.9233,-3.5000,-0.0030,-1.9233,-3.5000,-0.0030
-3.2106,10.7358,-0.3582,0.0686,-0.0686,-0.4800,-0.1800,0.6400,0.2060,0.0079,-0.0244,0.0032,1206,1492,1497,1502,1000,1000,1505,1000,1000,1379,1005,1198,1131,-0.2117,-0.1924,0.7212,-0.0070,0.0033,0.9987,0.2415,0.2193,0.1769,0.1863,0.2204,0.0082,0.0438,0.2204,0.0082,0.0438,0.3000,0.0600,0.0002,0,-1.9233,-3.5000,-0.0030,-1.9233,-3.5000,-0.0030
-3.1943,10.6882,-0.3467,0.1371,-0.0000,-0.4800,-0.1800,0.6400,0.2090,0.0077,-0.0245,0.0035,1209,1492,1497,1502,1000,1000,1505,1000,1000,1379,1005,1198,1131,0.2540,0.1695,0.6629,-0.0057,0.0028,0.9829,0.2446,0.2223,0.1804,0.1887,0.2204,0.0082,0.0438,0.2204,0.0082,0.0438,0.3000,0.0600,0.0002,0,-1.9233,-3.5000,-0.0030,-1.9233,-3.5000,-0.0030
-3.1817,10.6409,-0.3407,0.0000,-0.1371,-0.4800,-0.1800,0.6400,0.2100,0.0078,-0.0240,0.0049,1210,1493,1497,1504,1000,1000,1505,1000,1000,1379,1005,1198,1131,-0.1104,-0.5712,0.2019,0.0099,-0.0194,1.0151,0.2467,0.2214,0.1831,0.1889,0.2204,0.0082,0.0438,0.2204,0.0082,0.0438,0.3000,0.0600,0.0002,0,-1.9233,-3.5000,-0.0030,-1.9233,-3.5000,-0.0030
-3.1686,10.5967,-0.3372,0.0686,-0.0686,-0.4800,-0.1800,0.6400,0.2100,0.0078,-0.0243,0.0041,1210,1492,1497,1502,1000,1000,1505,1000,1000,1379,1005,1197,1131,-0.2663,0.2396,0.1435,-0.0038,-0.0066,1.0091,0.2462,0.2224,0.1819,0.1895,0.2204,0.0082,0.0438,0.2204,0.0082,0.0438,0.3000,0.0600,0.0002,0,-1.9233,-3.5000,-0.0030,-1.9233,-3.5000,-0.0030
-3.1547,10.5507,-0.3309,0.0686,-0.1371,-0.4800,-0.1800,0.6400,0.2100,0.0076,-0.0241,0.0037,1210,1492,1497,1502,1000,1000,1505,1000,1000,1379,1005,1197,1131,0.1407,0.0630,0.5849,-0.0095,0.0195,0.9864,0.2455,0.2228,0.1819,0.1898,0.2204,0.0082,0.0438,0.2204,0.0082,0.0438,0.3000,0.0600,0.0002,0,-1.9233,-3.5000,-0.0030,-1.9233,-3.5000,-0.0030
-3.1418,10.5049,-0.3256,0.0686,-0.0000,-0.4800,-0.1800,0.6400,0.2100,0.0076,-0.0238,0.0057,1210,1492,1497,1502,1000,1000,1505,1000,1000,1379,1005,1197,1131,0.1315,-0.5101,-0.0351,0.0049,-0.0150,1.0144,0.2471,0.2205,0.1843,0.1881,0.2204,0.0082,0.0438,0.2204,0.0082,0.0438,0.3000,0.0600,0.0002,0,-1.9233,-3.5000,-0.0030,-1.9233,-3.5000,-0.0030
-3.1280,10.4568,-0.3264,0.0000,-0.0686,-0.4800,-0.1800,0.6400,0.2100,0.0077,-0.0240,0.0067,1210,1492,1497,1502,1000,1000,1505,1000,1000,1379,1005,1197,1131,-0.0773,0.0816,-0.4403,-0.0068,-0.0179,1.0076,0.2484,0.2195,0.1851,0.1870,0.2204,0.0082,0.0438,0.2204,0.0082,0.0438,0.3000,0.0600,0.0002,0,-1.9233,-3.5000,-0.0030,-1.9233,-3.5000,-0.0030
-3.1165,10.4093,-0.3266,0.0686,-0.0686,-0.4800,-0.1800,0.6400,0.2100,0.0076,-0.0238,0.0057,1210,1492,1497,1502,1000,1000,1505,1000,1000,1379,1005,1198,1131,0.0005,-0.0838,-0.0697,0.0006,0.0049,0.9940,0.2471,0.2205,0.1843,0.1882,0.2204,0.0082,0.0438,0.2204,0.0082,0.0438,0.3000,0.0600,0.0002,0,-1.9233,-3.5000,-0.0030,-1.9233,-3.5000,-0.0030
-3.1052,10.3632,-0.3250,0.0000,-0.0686,-0.4800,-0.1800,0.6400,0.2100,0.0076,-0.0237,0.0060,1210,1492,1497,1504,1000,1000,1505,1000,1000,1379,1005,1198,1131,-0.0772,-0.0777,-0.1401,-0.0015,0.0026,1.0009,0.2473,0.2201,0.1847,0.1879,0.2204,0.0082,0.0438,0.2204,0.0082,0.0438,0.3000,0.0600,0.0002,0,-1.9233,-3.5000,-0.0030,-1.9233,-3.5000,-0.0030
-3.0914,10.3165,-0.3271,0.0000,-0.2057,-0.4800,-0.1800,0.6400,0.2100,0.0076,-0.0236,0.0059,1210,1492,1497,1502,1000,1000,1505,1000,1000,1379,1005,1198,1131,-0.0938,-0.0127,-0.4673,-0.0122,-0.0103,1.0084,0.2471,0.2201,0.1847,0.1881,0.2204,0.0082,0.0438,0.2204,0.0082,0.0438,0.3000,0.0600,0.0002,0,-1.9233,-3.5000,-0.0030,-1.9233,-3.5000,-0.0030
-3.0798,10.2703,-0.3319,0.0686,-0.0686,-0.4800,-0.1800,0.6400,0.2100,0.0075,-0.0236,0.0076,1210,1492,1497,1502,1000,1000,1505,1000,1000,1379,1005,1198,1131,0.0722,0.0312,-0.7143,-0.0060,-0.0011,0.9970,0.2486,0.2185,0.1865,0.1864,0.2204,0.0082,0.0438,0.2204,0.0082,0.0438,0.3000,0.0600,0.0002,0,-1.9233,-3.5000,-0.0030,-1.9233,-3.5000,-0.0030
-3.0671,10.2255,-0.3337,0.0686,-0.0000,-0.4800,-0.1800,0.6400,0.2110,0.0075,-0.0235,0.0065,1211,1492,1497,1502,1000,1000,1505,1000,1000,1379,1005,1198,1131,0.0708,0.1147,-0.3275,0.0046,-0.0051,0.9994,0.2485,0.2205,0.1865,0.1885,0.2204,0.0082,0.0438,0.2204,0.0082,0.0438,0.3000,0.0600,0.0002,0,-1.9233,-3.5000,-0.0030,-1.9233,-3.5000,-0.0030
-3.0523,10.1803,-0.3328,0.0000,-0.1371,-0.4800,-0.1800,0.6400,0.2110,0.0075,-0.0233,0.0063,1211,1492,1497,1502,1000,1000,1505,1000,1000,1379,1005,1197,1131,0.0356,-0.0476,-0.2080,-0.0070,-0.0137,0.9990,0.2481,0.2206,0.1865,0.1889,0.2204,0.0082,0.0438,0.2204,0.0082,0.0438,0.3000,0.0600,0.0002,0,-1.9233,-3.5000,-0.0030,-1.9233,-3.5000,-0.0030
-3.0389,10.1337,-0.3350,0.0686,-0.1371,-0.4800,-0.1800,0.6400,0.2110,0.0075,-0.0232,0.0068,1211,1492,1497,1502,1000,1000,1505,1000,1000,1379,1005,1197,1131,-0.1951,-0.1014,-0.4196,0.0062,-0.0016,1.0006,0.2486,0.2199,0.1870,0.1885,0.2204,0.0082,0.0438,0.2204,0.0082,0.0438,0.3000,0.0600,0.0002,0,-1.9233,-3.5000,-0.0030,-1.9233,-3.5000,-0.0030
-3.0268,10.0882,-0.3367,0.0686,-0.1371,-0.4800,-0.1800,0.6400,0.2110,0.0075,-0.0232,0.0061,1211,1492,1497,1504,1000,1000,1505,1000,1000,1379,1005,1198,1131,-0.0911,0.0458,-0.1865,-0.0112,0.0063,1.0052,0.2477,0.2207,0.1864,0.1892,0.2204,0.0082,0.0438,0.2204,0.0082,0.0438,0.3000,0.0600,0.0002,0,-1.9233,-3.5000,-0.0030,-1.9233,-3.5000,-0.0030
-3.0143,10.0429,-0.3344,0.0686,-0.1371,-0.4800,-0.1800,0.6400,0.2110,0.0074,-0.0231,0.0041,1211,1492,1497,1502,1000,1000,1505,1000,1000,1379,1005,1198,1131,0.0172,0.0094,0.1599,-0.0154,0.0082,0.9984,0.2455,0.2226,0.1846,0.1913,0.2204,0.0082,0.0438,0.2204,0.0082,0.0438,0.3000,0.0600,0.0002,0,-1.9233,-3.5000,-0.0030,-1.9233,-3.5000,-0.0030
-3.0005,9.9963,-0.3308,0.0000,-0.0686,-0.4800,-0.1800,0.6400,0.2110,0.0073,-0.0229,0.0053,1211,1492,1497,1502,1000,1000,1505,1000,1000,1379,1005,1198,1131,0.0968,-0.2934,0.0847,-0.0009,0.0096,1.0019,0.2465,0.2212,0.1861,0.1901,0.2204,0.0082,0.0438,0.2204,0.0082,0.0438,0.3000,0.0600,0.0002,0,-1.9233,-3.5000,-0.0030,-1.9233,-3.5000,-0.0030
-2.9880,9.9497,-0.3291,0.0686,-0.0686,-0.4800,-0.1800,0.6400,0.2110,0.0073,-0.0229,0.0058,1211,1492,1497,1502,1000,1000,1505,1000,1000,1379,1005,1198,1131,0.1736,-0.0637,-0.0876,0.0008,0.0017,1.0043,0.2469,0.2208,0.1866,0.1896,0.2204,0.0082,0.0438,0.2204,0.0082,0.0438,0.3000,0.0600,0.0002,0,-1.9233,-3.5000,-0.0030,-1.9233,-3.5000,-0.0030
-2.9756,9.9046,-0.3256,0.0000,-0.2057,-0.4800,-0.1800,0.6400,0.2110,0.0073,-0.0228,0.0044,1211,1492,1497,1502,1000,1000,1505,1000,1000,1379,1005,1198,1131,0.0335,0.0608,0.3342,-0.0004,-0.0106,0.9938,0.2456,0.2221,0.1853,0.1910,0.2204,0.0082,0.0438,0.2204,0.0082,0.0438,0.3000,0.0600,0.0002,0,-1.9233,-3.5000,-0.0030,-1.9233,-3.5000,-0.0030
-2.9624,9.8593,-0.3177,0.0000,-0.0686,-0.4800,-0.1800,0.6400,0.2110,0.0073,-0.0227,0.0038,1211,1492,1497,1502,1000,1000,1505,1000,1000,1379,1005,1197,1131,0.0588,-0.0518,0.5930,0.0003,-0.0073,0.9939,0.2447,0.2226,0.1848,0.1918,0.2204,0.0082,0.0438,0.2204,0.0082,0.0438,0.3000,0.0600,0.0002,0,-1.9233,-3.5000,-0.0030,-1.9233,-3.5000,-0.0030
-2.9487,9.8133,-0.3113,0.0000,-0.0686,-0.4800,-0.1800,0.6400,0.2110,0.0072,-0.0226,0.0051,1211,1493,1497,1504,1000,1000,1505,1000,1000,1379,1005,1198,1131,0.1817,-0.1092,0.1789,-0.0027,0.0024,1.0004,0.2458,0.2213,0.1863,0.1905,0.2204,0.0082,0.0438,0.2204,0.0082,0.0438,0.3000,0.0600,0.0002,0,-1.9233,-3.5000,-0.0030,-1.9233,-3.5000,-0.0030
-2.9353,9.7662,-0.3076,0.0000,-0.1371,-0.4800,-0.1800,0.6400,0.2110,0.0072,-0.0224,0.0039,1211,1492,1497,1502,1000,1000,1505,1000,1000,1379,1005,1198,1131,0.1787,-0.2428,0.2182,-0.0020,-0.0064,1.0046,0.2445,0.2223,0.1854,0.1918,0.2204,0.0082,0.0438,0.2204,0.0082,0.0438,0.3000,0.0600,0.0002,0,-1.9233,-3.5000,-0.0030,-1.9233,-3.5000,-0.0030
-2.9226,9.7189,-0.3007,0.0686,-0.0686,-0.4800,-0.1800,0.6400,0.2110,0.0072,-0.0223,0.0041,1211,1492,1497,1502,1000,1000,1505,1000,1000,1379,1005,1197,1131,0.0980,-0.2626,0.5220,-0.0022,-0.0104,0.9989,0.2445,0.2221,0.1856,0.1918,0.2204,0.0082,0.0438,0.2204,0.0082,0.0438,0.3000,0.0600,0.0002,0,-1.9233,-3.5000,-0.0030,-1.9233,-3.5000,-0.0030
-2.9092,9.6724,-0.2938,0.1371,-0.0686,-0.4800,-0.1800,0.6400,0.2110,0.0072,-0.0222,0.0053,1211,1492,1497,1502,1000,1000,1505,1000,1000,1379,1005,1197,1131,0.0639,-0.2420,0.1194,-0.0009,0.0021,0.9890,0.2457,0.2208,0.1869,0.1906,0.2204,0.0082,0.0438,0.2204,0.0082,0.0438,0.3000,0.0600,0.0002,0,-1.9233,-3.5000,-0.0030,-1.9233,-3.5000,-0.0030
-2.8961,9.6247,-0.2914,0.0000,-0.1371,-0.4800,-0.1800,0.6400,0.2110,0.0071,-0.0221,0.0060,1211,1492,1497,1502,1000,1000,1505,1000,1000,1379,1005,1197,1131,0.0995,-0.2779,-0.1605,0.0023,-0.0048,0.9963,0.2463,0.2200,0.1878,0.1900,0.2204,0.0082,0.0438,0.2204,0.0082,0.0438,0.3000,0.0600,0.0002,0,-1.9233,-3.5000,-0.0030,-1.9233,-3.5000,-0.0030
-2.8842,9.5773,-0.2884,0.0686,-0.0686,-0.4800,-0.1800,0.6400,0.2110,0.0071,-0.0220,0.0051,1211,1492,1497,1502,1000,1000,1505,1000,1000,1379,1005,1197,1131,-0.0138,-0.2291,0.1566,-0.0069,-0.0088,1.0000,0.2452,0.2208,0.1869,0.1910,0.2204,0.0082,0.0438,0.2204,0.0082,0.0438,0.3000,0.0600,0.0002,0,-1.9233,-3.5000,-0.0030,-1.9233,-3.5000,-0.0030
-2.8712,9.5298,-0.2832,0.0686,-0.2057,-0.4800,-0.1800,0.6400,0.2110,0.0071,-0.0220,0.0053,1211,1493,1497,1504,1000,1000,1505,1000,1000,1379,1005,1198,1131,0.0881,-0.1549,0.0900,-0.0020,-0.0048,0.9937,0.2454,0.2206,0.1873,0.1908,0.2204,0.0082,0.0438,0.2204,0.0082,0.0438,0.3000,0.0600,0.0002,0,-1.9233,-3.5000,-0.0030,-1.9233,-3.5000,-0.0030
-2.8578,9.4832,-0.2816,0.0686,-0.0686,-0.4800,-0.1800,0.6400,0.2110,0.0070,-0.0219,0.0056,1211,1492,1497,1502,1000,1000,1505,1000,1000,1379,1005,1197,1131,0.1163,-0.0924,-0.3406,-0.0007,-0.0072,1.0068,0.2455,0.2203,0.1876,0.1905,0.2204,0.0082,0.0438,0.2204,0.0082,0.0438,0.3000,0.0600,0.0002,0,-1.9233,-3.5000,-0.0030,-1.9233,-3.5000,-0.0030
-2.8452,9.4361,-0.2825,0.0000,-0.1371,-0.4800,-0.1800,0.6400,0.2110,0.0070,-0.0219,0.0061,1211,1492,1497,1502,1000,1000,1505,1000,1000,1379,1005,1197,1131,0.0296,0.0341,-0.2273,-0.0106,-0.0105,1.0077,0.2461,0.2197,0.1882,0.1900,0.2204,0.0082,0.0438,0.2204,0.0082,0.0438,0.3000,0.0600,0.0002,0,-1.9233,-3.5000,-0.0030,-1.9233,-3.5000,-0.0030
-2.8324,9.3894,-0.2812,-0.0686,-0.0000,-0.4800,-0.1800,0.6400,0.2110,0.0071,-0.0217,0.0057,1211,1492,1497,1502,1000,1000,1505,1000,1000,1379,1005,1197,1131,-0.1225,-0.1360,-0.0580,-0.0031,-0.0099,1.0050,0.2455,0.2199,0.1880,0.1906,0.2204,0.0082,0.0438,0.2204,0.0082,0.0438,0.3000,0.0600,0.0002,0,-1.9233,-3.5000,-0.0030,-1.9233,-3.5000,-0.0030
-2.8196,9.3423,-0.2813,-0.0686,-0.2057,-0.4800,-0.1800,0.6400,0.2110,0.0071,-0.0216,0.0067,1211,1492,1497,1502,1000,1000,1505,1000,1000,1379,1005,1197,1131,-0.1218,-0.1927,-0.3263,-0.0033,0.0015,0.9950,0.2463,0.2189,0.1890,0.1898,0.2204,0.0082,0.0438,0.2204,0.0082,0.0438,0.3000,0.0600,0.0002,0,-1.9233,-3.5000,-0.0030,-1.9233,-3.5000,-0.0030
-2.8064,9.2953,-0.2825,0.0686,-0.2057,-0.4800,-0.1800,0.6400,0.2110,0.0070,-0.0215,0.0067,1211,1492,1497,1502,1000,1000,1505,1000,1000,1379,1005,1198,1131,-0.0710,-0.1275,-0.3420,-0.0039,-0.0001,0.9883,0.2463,0.2188,0.1892,0.1898,0.2204,0.0082,0.0438,0.2204,0.0082,0.0438,0.3000,0.0600,0.0002,0,-1.9233,-3.5000,-0.0030,-1.9233,-3.5000,-0.0030
-2.7941,9.2486,-0.2834,0.0686,-0.1371,-0.4800,-0.1800,0.6400,0.2110,0.0070,-0.0214,0.0063,1211,1492,1497,1504,1000,1000,1505,1000,1000,1379,1005,1198,1131,-0.0700,-0.0703,-0.2275,-0.0007,0.0003,1.0036,0.2457,0.2192,0.1889,0.1902,0.2204,0.0082,0.0438,0.2204,0.0082,0.0438,0.3000,0.0600,0.0002,0,-1.9233,-3.5000,-0.0030,-1.9233,-3.5000,-0.0030
-2.7811,9.2027,-0.2823,0.0000,-0.0686,-0.4800,-0.1800,0.6400,0.2110,0.0069,-0.0214,0.0051,1211,1492,1497,1502,1000,1000,1505,1000,1000,1379,1005,1198,1131,0.1357,0.0806,-0.1707,-0.0032,-0.0072,1.0184,0.2444,0.2204,0.1878,0.1913,0.2204,0.0082,0.0438,0.2204,0.0082,0.0438,0.3000,0.0600,0.0002,0,-1.9233,-3.5000,-0.0030,-1.9233,-3.5000,-0.0030
-2.7692,9.1566,-0.2822,0.2057,-0.1371,-0.4800,-0.1800,0.6400,0.2110,0.0069,-0.0213,0.0063,1211,1492,1497,1502,1000,1000,1505,1000,1000,1379,1005,1197,1131,-0.0487,-0.0333,-0.2713,0.0218,-0.0186,1.0009,0.2455,0.2191,0.1891,0.1904,0.2204,0.0082,0.0438,0.2204,0.0082,0.0438,0.3000,0.0600,0.0002,0,-1.9233,-3.5000,-0.0030,-1.9233,-3.5000,-0.0030
-2.7499,9.1145,-0.2673,0.0686,-0.1371,-0.4800,-0.1800,0.6400,0.2110,0.0070,-0.0212,-0.0033,1211,1492,1497,1502,1000,1000,1505,1000,1000,1379,1005,1197,1131,-0.2906,0.0263,2.8549,-0.0386,0.0112,0.9762,0.2360,0.2285,0.1795,0.2000,0.2204,0.0082,0.0438,0.2204,0.0082,0.0438,0.3000,0.0600,0.0002,0,-1.9233,-3.5000,-0.0030,-1.9233,-3.5000,-0.0030
-2.7313,9.0663,-0.2212,0.0000,-0.0000,-0.4800,-0.1800,0.6400,0.2110,0.0068,-0.0210,-0.0093,1211,1492,1497,1502,1000,1000,1505,1000,1000,1379,1005,1198,1131,0.1026,-0.3260,5.0347,0.0117,0.0154,1.0156,0.2294,0.2345,0.1739,0.2061,0.2204,0.0082,0.0438,0.2204,0.0082,0.0438,0.3000,0.0600,0.0002,0,-1.9233,-3.5000,-0.0030,-1.9233,-3.5000,-0.0030
-2.7056,9.0160,-0.1640,0.0000,-0.0000,-0.4800,-0.1800,0.6400,0.2110,0.0065,-0.0205,-0.0098,1211,1492,1497,1502,1000,1000,1505,1000,1000,1379,1005,1198,1131,0.5383,-1.0770,5.0478,0.0085,-0.0046,1.0172,0.2283,0.2348,0.1742,0.2068,0.2204,0.0082,0.0438,0.2204,0.0082,0.0438,0.3000,0.0600,0.0002,0,-1.9233,-3.5000,-0.0030,-1.9233,-3.5000,-0.0030
-2.6758,8.9591,-0.1132,0.0000,-0.0686,-0.4800,-0.1800,0.6400,0.2110,0.0063,-0.0203,-0.0069,1211,1492,1497,1504,1000,1000,1505,1000,1000,1379,1005,1198,1131,0.8738,-1.3367,4.0358,0.0415,-0.0116,1.0261,0.2308,0.2318,0.1775,0.2039,0.2204,0.0082,0.0438,0.2204,0.0082,0.0438,0.3000,0.0600,0.0002,0,-1.9233,-3.5000,-0.0030,-1.9233,-3.5000,-0.0030
-2.6519,8.9018,-0.0794,0.2057,-0.0686,-0.4800,-0.1800,0.6400,0.2110,0.0064,-0.0203,-0.0015,1211,1492,1497,1502,1000,1000,1505,1000,1000,1379,1005,1198,1131,0.5663,-1.1567,2.1150,0.0012,0.0099,1.0008,0.2362,0.2264,0.1828,0.1987,0.2204,0.0082,0.0438,0.2204,0.0082,0.0438,0.3000,0.0600,0.0002,0,-1.9233,-3.5000,-0.0030,-1.9233,-3.5000,-0.0030
-2.6371,8.8419,-0.0640,0.1371,-0.0686,-0.4800,-0.1800,0.6400,0.2110,0.0068,-0.0202,0.0041,1211,1492,1497,1502,1000,1000,1505,1000,1000,1379,1005,1198,1131,-0.3738,-0.9226,0.5861,-0.0251,0.0233,0.9854,0.2421,0.2204,0.1881,0.1934,0.2204,0.0082,0.0438,0.2204,0.0082,0.0438,0.3000,0.0600,0.0002,0,-1.9233,-3.5000,-0.0030,-1.9233,-3.5000,-0.0030
-2.6311,8.7925,-0.0700,0.0686,-0.0686,-0.4800,-0.1800,0.6400,0.2110,0.0069,-0.0205,0.0127,1211,1492,1497,1502,1000,1000,1505,1000,1000,1379,1005,1198,1131,-0.6846,-0.1589,-2.1902,0.0107,-0.0536,0.9944,0.2510,0.2119,0.1963,0.1848,0.2204,0.0082,0.0438,0.2204,0.0082,0.0438,0.3000,0.0600,0.0002,0,-1.9233,-3.5000,-0.0030,-1.9233,-3.5000,-0.0030
-2.6288,8.7466,-0.1064,0.0686,-0.0686,-0.4800,-0.1800,0.6400,0.2110,0.0068,-0.0208,0.0183,1211,1492,1497,1502,1000,1000,1505,1000,1000,1379,1005,1198,1131,-0.5113,0.7347,-4.2697,0.0078,0.0007,0.9899,0.2569,0.2066,0.2017,0.1788,0.2204,0.0082,0.0438,0.2204,0.0082,0.0438,0.3000,0.0600,0.0002,0,-1.9233,-3.5000,-0.0030,-1.9233,-3.5000,-0.0030
-2.6255,8.7176,-0.1519,0.0000,-0.0686,-0.4800,-0.1800,0.6400,0.2110,0.0070,-0.0210,0.0212,1211,1492,1497,1502,1000,1000,1505,1000,1000,1379,1005,1198,1131,-0.9466,1.4328,-5.0913,-0.0339,-0.0100,0.9937,0.2602,0.2038,0.2041,0.1758,0.2204,0.0082,0.0438,0.2204,0.0082,0.0438,0.3000,0.0600,0.0002,0,-1.9233,-3.5000,-0.0030,-1.9233,-3.5000,-0.0030
-2.6194,8.6748,-0.2167,0.0000,-0.0000,-0.4800,-0.1800,0.6400,0.2110,0.0062,-0.0204,0.0275,1211,1493,1497,1504,1000,1000,1505,1000,1000,1379,1005,1198,1131,0.9039,0.3134,-7.2582,0.0057,0.0210,1.0279,0.2651,0.1977,0.2119,0.1692,0.2204,0.0082,0.0438,0.2204,0.0082,0.0438,0.3000,0.0600,0.0002,0,-1.9233,-3.5000,-0.0030,-1.9233,-3.5000,-0.0030
-2.6146,8.6480,-0.2896,0.0000,-0.0000,-0.4800,-0.1800,0.6400,0.2110,0.0068,-0.0210,0.0242,1211,1492,1497,1502,1000,1000,1505,1000,1000,1379,1005,1198,1131,-0.4628,1.5989,-6.5573,-0.0004,-0.0116,0.9916,0.2630,0.2010,0.2075,0.1726,0.2204,0.0082,0.0438,0.2204,0.0082,0.0438,0.3000,0.0600,0.0002,0,-1.9233,-3.5000,-0.0030,-1.9233,-3.5000,-0.0030
-2.6069,8.5900,-0.3573,0.0000,-0.0000,-0.4800,-0.1800,0.6400,0.2110,0.0059,-0.0198,0.0259,1211,1492,1497,1502,1000,1000,1505,1000,1000,1379,1005,1197,1131,1.5770,-0.8196,-6.7637,0.0336,0.0340,1.0130,0.2625,0.1990,0.2112,0.1712,0.2204,0.0082,0.0438,0.2204,0.0082,0.0438,0.3000,0.0600,0.0002,0,-1.9233,-3.5000,-0.0030,-1.9233,-3.5000,-0.0030
-2.6065,8.5542,-0.4246,0.0000,-0.0686,-0.4800,-0.1800,0.6400,0.2110,0.0069,-0.0204,0.0233,1211,1492,1497,1502,1000,1000,1505,1000,1000,1379,1005,1197,1131,-0.7162,0.8069,-5.9119,0.0159,-0.0501,1.0123,0.2616,0.2012,0.2070,0.1741,0.2204,0.0082,0.0438,0.2204,0.0082,0.0438,0.3000,0.0600,0.0002,0,-1.9233,-3.5000,-0.0030,-1.9233,-3.5000,-0.0030
-2.5998,8.4879,-0.4777,0.2057,-0.1371,-0.4800,-0.1800,0.6400,0.2110,0.0063,-0.0198,0.0175,1211,1492,1497,1502,1000,1000,1505,1000,1000,1379,1005,1198,1131,0.6549,-0.2176,-4.1098,0.0200,0.0275,0.9854,0.2546,0.2070,0.2024,0.1799,0.2204,0.0082,0.0438,0.2204,0.0082,0.0438,0.3000,0.0600,0.0002,0,-1.9233,-3.5000,-0.0030,-1.9233,-3.5000,-0.0030
-2.6237,8.4767,-0.4982,0.0000,-0.2057,-0.4800,-0.1800,0.6400,0.2110,0.0065,-0.0192,0.0032,1211,1492,1497,1502,1000,1000,1505,1000,1000,1379,1005,1198,1131,0.1524,-1.7068,0.6521,-0.0566,-0.3197,1.0398,0.2399,0.2204,0.1885,0.1952,0.2204,0.0082,0.0438,0.2204,0.0082,0.0438,0.3000,0.0600,0.0002,0,-1.9233,-3.5000,-0.0030,-1.9233,-3.5000,-0.0030
-2.5998,8.4060,-0.4735,0.0686,-0.0686,-0.4800,-0.1800,0.6400,0.2110,0.0054,-0.0196,-0.0062,1211,1493,1497,1504,1000,1000,1505,1000,1000,1379,1005,1198,1131,2.6189,-0.4771,3.8105,-0.0528,0.0569,0.9818,0.2298,0.2313,0.1798,0.2031,0.2204,0.0082,0.0438,0.2204,0.0082,0.0438,0.3000,0.0600,0.0002,0,-1.9233,-3.5000,-0.0030,-1.9233,-3.5000,-0.0030
-2.5643,8.3446,-0.4248,-0.0686,-0.1371,-0.4800,-0.1800,0.6400,0.2110,0.0055,-0.0172,-0.0081,1211,1492,1497,1502,1000,1000,1505,1000,1000,1379,1005,1198,1131,2.3027,-5.5682,4.4456,0.0004,-0.0497,0.9708,0.2256,0.2308,0.1802,0.2074,0.2204,0.0082,0.0438,0.2204,0.0082,0.0438,0.3000,0.0600,0.0002,0,-1.9233,-3.5000,-0.0030,-1.9233,-3.5000,-0.0030
-2.5141,8.2802,-0.3631,0.0686,-0.2057,-0.4800,-0.1800,0.6400,0.2110,0.0066,-0.0204,-0.0156,1211,1492,1497,1502,1000,1000,1505,1000,1000,1379,1005,1198,1131,-0.5465,2.0323,7.0383,0.0119,-0.0119,0.9640,0.2224,0.2403,0.1684,0.2128,0.2204,0.0082,0.0438,0.2204,0.0082,0.0438,0.3000,0.0600,0.0002,0,-1.9233,-3.5000,-0.0030,-1.9233,-3.5000,-0.0030
-2.5161,8.2554,-0.2904,0.0686,-0.1371,-0.4800,-0.1800,0.6400,0.2110,0.0075,-0.0195,-0.0131,1211,1492,1497,1502,1000,1000,1505,1000,1000,1379,1005,1197,1131,-2.5781,0.0542,6.4370,0.0067,-0.0461,1.0070,0.2248,0.2361,0.1709,0.2122,0.2204,0.0082,0.0438,0.2204,0.0082,0.0438,0.3000,0.0600,0.0002,0,-1.9233,-3.5000,-0.0030,-1.9233,-3.5000,-0.0030
-2.5309,8.2585,-0.2270,0.0000,-0.0686,-0.4800,-0.1800,0.6400,0.2110,0.0087,-0.0220,-0.0090,1211,1492,1497,1502,1000,1000,1505,1000,1000,1379,1005,1197,1131,-5.1766,5.7911,5.1548,-0.0442,0.0065,1.0162,0.2327,0.2333,0.1713,0.2067,0.2204,0.0082,0.0438,0.2204,0.0082,0.0438,0.3000,0.0600,0.0002,0,-1.9233,-3.5000,-0.0030,-1.9233,-3.5000,-0.0030
-2.5565,8.2266,-0.1846,-0.0686,-0.0000,-0.4800,-0.1800,0.6400,0.2110,0.0067,-0.0194,-0.0010,1211,1492,1497,1502,1000,1000,1505,1000,1000,1379,1005,1197,1131,-0.4625,-0.0377,2.4490,-0.0142,-0.0100,1.0005,0.2360,0.2247,0.1839,0.1993,0.2204,0.0082,0.0438,0.2204,0.0082,0.0438,0.3000,0.0600,0.0002,0,-1.9233,-3.5000,-0.0030,-1.9233,-3.5000,-0.0030
-2.5479,8.2014,-0.1659,0.0000,-0.0686,-0.4800,-0.1800,0.6400,0.2110,0.0070,-0.0194,0.0051,1211,1493,1497,1504,1000,1000,1505,1000,1000,1379,1005,1197,1131,-1.1327,0.1058,0.3241,-0.0015,0.0013,1.0062,0.2424,0.2184,0.1897,0.1935,0.2204,0.0082,0.0438,0.2204,0.0082,0.0438,0.3000,0.0600,0.0002,0,-1.9233,-3.5000,-0.0030,-1.9233,-3.5000,-0.0030
-2.5185,8.1213,-0.1640,0.0686,-0.1371,-0.4800,-0.1800,0.6400,0.2110,0.0049,-0.0185,0.0079,1211,1492,1497,1502,1000,1000,1505,1000,1000,1379,1005,1197,1131,3.5199,-1.4622,-1.1302,0.0406,0.0298,0.9693,0.2423,0.2167,0.1956,0.1894,0.2204,0.0082,0.0438,0.2204,0.0082,0.0438,0.3000,0.0600,0.0002,0,-1.9233,-3.5000,-0.0030,-1.9233,-3.5000,-0.0030
-2.4876,8.0649,-0.1760,0.0000,-0.1371,-0.4800,-0.1800,0.6400,0.2110,0.0059,-0.0175,0.0115,1211,1492,1497,1502,1000,1000,1505,1000,1000,1379,1005,1198,1131,1.0719,-3.4876,-1.9660,0.0181,0.0138,1.0196,0.2459,0.2112,0.1991,0.1878,0.2204,0.0082,0.0438,0.2204,0.0082,0.0438,0.3000,0.0600,0.0002,0,-1.9233,-3.5000,-0.0030,-1.9233,-3.5000,-0.0030
-2.4496,7.9835,-0.1934,0.0000,-0.0686,-0.4800,-0.1800,0.6400,0.2110,0.0060,-0.0192,0.0115,1211,1492,1497,1502,1000,1000,1505,1000,1000,1379,1005,1198,1131,0.6468,0.7422,-2.0310,0.0302,0.0751,0.9793,0.2477,0.2127,0.1973,0.1862,0.2204,0.0082,0.0438,0.2204,0.0082,0.0438,0.3000,0.0600,0.0002,0,-1.9233,-3.5000,-0.0030,-1.9233,-3.5000,-0.0030
-2.4490,7.9391,-0.2141,0.0686,-0.0686,-0.4800,-0.1800,0.6400,0.2110,0.0064,-0.0179,0.0116,1211,1492,1497,1502,1000,1000,1505,1000,1000,1379,1005,1197,1131,-0.3118,-2.1360,-1.9984,-0.0088,-0.0293,1.0134,0.2468,0.2109,0.1983,0.1880,0.2204,0.0082,0.0438,0.2204,0.0082,0.0438,0.3000,0.0600,0.0002,0,-1.9233,-3.5000,-0.0030,-1.9233,-3.5000,-0.0030
-2.4411,7.8877,-0.2330,0.0686,-0.0000,-0.4800,-0.1800,0.6400,0.2110,0.0065,-0.0198,0.0118,1211,1492,1497,1502,1000,1000,1505,1000,1000,1379,1005,1197,1131,-0.7292,2.5815,-1.9624,-0.0409,0.0217,0.9817,0.2492,0.2125,0.1964,0.1859,0.2204,0.0082,0.0438,0.2204,0.0082,0.0438,0.3000,0.0600,0.0002,0,-1.9233,-3.5000,-0.0030,-1.9233,-3.5000,-0.0030
-2.4435,7.8520,-0.2532,-0.0686,-0.0686,-0.4800,-0.1800,0.6400,0.2110,0.0063,-0.0186,0.0105,1211,1492,1497,1504,1000,1000,1505,1000,1000,1379,1005,1198,1131,-0.2512,-0.1005,-1.6552,-0.0217,-0.0471,1.0350,0.2464,0.2128,0.1965,0.1883,0.2204,0.0082,0.0438,0.2204,0.0082,0.0438,0.3000,0.0600,0.0002,0,-1.9233,-3.5000,-0.0030,-1.9233,-3.5000,-0.0030
-2.4379,7.8140,-0.2675,0.0686,-0.0686,-0.4800,-0.1800,0.6400,0.2110,0.0060,-0.0190,0.0083,1211,1492,1497,1502,1000,1000,1505,1000,1000,1379,1005,1198,1131,0.6073,0.9725,-1.1517,-0.0343,-0.0080,0.9775,0.2442,0.2157,0.1943,0.1897,0.2204,0.0082,0.0438,0.2204,0.0082,0.0438,0.3000,0.0600,0.0002,0,-1.9233,-3.5000,-0.0030,-1.9233,-3.5000,-0.0030
-2.4211,7.7697,-0.2788,0.0686,-0.0686,-0.4800,-0.1800,0.6400,0.2110,0.0064,-0.0188,0.0092,1211,1492,1497,1502,1000,1000,1505,1000,1000,1379,1005,1198,1131,-0.4241,0.7557,-1.1416,0.0162,-0.0090,1.0461,0.2453,0.2142,0.1950,0.1894,0.2204,0.0082,0.0438,0.2204,0.0082,0.0438,0.3000,0.0600,0.0002,0,-1.9233,-3.5000,-0.0030,-1.9233,-3.5000,-0.0030
-2.4177,7.7313,-0.2854,0.0000,-0.1371,-0.4800,-0.1800,0.6400,0.2110,0.0056,-0.0179,0.0061,1211,1492,1497,1502,1000,1000,1505,1000,1000,1379,1005,1198,1131,1.2351,-1.0905,-0.1249,-0.0019,-0.0065,0.9796,0.2406,0.2172,0.1935,0.1927,0.2204,0.0082,0.0438,0.2204,0.0082,0.0438,0.3000,0.0600,0.0002,0,-1.9233,-3.5000,-0.0030,-1.9233,-3.5000,-0.0030
-2.4016,7.6787,-0.2832,0.0000,-0.0686,-0.4800,-0.1800,0.6400,0.2110,0.0071,-0.0186,0.0058,1211,1492,1497,1502,1000,1000,1505,1000,1000,1379,1005,1198,1131,-2.2517,0.7135,0.0409,0.0502,-0.0218,1.0536,0.2425,0.2167,0.1910,0.1938,0.2204,0.0082,0.0438,0.2204,0.0082,0.0438,0.3000,0.0600,0.0002,0,-1.9233,-3.5000,-0.0030,-1.9233,-3.5000,-0.0030
-2.4041,7.6367,-0.2817,0.0686,-0.0000,-0.4800,-0.1800,0.6400,0.2110,0.0056,-0.0176,0.0042,1211,1492,1497,1502,1000,1000,1505,1000,1000,1379,1005,1197,1131,1.1813,-1.3249,0.5035,0.0110,0.0236,0.9262,0.2385,0.2187,0.1920,0.1948,0.2204,0.0082,0.0438,0.2204,0.0082,0.0438,0.3000,0.0600,0.0002,0,-1.9233,-3.5000,-0.0030,-1.9233,-3.5000,-0.0030
-2.3829,7.5842,-0.2681,0.0000,-0.0686,-0.4800,-0.1800,0.6400,0.2110,0.0069,-0.0184,0.0036,1211,1493,1497,1504,1000,1000,1505,1000,1000,1379,1005,1198,1131,-1.8106,0.7636,0.7623,-0.0147,0.0283,1.0554,0.2399,0.2189,0.1892,0.1959,0.2204,0.0082,0.0438,0.2204,0.0082,0.0438,0.3000,0.0600,0.0002,0,-1.9233,-3.5000,-0.0030,-1.9233,-3.5000,-0.0030
-2.3771,7.5346,-0.2596,0.0686,-0.0686,-0.4800,-0.1800,0.6400,0.2110,0.0052,-0.0175,0.0036,1211,1492,1497,1502,1000,1000,1505,1000,1000,1379,1005,1198,1131,2.1310,-1.1302,0.3647,-0.0222,-0.0361,0.9769,0.2373,0.2197,0.1920,0.1951,0.2204,0.0082,0.0438,0.2204,0.0082,0.0438,0.3000,0.0600,0.0002,0,-1.9233,-3.5000,-0.0030,-1.9233,-3.5000,-0.0030
-2.3458,7.4879,-0.2444,-0.0686,-0.1371,-0.4800,-0.1800,0.6400,0.2110,0.0067,-0.0177,0.0015,1211,1492,1497,1502,1000,1000,1505,1000,1000,1379,1005,1197,1131,-1.4301,-0.5142,1.4840,0.0205,0.0049,1.0319,0.2368,0.2205,0.1881,0.1985,0.2204,0.0082,0.0438,0.2204,0.0082,0.0438,0.3000,0.0600,0.0002,0,-1.9233,-3.5000,-0.0030,-1.9233,-3.5000,-0.0030
-2.3259,7.4337,-0.2334,0.0686,-0.0686,-0.4800,-0.1800,0.6400,0.2110,0.0054,-0.0176,0.0043,1211,1492,1497,1502,1000,1000,1505,1000,1000,1379,1005,1197,1131,1.4320,-0.4760,0.4981,-0.0499,-0.0042,0.9642,0.2382,0.2189,0.1924,0.1945,0.2204,0.0082,0.0438,0.2204,0.0082,0.0438,0.3000,0.0600,0.0002,0,-1.9233,-3.5000,-0.0030,-1.9233,-3.5000,-0.0030
-2.3078,7.4028,-0.2260,0.0686,-0.0686,-0.4800,-0.1800,0.6400,0.2110,0.0059,-0.0179,0.0030,1211,1492,1497,1502,1000,1000,1505,1000,1000,1379,1005,1198,1131,0.0171,0.4315,0.9172,-0.0036,-0.0233,1.0139,0.2379,0.2199,0.1902,0.1960,0.2204,0.0082,0.0438,0.2204,0.0082,0.0438,0.3000,0.0600,0.0002,0,-1.9233,-3.5000,-0.0030,-1.9233,-3.5000,-0.0030
-2.2916,7.3499,-0.2175,0.0000,-0.0000,-0.4800,-0.1800,0.6400,0.2110,0.0059,-0.0177,0.0057,1211,1492,1497,1502,1000,1000,1505,1000,1000,1379,1005,1198,1131,-0.0532,0.3503,0.1605,0.0113,-0.0218,1.0525,0.2404,0.2171,0.1930,0.1935,0.2204,0.0082,0.0438,0.2204,0.0082,0.0438,0.3000,0.0600,0.0002,0,-1.9233,-3.5000,-0.0030,-1.9233,-3.5000,-0.0030
-2.2888,7.3264,-0.2215,0.0000,-0.0686,-0.4800,-0.1800,0.6400,0.2110,0.0061,-0.0181,0.0060,1211,1493,1497,1504,1000,1000,1505,1000,1000,1379,1005,1198,1131,-0.3105,1.2582,-0.1505,-0.0380,0.0089,0.9658,0.2412,0.2170,0.1929,0.1929,0.2204,0.0082,0.0438,0.2204,0.0082,0.0438,0.3000,0.0600,0.0002,0,-1.9233,-3.5000,-0.0030,-1.9233,-3.5000,-0.0030
-2.2745,7.2699,-0.2187,0.0000,-0.0686,-0.4800,-0.1800,0.6400,0.2110,0.0062,-0.0175,0.0049,1211,1492,1497,1502,1000,1000,1505,1000,1000,1379,1005,1198,1131,-0.7156,0.1517,0.0568,0.0401,0.0066,1.0495,0.2396,0.2173,0.1923,0.1948,0.2204,0.0082,0.0438,0.2204,0.0082,0.0438,0.3000,0.0600,0.0002,0,-1.9233,-3.5000,-0.0030,-1.9233,-3.5000,-0.0030
-2.2727,7.2343,-0.2247,0.0000,-0.0686,-0.4800,-0.1800,0.6400,0.2110,0.0056,-0.0177,0.0094,1211,1492,1497,1502,1000,1000,1505,1000,1000,1379,1005,1198,1131,0.6700,0.7073,-1.1406,-0.0217,-0.0353,0.9926,0.2436,0.2137,0.1971,0.1895,0.2204,0.0082,0.0438,0.2204,0.0082,0.0438,0.3000,0.0600,0.0002,0,-1.9233,-3.5000,-0.0030,-1.9233,-3.5000,-0.0030
-2.2524,7.1777,-0.2251,0.0686,-0.1371,-0.4800,-0.1800,0.6400,0.2110,0.0060,-0.0169,0.0044,1211,1492,1497,1502,1000,1000,1505,1000,1000,1379,1005,1197,1131,-0.4510,-0.6687,0.4232,0.0101,-0.0021,1.0058,0.2384,0.2175,0.1924,0.1957,0.2204,0.0082,0.0438,0.2204,0.0082,0.0438,0.3000,0.0600,0.0002,0,-1.9233,-3.5000,-0.0030,-1.9233,-3.5000,-0.0030
-2.2429,7.1286,-0.2234,0.0686,-0.0686,-0.4800,-0.1800,0.6400,0.2110,0.0052,-0.0168,0.0085,1211,1492,1497,1502,1000,1000,1505,1000,1000,1379,1005,1197,1131,1.3006,-0.7612,-0.8168,0.0024,0.0049,1.0218,0.2415,0.2141,0.1974,0.1910,0.2204,0.0082,0.0438,0.2204,0.0082,0.0438,0.3000,0.0600,0.0002,0,-1.9233,-3.5000,-0.0030,-1.9233,-3.5000,-0.0030
-2.2197,7.0823,-0.2245,0.0686,-0.1371,-0.4800,-0.1800,0.6400,0.2110,0.0064,-0.0171,0.0043,1211,1492,1497,1502,1000,1000,1505,1000,1000,1379,1005,1197,1131,-1.3917,0.1133,0.3941,0.0041,-0.0078,0.9872,0.2388,0.2174,0.1919,0.1960,0.2204,0.0082,0.0438,0.2204,0.0082,0.0438,0.3000,0.0600,0.0002,0,-1.9233,-3.5000,-0.0030,-1.9233,-3.5000,-0.0030
-2.2131,7.0323,-0.2169,0.0000,-0.0000,-0.4800,-0.1800,0.6400,0.2110,0.0050,-0.0163,0.0050,1211,1492,1497,1504,1000,1000,1505,1000,1000,1379,1005,1198,1131,1.6915,-1.4014,0.3704,-0.0106,0.0176,1.0205,0.2373,0.2173,0.1947,0.1947,0.2204,0.0082,0.0438,0.2204,0.0082,0.0438,0.3000,0.0600,0.0002,0,-1.9233,-3.5000,-0.0030,-1.9233,-3.5000,-0.0030
-2.1942,6.9943,-0.2169,0.0000,-0.0686,-0.4800,-0.1800,0.6400,0.2110,0.0063,-0.0175,0.0051,1211,1492,1497,1502,1000,1000,1505,1000,1000,1379,1005,1198,1131,-1.3033,1.5540,-0.1408,-0.0456,-0.0007,0.9840,0.2400,0.2171,0.1923,0.1946,0.2204,0.0082,0.0438,0.2204,0.0082,0.0438,0.3000,0.0600,0.0002,0,-1.9233,-3.5000,-0.0030,-1.9233,-3.5000,-0.0030
-2.1934,6.9497,-0.2139,0.0000,-0.0686,-0.4800,-0.1800,0.6400,0.2110,0.0049,-0.0163,0.0053,1211,1492,1497,1502,1000,1000,1505,1000,1000,1379,1005,1198,1131,1.8799,-1.1789,0.2455,0.0048,-0.0488,0.9952,0.2374,0.2171,0.1952,0.1943,0.2204,0.0082,0.0438,0.2204,0.0082,0.0438,0.3000,0.0600,0.0002,0,-1.9233,-3.5000,-0.0030,-1.9233,-3.5000,-0.0030
-2.1738,6.9119,-0.2122,0.0000,-0.0000,-0.4800,-0.1800,0.6400,0.2110,0.0066,-0.0174,0.0074,1211,1492,1497,1502,1000,1000,1505,1000,1000,1379,1005,1198,1131,-2.0422,1.7298,-0.5370,-0.0109,-0.0104,1.0267,0.2424,0.2145,0.1944,0.1927,0.2204,0.0082,0.0438,0.2204,0.0082,0.0438,0.3000,0.0600,0.0002,0,-1.9233,-3.5000,-0.0030,-1.9233,-3.5000,-0.0030
-2.1714,6.8663,-0.2167,0.0686,-0.0686,-0.4800,-0.1800,0.6400,0.2110,0.0052,-0.0162,0.0063,1211,1492,1497,1502,1000,1000,1505,1000,1000,1379,1005,1198,1131,1.0586,-0.8215,-0.2495,-0.0059,-0.0455,0.9584,0.2387,0.2158,0.1958,0.1937,0.2204,0.0082,0.0438,0.2204,0.0082,0.0438,0.3000,0.0600,0.0002,0,-1.9233,-3.5000,-0.0030,-1.9233,-3.5000,-0.0030
-2.1579,6.8218,-0.2118,0.0000,-0.0686,-0.4800,-0.1800,0.6400,0.2110,0.0064,-0.0166,0.0053,1211,1492,1497,1502,1000,1000,1505,1000,1000,1379,1005,1198,1131,-1.8385,0.2303,0.1895,0.0151,0.0399,1.0305,0.2393,0.2159,0.1932,0.1956,0.2204,0.0082,0.0438,0.2204,0.0082,0.0438,0.3000,0.0600,0.0002,0,-1.9233,-3.5000,-0.0030,-1.9233,-3.5000,-0.0030
-2.1503,6.7710,-0.2136,0.0686,-0.0000,-0.4800,-0.1800,0.6400,0.2110,0.0053,-0.0159,0.0072,1211,1492,1497,1504,1000,1000,1505,1000,1000,1379,1005,1198,1131,0.8264,-1.1387,-0.4554,-0.0028,-0.0189,0.9795,0.2393,0.2145,0.1970,0.1932,0.2204,0.0082,0.0438,0.2204,0.0082,0.0438,0.3000,0.0600,0.0002,0,-1.9233,-3.5000,-0.0030,-1.9233,-3.5000,-0.0030
-2.1375,6.7270,-0.2104,0.0000,-0.0686,-0.4800,-0.1800,0.6400,0.2110,0.0061,-0.0163,0.0035,1211,1492,1497,1502,1000,1000,1505,1000,1000,1379,1005,1198,1131,-1.0579,-0.0569,0.5068,-0.0037,-0.0209,0.9999,0.2368,0.2178,0.1921,0.1973,0.2204,0.0082,0.0438,0.2204,0.0082,0.0438,0.3000,0.0600,0.0002,0,-1.9233,-3.5000,-0.0030,-1.9233,-3.5000,-0.0030
-2.1173,6.6723,-0.2068,0.0000,-0.0686,-0.4800,-0.1800,0.6400,0.2110,0.0054,-0.0159,0.0065,1211,1492,1497,1502,1000,1000,1505,1000,1000,1379,1005,1198,1131,0.3566,-0.6227,-0.2536,-0.0225,0.0250,1.0423,0.2388,0.2150,0.1962,0.1940,0.2204,0.0082,0.0438,0.2204,0.0082,0.0438,0.3000,0.0600,0.0002,0,-1.9233,-3.5000,-0.0030,-1.9233,-3.5000,-0.0030
-2.1061,6.6342,-0.2086,-0.0686,-0.2057,-0.4800,-0.1800,0.6400,0.2110,0.0056,-0.0167,0.0055,1211,1492,1497,1502,1000,1000,1505,1000,1000,1379,1005,1197,1131,-0.1235,1.2526,0.0627,-0.0142,-0.0279,0.9729,0.2387,0.2166,0.1942,0.1944,0.2204,0.0082,0.0438,0.2204,0.0082,0.0438,0.3000,0.0600,0.0002,0,-1.9233,-3.5000,-0.0030,-1.9233,-3.5000,-0.0030
-2.0874,6.5805,-0.2042,0.0000,-0.1371,-0.4800,-0.1800,0.6400,0.2110,0.0055,-0.0156,0.0050,1211,1492,1497,1502,1000,1000,1505,1000,1000,1379,1005,1197,1131,-0.0046,-0.8338,0.2929,0.0104,0.0286,1.0462,0.2371,0.2162,0.1948,0.1959,0.2204,0.0082,0.0438,0.2204,0.0082,0.0438,0.3000,0.0600,0.0002,0,-1.9233,-3.5000,-0.0030,-1.9233,-3.5000,-0.0030
-2.0827,6.5451,-0.2067,0.0686,-0.0686,-0.4800,-0.1800,0.6400,0.2110,0.0054,-0.0164,0.0072,1211,1492,1497,1502,1000,1000,1505,1000,1000,1379,1005,1197,1131,0.2137,1.0731,-0.4279,0.0011,-0.0330,0.9704,0.2399,0.2149,0.1964,0.1928,0.2204,0.0082,0.0438,0.2204,0.0082,0.0438,0.3000,0.0600,0.0002,0,-1.9233,-3.5000,-0.0030,-1.9233,-3.5000,-0.0030
-2.0639,6.4956,-0.2047,0.0686,-0.1371,-0.4800,-0.1800,0.6400,0.2110,0.0056,-0.0154,0.0035,1211,1493,1497,1504,1000,1000,1505,1000,1000,1379,1005,1198,1131,-0.4175,-0.9677,0.7692,0.0069,0.0155,1.0418,0.2355,0.2173,0.1935,0.1977,0.2204,0.0082,0.0438,0.2204,0.0082,0.0438,0.3000,0.0600,0.0002,0,-1.9233,-3.5000,-0.0030,-1.9233,-3.5000,-0.0030
-2.0630,6.4503,-0.2003,0.0000,-0.0000,-0.4800,-0.1800,0.6400,0.2110,0.0053,-0.0158,0.0057,1211,1492,1497,1502,1000,1000,1505,1000,1000,1379,1005,1198,1131,0.2657,0.1277,-0.2352,0.0017,-0.0127,0.9983,0.2378,0.2157,0.1956,0.1948,0.2204,0.0082,0.0438,0.2204,0.0082,0.0438,0.3000,0.0600,0.0002,0,-1.9233,-3.5000,-0.0030,-1.9233,-3.5000,-0.0030
-2.0407,6.4016,-0.2009,0.0000,-0.0000,-0.4800,-0.1800,0.6400,0.2110,0.0059,-0.0156,0.0040,1211,1492,1497,1502,1000,1000,1505,1000,1000,1379,1005,1198,1131,-1.1122,-0.1475,0.5538,0.0172,0.0163,1.0202,0.2365,0.2167,0.1936,0.1973,0.2204,0.0082,0.0438,0.2204,0.0082,0.0438,0.3000,0.0600,0.0002,0,-1.9233,-3.5000,-0.0030,-1.9233,-3.5000,-0.0030
-2.0440,6.3529,-0.1903,0.0000,-0.0686,-0.4800,-0.1800,0.6400,0.2110,0.0052,-0.0150,0.0045,1211,1492,1497,1502,1000,1000,1505,1000,1000,1379,1005,1198,1131,0.5148,-1.1398,0.5088,-0.0115,-0.0078,0.9950,0.2357,0.2163,0.1953,0.1966,0.2204,0.0082,0.0438,0.2204,0.0082,0.0438,0.3000,0.0600,0.0002,0,-1.9233,-3.5000,-0.0030,-1.9233,-3.5000,-0.0030
-2.0134,6.3074,-0.1905,0.0686,-0.1371,-0.4800,-0.1800,0.6400,0.2110,0.0057,-0.0155,0.0069,1211,1492,1497,1502,1000,1000,1505,1000,1000,1379,1005,1198,1131,-0.7324,0.2128,-0.3229,0.0218,0.0249,1.0041,0.2390,0.2140,0.1967,0.1943,0.2204,0.0082,0.0438,0.2204,0.0082,0.0438,0.3000,0.0600,0.0002,0,-1.9233,-3.5000,-0.0030,-1.9233,-3.5000,-0.0030
-2.0185,6.2640,-0.1863,0.0686,-0.1371,-0.4800,-0.1800,0.6400,0.2110,0.0049,-0.0148,0.0045,1211,1492,1497,1502,1000,1000,1505,1000,1000,1379,1005,1198,1131,1.0379,-1.2160,0.5381,-0.0134,-0.0652,0.9972,0.2352,0.2164,0.1958,0.1966,0.2204,0.0082,0.0438,0.2204,0.0082,0.0438,0.3000,0.0600,0.0002,0,-1.9233,-3.5000,-0.0030,-1.9233,-3.5000,-0.0030
-1.9882,6.2170,-0.1855,0.0000,-0.1371,-0.4800,-0.1800,0.6400,0.2110,0.0056,-0.0157,0.0087,1211,1492,1497,1504,1000,1000,1505,1000,1000,1379,1005,1198,1131,-0.8069,1.1105,-0.8984,-0.0106,0.0518,0.9976,0.2411,0.2124,0.1983,0.1922,0.2204,0.0082,0.0438,0.2204,0.0082,0.0438,0.3000,0.0600,0.0002,0,-1.9233,-3.5000,-0.0030,-1.9233,-3.5000,-0.0030
-1.9861,6.1788,-0.1893,0.0000,-0.0000,-0.4800,-0.1800,0.6400,0.2110,0.0049,-0.0150,0.0046,1211,1492,1497,1502,1000,1000,1505,1000,1000,1379,1005,1198,1131,0.9685,-0.4880,0.0417,-0.0078,-0.0500,1.0076,0.2354,0.2165,0.1958,0.1963,0.2204,0.0082,0.0438,0.2204,0.0082,0.0438,0.3000,0.0600,0.0002,0,-1.9233,-3.5000,-0.0030,-1.9233,-3.5000,-0.0030
-1.9678,6.1285,-0.1857,0.0000,-0.0686,-0.4800,-0.1800,0.6400,0.2110,0.0056,-0.0154,0.0061,1211,1492,1497,1502,1000,1000,1505,1000,1000,1379,1005,1198,1131,-0.7404,0.7063,0.0141,0.0134,0.0227,1.0059,0.2380,0.2147,0.1961,0.1951,0.2204,0.0082,0.0438,0.2204,0.0082,0.0438,0.3000,0.0600,0.0002,0,-1.9233,-3.5000,-0.0030,-1.9233,-3.5000,-0.0030
-1.9636,6.0901,-0.1889,-0.0686,-0.0686,-0.4800,-0.1800,0.6400,0.2110,0.0049,-0.0147,0.0069,1211,1492,1497,1502,1000,1000,1505,1000,1000,1379,1005,1198,1131,0.8248,-0.6312,-0.4004,0.0072,-0.0289,1.0065,0.2375,0.2139,0.1983,0.1943,0.2204,0.0082,0.0438,0.2204,0.0082,0.0438,0.3000,0.0600,0.0002,0,-1.9233,-3.5000,-0.0030,-1.9233,-3.5000,-0.0030
-1.9510,6.0388,-0.1856,0.0000,-0.0686,-0.4800,-0.1800,0.6400,0.2110,0.0053,-0.0149,0.0036,1211,1492,1497,1502,1000,1000,1505,1000,1000,1379,1005,1198,1131,-0.3183,-0.0205,0.7586,0.0168,-0.0244,0.9739,0.2348,0.2169,0.1944,0.1979,0.2204,0.0082,0.0438,0.2204,0.0082,0.0438,0.3000,0.0600,0.0002,0,-1.9233,-3.5000,-0.0030,-1.9233,-3.5000,-0.0030
-1.9367,5.9929,-0.1797,0.0686,-0.1371,-0.4800,-0.1800,0.6400,0.2110,0.0050,-0.0145,0.0064,1211,1492,1497,1502,1000,1000,1505,1000,1000,1379,1005,1197,1131,0.3635,-0.7329,-0.1266,-0.0294,0.0168,1.0618,0.2369,0.2140,0.1980,0.1951,0.2204,0.0082,0.0438,0.2204,0.0082,0.0438,0.3000,0.0600,0.0002,0,-1.9233,-3.5000,-0.0030,-1.9233,-3.5000,-0.0030
-1.9223,5.9443,-0.1781,0.0000,-0.0686,-0.4800,-0.1800,0.6400,0.2110,0.0055,-0.0151,0.0044,1211,1492,1497,1504,1000,1000,1505,1000,1000,1379,1005,1197,1131,-0.6903,0.9110,0.4460,-0.0023,-0.0164,0.9452,0.2359,0.2162,0.1949,0.1970,0.2204,0.0082,0.0438,0.2204,0.0082,0.0438,0.3000,0.0600,0.0002,0,-1.9233,-3.5000,-0.0030,-1.9233,-3.5000,-0.0030
-1.9067,5.8985,-0.1694,0.0686,-0.1371,-0.4800,-0.1800,0.6400,0.2110,0.0048,-0.0141,0.0036,1211,1492,1497,1502,1000,1000,1505,1000,1000,1379,1005,1197,1131,0.6220,-1.0217,0.5244,-0.0225,0.0233,1.0483,0.2336,0.2167,0.1957,0.1981,0.2204,0.0082,0.0438,0.2204,0.0082,0.0438,0.3000,0.0600,0.0002,0,-1.9233,-3.5000,-0.0030,-1.9233,-3.5000,-0.0030
-1.8948,5.8545,-0.1694,0.0000,-0.0686,-0.4800,-0.1800,0.6400,0.2110,0.0054,-0.0150,0.0075,1211,1492,1497,1502,1000,1000,1505,1000,1000,1379,1005,1198,1131,-0.6483,1.2303,-0.5204,-0.0208,-0.0454,0.9226,0.2389,0.2131,0.1981,0.1938,0.2204,0.0082,0.0438,0.2204,0.0082,0.0438,0.3000,0.0600,0.0002,0,-1.9233,-3.5000,-0.0030,-1.9233,-3.5000,-0.0030
-1.8803,5.8125,-0.1694,0.0686,-0.0686,-0.4800,-0.1800,0.6400,0.2110,0.0045,-0.0139,0.0056,1211,1492,1497,1502,1000,1000,1505,1000,1000,1379,1005,1198,1131,1.2001,-1.0874,0.1410,0.0104,-0.0062,1.0413,0.2351,0.2148,0.1981,0.1960,0.2204,0.0082,0.0438,0.2204,0.0082,0.0438,0.3000,0.0600,0.0002,0,-1.9233,-3.5000,-0.0030,-1.9233,-3.5000,-0.0030
-1.8682,5.7658,-0.1688,0.0000,-0.1371,-0.4800,-0.1800,0.6400,0.2110,0.0055,-0.0148,0.0081,1211,1492,1497,1502,1000,1000,1505,1000,1000,1379,1005,1197,1131,-1.1628,1.2245,-0.7049,-0.0179,-0.0313,0.9810,0.2395,0.2122,0.1988,0.1936,0.2204,0.0082,0.0438,0.2204,0.0082,0.0438,0.3000,0.0600,0.0002,0,-1.9233,-3.5000,-0.0030,-1.9233,-3.5000,-0.0030
-1.8574,5.7231,-0.1760,0.0000,-0.0686,-0.4800,-0.1800,0.6400,0.2110,0.0046,-0.0141,0.0067,1211,1492,1497,1502,1000,1000,1505,1000,1000,1379,1005,1197,1131,0.8539,-0.2928,-0.3510,-0.0061,0.0002,1.0018,0.2364,0.2138,0.1990,0.1949,0.2204,0.0082,0.0438,0.2204,0.0082,0.0438,0.3000,0.0600,0.0002,0,-1.9233,-3.5000,-0.0030,-1.9233,-3.5000,-0.0030
-1.8484,5.6735,-0.1709,-0.0686,-0.2057,-0.4800,-0.1800,0.6400,0.2110,0.0056,-0.0141,0.0049,1211,1492,1497,1504,1000,1000,1505,1000,1000,1379,1005,1198,1131,-1.4465,-0.0777,0.4140,0.0008,-0.0044,1.0109,0.2356,0.2146,0.1962,0.1977,0.2204,0.0082,0.0438,0.2204,0.0082,0.0438,0.3000,0.0600,0.0002,0,-1.9233,-3.5000,-0.0030,-1.9233,-3.5000,-0.0030
-1.8361,5.6241,-0.1764,0.0000,-0.1371,-0.4800,-0.1800,0.6400,0.2110,0.0045,-0.0139,0.0077,1211,1492,1497,1502,1000,1000,1505,1000,1000,1379,1005,1197,1131,1.0001,-0.2427,-0.9306,-0.0129,-0.0135,0.9975,0.2372,0.2126,0.2003,0.1939,0.2204,0.0082,0.0438,0.2204,0.0082,0.0438,0.3000,0.0600,0.0002,0,-1.9233,-3.5000,-0.0030,-1.9233,-3.5000,-0.0030
-1.8273,5.5818,-0.1738,0.0000,-0.0686,-0.4800,-0.1800,0.6400,0.2110,0.0053,-0.0139,0.0037,1211,1492,1497,1502,1000,1000,1505,1000,1000,1379,1005,1197,1131,-0.8461,0.0583,0.7216,-0.0016,-0.0373,0.9977,0.2340,0.2159,0.1955,0.1987,0.2204,0.0082,0.0438,0.2204,0.0082,0.0438,0.3000,0.0600,0.0002,0,-1.9233,-3.5000,-0.0030,-1.9233,-3.5000,-0.0030
-1.8093,5.5303,-0.1729,0.0686,-0.0686,-0.4800,-0.1800,0.6400,0.2110,0.0045,-0.0136,0.0090,1211,1492,1497,1502,1000,1000,1505,1000,1000,1379,1005,1198,1131,0.8281,-0.3731,-0.9691,0.0062,-0.0083,1.0323,0.2382,0.2111,0.2018,0.1929,0.2204,0.0082,0.0438,0.2204,0.0082,0.0438,0.3000,0.0600,0.0002,0,-1.9233,-3.5000,-0.0030,-1.9233,-3.5000,-0.0030
-1.7970,5.4954,-0.1765,0.0000,-0.0686,-0.4800,-0.1800,0.6400,0.2110,0.0054,-0.0141,0.0043,1211,1492,1497,1502,1000,1000,1505,1000,1000,1379,1005,1198,1131,-1.1841,0.8993,0.4434,-0.0138,-0.0109,0.9870,0.2348,0.2155,0.1957,0.1980,0.2204,0.0082,0.0438,0.2204,0.0082,0.0438,0.3000,0.0600,0.0002,0,-1.9233,-3.5000,-0.0030,-1.9233,-3.5000,-0.0030
-1.7852,5.4428,-0.1718,0.0000,-0.0686,-0.4800,-0.1800,0.6400,0.2110,0.0045,-0.0132,0.0068,1211,1492,1497,1502,1000,1000,1505,1000,1000,1379,1005,1198,1131,0.7372,-0.9248,-0.2463,0.0028,0.0127,1.0129,0.2355,0.2129,0.2000,0.1955,0.2204,0.0082,0.0438,0.2204,0.0082,0.0438,0.3000,0.0600,0.0002,0,-1.9233,-3.5000,-0.0030,-1.9233,-3.5000,-0.0030
-1.7671,5.4102,-0.1761,0.0686,-0.1371,-0.4800,-0.1800,0.6400,0.2110,0.0052,-0.0143,0.0067,1211,1492,1497,1504,1000,1000,1505,1000,1000,1379,1005,1197,1131,-0.7774,1.6266,-0.2789,-0.0110,-0.0037,0.9990,0.2371,0.2135,0.1982,0.1952,0.2204,0.0082,0.0438,0.2204,0.0082,0.0438,0.3000,0.0600,0.0002,0,-1.9233,-3.5000,-0.0030,-1.9233,-3.5000,-0.0030
-1.7653,5.3591,-0.1723,0.0000,-0.0686,-0.4800,-0.1800,0.6400,0.2110,0.0045,-0.0129,0.0032,1211,1492,1497,1502,1000,1000,1505,1000,1000,1379,1005,1197,1131,0.7658,-1.2635,0.5945,-0.0296,-0.0385,1.0026,0.2315,0.2162,0.1968,0.1994,0.2204,0.0082,0.0438,0.2204,0.0082,0.0438,0.3000,0.0600,0.0002,0,-1.9233,-3.5000,-0.0030,-1.9233,-3.5000,-0.0030
-1.7446,5.3208,-0.1684,0.0686,-0.0000,-0.4800,-0.1800,0.6400,0.2110,0.0051,-0.0138,0.0060,1211,1492,1497,1502,1000,1000,1505,1000,1000,1379,1005,1197,1131,-0.6538,1.0621,-0.0926,0.0081,0.0275,1.0161,0.2359,0.2137,0.1981,0.1962,0.2204,0.0082,0.0438,0.2204,0.0082,0.0438,0.3000,0.0600,0.0002,0,-1.9233,-3.5000,-0.0030,-1.9233,-3.5000,-0.0030
-1.7387,5.2723,-0.1648,0.0686,-0.0686,-0.4800,-0.1800,0.6400,0.2110,0.0046,-0.0129,0.0032,1211,1492,1497,1502,1000,1000,1505,1000,1000,1379,1005,1197,1131,0.4510,-0.9274,0.8905,-0.0049,-0.0460,0.9919,0.2316,0.2161,0.1968,0.1995,0.2204,0.0082,0.0438,0.2204,0.0082,0.0438,0.3000,0.0600,0.0002,0,-1.9233,-3.5000,-0.0030,-1.9233,-3.5000,-0.0030
-1.7250,5.2243,-0.1559,0.0000,-0.0686,-0.4800,-0.1800,0.6400,0.2110,0.0049,-0.0133,0.0059,1211,1492,1497,1502,1000,1000,1505,1000,1000,1379,1005,1198,1131,-0.3089,0.2479,0.1672,-0.0224,0.0341,0.9985,0.2351,0.2135,0.1988,0.1967,0.2204,0.0082,0.0438,0.2204,0.0082,0.0438,0.3000,0.0600,0.0002,0,-1.9233,-3.5000,-0.0030,-1.9233,-3.5000,-0.0030
-1.7071,5.1780,-0.1560,0.0686,-0.0686,-0.4800,-0.1800,0.6400,0.2110,0.0047,-0.0128,0.0049,1211,1492,1497,1502,1000,1000,1505,1000,1000,1379,1005,1198,1131,-0.0320,-0.5628,0.2565,0.0245,-0.0003,1.0198,0.2335,0.2142,0.1984,0.1980,0.2204,0.0082,0.0438,0.2204,0.0082,0.0438,0.3000,0.0600,0.0002,0,-1.9233,-3.5000,-0.0030,-1.9233,-3.5000,-0.0030
-1.7041,5.1331,-0.1481,0.0000,-0.1371,-0.4800,-0.1800,0.6400,0.2110,0.0047,-0.0130,0.0031,1211,1493,1497,1504,1000,1000,1505,1000,1000,1379,1005,1198,1131,0.0622,0.0394,0.9973,-0.0052,-0.0036,0.9784,0.2318,0.2162,0.1965,0.1995,0.2204,0.0082,0.0438,0.2204,0.0082,0.0438,0.3000,0.0600,0.0002,0,-1.9233,-3.5000,-0.0030,-1.9233,-3.5000,-0.0030
-1.6809,5.0888,-0.1458,0.0686,-0.1371,-0.4800,-0.1800,0.6400,0.2110,0.0049,-0.0127,0.0061,1211,1492,1497,1502,1000,1000,1505,1000,1000,1379,1005,1198,1131,-0.6028,-0.4038,-0.3858,0.0049,0.0034,1.0582,0.2347,0.2127,0.1995,0.1971,0.2204,0.0082,0.0438,0.2204,0.0082,0.0438,0.3000,0.0600,0.0002,0,-1.9233,-3.5000,-0.0030,-1.9233,-3.5000,-0.0030
-1.6804,5.0516,-0.1449,0.0000,-0.1371,-0.4800,-0.1800,0.6400,0.2110,0.0045,-0.0130,0.0040,1211,1492,1497,1502,1000,1000,1505,1000,1000,1379,1005,1198,1131,0.3535,0.5260,0.6245,0.0005,-0.0102,0.9291,0.2325,0.2156,0.1975,0.1985,0.2204,0.0082,0.0438,0.2204,0.0082,0.0438,0.3000,0.0600,0.0002,0,-1.9233,-3.5000,-0.0030,-1.9233,-3.5000,-0.0030
-1.6576,5.0009,-0.1421,0.0686,-0.0686,-0.4800,-0.1800,0.6400,0.2110,0.0048,-0.0124,0.0072,1211,1492,1497,1502,1000,1000,1505,1000,1000,1379,1005,1197,1131,-0.4444,-0.7160,-0.3264,0.0045,0.0481,1.0790,0.2353,0.2115,0.2010,0.1962,0.2204,0.0082,0.0438,0.2204,0.0082,0.0438,0.3000,0.0600,0.0002,0,-1.9233,-3.5000,-0.0030,-1.9233,-3.5000,-0.0030
-1.6555,4.9635,-0.1468,0.0000,-0.0686,-0.4800,-0.1800,0.6400,0.2110,0.0046,-0.0130,0.0074,1211,1492,1497,1502,1000,1000,1505,1000,1000,1379,1005,1197,1131,0.0399,0.7931,-0.4813,-0.0046,-0.0561,0.9515,0.2359,0.2120,0.2008,0.1952,0.2204,0.0082,0.0438,0.2204,0.0082,0.0438,0.3000,0.0600,0.0002,0,-1.9233,-3.5000,-0.0030,-1.9233,-3.5000,-0.0030
-1.6365,4.9122,-0.1473,0.0686,-0.0000,-0.4800,-0.1800,0.6400,0.2110,0.0045,-0.0122,0.0065,1211,1492,1497,1502,1000,1000,1505,1000,1000,1379,1005,1197,1131,-0.0046,-0.7882,-0.1925,0.0263,0.0547,1.0167,0.2342,0.2121,0.2008,0.1969,0.2204,0.0082,0.0438,0.2204,0.0082,0.0438,0.3000,0.0600,0.0002,0,-1.9233,-3.5000,-0.0030,-1.9233,-3.5000,-0.0030
-1.6278,4.8724,-0.1495,0.0000,-0.0686,-0.4800,-0.1800,0.6400,0.2110,0.0047,-0.0127,0.0082,1211,1492,1497,1504,1000,1000,1505,1000,1000,1379,1005,1198,1131,-0.4047,0.5634,-0.6934,-0.0085,-0.0474,0.9825,0.2366,0.2108,0.2018,0.1948,0.2204,0.0082,0.0438,0.2204,0.0082,0.0438,0.3000,0.0600,0.0002,0,-1.9233,-3.5000,-0.0030,-1.9233,-3.5000,-0.0030
-1.6219,4.8274,-0.1555,0.0000,-0.2057,-0.4800,-0.1800,0.6400,0.2110,0.0044,-0.0122,0.0053,1211,1492,1497,1502,1000,1000,1505,1000,1000,1379,1005,1198,1131,0.2257,-0.4115,-0.0860,0.0167,0.0427,0.9753,0.2328,0.2135,0.1997,0.1980,0.2204,0.0082,0.0438,0.2204,0.0082,0.0438,0.3000,0.0600,0.0002,0,-1.9233,-3.5000,-0.0030,-1.9233,-3.5000,-0.0030
-1.6098,4.7873,-0.1533,0.0000,-0.0686,-0.4800,-0.1800,0.6400,0.2110,0.0049,-0.0123,0.0070,1211,1492,1497,1502,1000,1000,1505,1000,1000,1379,1005,1197,1131,-0.9021,0.0960,-0.2511,-0.0049,-0.0131,1.0374,0.2352,0.2114,0.2008,0.1966,0.2204,0.0082,0.0438,0.2204,0.0082,0.0438,0.3000,0.0600,0.0002,0,-1.9233,-3.5000,-0.0030,-1.9233,-3.5000,-0.0030
-1.5999,4.7381,-0.1607,0.0686,-0.0686,-0.4800,-0.1800,0.6400,0.2110,0.0043,-0.0122,0.0073,1211,1492,1497,1502,1000,1000,1505,1000,1000,1379,1005,1197,1131,0.4164,0.0097,-0.4988,0.0005,0.0083,0.9948,0.2347,0.2116,0.2018,0.1959,0.2204,0.0082,0.0438,0.2204,0.0082,0.0438,0.3000,0.0600,0.0002,0,-1.9233,-3.5000,-0.0030,-1.9233,-3.5000,-0.0030
-1.5845,4.6999,-0.1565,0.0000,-0.0686,-0.4800,-0.1800,0.6400,0.2110,0.0047,-0.0120,0.0048,1211,1492,1497,1502,1000,1000,1505,1000,1000,1379,1005,1197,1131,-0.5026,-0.0618,0.4740,0.0192,0.0042,1.0375,0.2325,0.2136,0.1991,0.1988,0.2204,0.0082,0.0438,0.2204,0.0082,0.0438,0.3000,0.0600,0.0002,0,-1.9233,-3.5000,-0.0030,-1.9233,-3.5000,-0.0030
-1.5657,4.6512,-0.1587,0.0686,-0.0686,-0.4800,-0.1800,0.6400,0.2190,0.0043,-0.0119,0.0079,1219,1492,1497,1502,1000,1000,1505,1000,1000,1379,1005,1197,1131,0.3000,-0.0323,-0.6878,-0.0064,0.0182,0.9731,0.2432,0.2187,0.2107,0.2034,0.2204,0.0082,0.0438,0.2204,0.0082,0.0438,0.3000,0.0600,0.0002,0,-1.9233,-3.5000,-0.0030,-1.9233,-3.5000,-0.0030
-1.5527,4.6168,-0.1558,0.0686,-0.0686,-0.4800,-0.1800,0.6400,0.2210,0.0045,-0.0120,0.0033,1223,1493,1497,1504,1000,1000,1505,1000,1000,1379,1005,1198,1131,-0.3207,0.3234,0.9725,0.0186,-0.0343,0.9987,0.2408,0.2252,0.2077,0.2102,0.2204,0.0082,0.0438,0.2204,0.0082,0.0438,0.3000,0.0600,0.0002,0,-1.9233,-3.5000,-0.0030,-1.9233,-3.5000,-0.0030
-1.5387,4.5620,-0.1493,0.0686,-0.0686,-0.4800,-0.1800,0.6400,0.2210,0.0044,-0.0116,0.0062,1221,1492,1497,1502,1000,1000,1505,1000,1000,1379,1005,1198,1131,-0.1257,-0.4143,-0.3278,-0.0047,0.0100,1.0153,0.2432,0.2220,0.2112,0.2076,0.2204,0.0082,0.0438,0.2204,0.0082,0.0438,0.3000,0.0600,0.0002,0,-1.9233,-3.5000,-0.0030,-1.9233,-3.5000,-0.0030
-1.5279,4.5243,-0.1517,0.0000,-0.0000,-0.4800,-0.1800,0.6400,0.2300,0.0043,-0.0121,0.0047,1230,1492,1497,1502,1000,1000,1505,1000,1000,1379,1005,1198,1131,0.0933,0.9977,0.3129,-0.0195,-0.0320,0.9806,0.2511,0.2332,0.2183,0.2175,0.2204,0.0082,0.0438,0.2204,0.0082,0.0438,0.3000,0.0600,0.0002,0,-1.9233,-3.5000,-0.0030,-1.9233,-3.5000,-0.0030
-1.5117,4.4661,-0.1435,0.0686,-0.0686,-0.4800,-0.1800,0.6400,0.2310,0.0042,-0.0110,0.0055,1231,1492,1497,1502,1000,1000,1505,1000,1000,1379,1005,1197,1131,0.2535,-1.3285,0.3257,-0.0164,0.0213,1.0145,0.2516,0.2323,0.2213,0.2187,0.2204,0.0082,0.0438,0.2204,0.0082,0.0438,0.3000,0.0600,0.0002,0,-1.9233,-3.5000,-0.0030,-1.9233,-3.5000,-0.0030
-1.4969,4.4262,-0.1465,0.0000,-0.0000,-0.4800,-0.1800,0.6400,0.2440,0.0041,-0.0119,0.0087,1244,1492,1497,1502,1000,1000,1505,1000,1000,1379,1005,1197,1131,0.2847,0.8730,-0.7962,-0.0170,-0.0170,0.9901,0.2687,0.2431,0.2367,0.2276,0.2204,0.0082,0.0438,0.2204,0.0082,0.0438,0.3000,0.0600,0.0002,0,-1.9233,-3.5000,-0.0030,-1.9233,-3.5000,-0.0030
-1.4816,4.3742,-0.1455,0.0686,-0.0686,-0.4800,-0.1800,0.6400,0.2460,0.0043,-0.0108,0.0041,1246,1492,1497,1502,1000,1000,1505,1000,1000,1379,1005,1197,1131,-0.2536,-1.4075,0.6311,0.0121,0.0306,0.9911,0.2652,0.2483,0.2350,0.2355,0.2204,0.0082,0.0438,0.2204,0.0082,0.0438,0.3000,0.0600,0.0002,0,-1.9233,-3.5000,-0.0030,-1.9233,-3.5000,-0.0030
-1.4707,4.3321,-0.1465,0.0000,-0.0686,-0.4800,-0.1800,0.6400,0.2510,0.0041,-0.0115,0.0094,1255,1493,1497,1504,1000,1000,1505,1000,1000,1379,1005,1197,1131,0.1410,0.4860,-1.0720,-0.0011,-0.0188,0.9984,0.2760,0.2490,0.2448,0.2342,0.2204,0.0082,0.0438,0.2204,0.0082,0.0438,0.3000,0.0600,0.0002,0,-1.9233,-3.5000,-0.0030,-1.9233,-3.5000,-0.0030
-1.4553,4.2878,-0.1554,0.0000,-0.0686,-0.4800,-0.1800,0.6400,0.2560,0.0042,-0.0110,0.0062,1256,1492,1497,1502,1000,1000,1505,1000,1000,1379,1005,1197,1131,-0.1164,-0.4262,-0.3278,0.0121,0.0281,0.9700,0.2774,0.2566,0.2469,0.2430,0.2204,0.0082,0.0438,0.2204,0.0082,0.0438,0.3000,0.0600,0.0002,0,-1.9233,-3.5000,-0.0030,-1.9233,-3.5000,-0.0030
-1.4460,4.2435,-0.1573,0.0000,-0.0686,-0.4800,-0.1800,0.6400,0.2560,0.0038,-0.0110,0.0086,1256,1492,1497,1502,1000,1000,1505,1000,1000,1379,1005,1197,1131,0.8788,-0.1361,-0.7781,-0.0080,-0.0049,1.0126,0.2794,0.2547,0.2498,0.2401,0.2204,0.0082,0.0438,0.2204,0.0082,0.0438,0.3000,0.0600,0.0002,0,-1.9233,-3.5000,-0.0030,-1.9233,-3.5000,-0.0030
-1.4262,4.1976,-0.1659,0.0000,-0.1371,-0.4800,-0.1800,0.6400,0.2560,0.0044,-0.0110,0.0072,1256,1492,1497,1502,1000,1000,1505,1000,1000,1379,1005,1197,1131,-0.6672,0.0868,-0.4674,0.0228,-0.0199,1.0139,0.2786,0.2555,0.2478,0.2422,0.2204,0.0082,0.0438,0.2204,0.0082,0.0438,0.3000,0.0600,0.0002,0,-1.9233,-3.5000,-0.0030,-1.9233,-3.5000,-0.0030
-1.4198,4.1493,-0.1634,0.0000,-0.0000,-0.4800,-0.1800,0.6400,0.2560,0.0034,-0.0104,0.0050,1256,1492,1497,1502,1000,1000,1505,1000,1000,1379,1005,1198,1131,1.4767,-1.1038,0.4584,-0.0255,0.0254,0.9630,0.2748,0.2580,0.2471,0.2440,0.2204,0.0082,0.0438,0.2204,0.0082,0.0438,0.3000,0.0600,0.0002,0,-1.9233,-3.5000,-0.0030,-1.9233,-3.5000,-0.0030
-1.3978,4.1083,-0.1610,0.0000,-0.0000,-0.4800,-0.1800,0.6400,0.2660,0.0048,-0.0113,0.0066,1266,1492,1497,1502,1000,1000,1505,1000,1000,1379,1005,1198,1131,-1.7579,1.0836,-0.1535,0.0072,-0.0247,1.0518,0.2886,0.2659,0.2565,0.2530,0.2204,0.0082,0.0438,0.2204,0.0082,0.0438,0.3000,0.0600,0.0002,0,-1.9233,-3.5000,-0.0030,-1.9233,-3.5000,-0.0030
-1.3912,4.0644,-0.1571,0.0000,-0.0686,-0.4800,-0.1800,0.6400,0.2700,0.0033,-0.0101,0.0033,1276,1493,1497,1504,1000,1000,1505,1000,1000,1379,1005,1197,1131,1.6306,-1.3641,0.8972,0.0191,0.0079,0.9461,0.2868,0.2735,0.2599,0.2598,0.2204,0.0082,0.0438,0.2204,0.0082,0.0438,0.3000,0.0600,0.0002,0,-1.9233,-3.5000,-0.0030,-1.9233,-3.5000,-0.0030
-1.3811,4.0276,-0.1470,0.0000,-0.0000,-0.4800,-0.1800,0.6400,0.2760,0.0053,-0.0113,0.0051,1276,1492,1497,1502,1000,1000,1505,1000,1000,1379,1005,1198,1131,-3.0259,1.5195,0.1172,-0.0221,-0.0094,1.0698,0.2978,0.2768,0.2645,0.2649,0.2204,0.0082,0.0438,0.2204,0.0082,0.0438,0.3000,0.0600,0.0002,0,-1.9233,-3.5000,-0.0030,-1.9233,-3.5000,-0.0030
-1.3676,3.9825,-0.1465,0.1371,-0.0000,-0.4800,-0.1800,0.6400,0.2810,0.0029,-0.0099,0.0053,1281,1492,1497,1502,1000,1000,1505,1000,1000,1379,1005,1198,1131,2.3639,-1.5249,0.2664,-0.0076,0.0087,0.9292,0.2991,0.2827,0.2735,0.2688,0.2204,0.0082,0.0438,0.2204,0.0082,0.0438,0.3000,0.0600,0.0002,0,-1.9233,-3.5000,-0.0030,-1.9233,-3.5000,-0.0030
-1.3558,3.9480,-0.1403,0.0686,-0.1371,-0.4800,-0.1800,0.6400,0.2810,0.0046,-0.0108,0.0064,1281,1492,1497,1502,1000,1000,1505,1000,1000,1379,1005,1198,1131,-1.4281,0.7287,-0.0012,-0.0218,0.0003,1.0471,0.3028,0.2808,0.2720,0.2684,0.2204,0.0082,0.0438,0.2204,0.0082,0.0438,0.3000,0.0600,0.0002,0,-1.9233,-3.5000,-0.0030,-1.9233,-3.5000,-0.0030
-1.3264,3.8938,-0.1422,-0.0686,-0.2057,-0.4800,-0.1800,0.6400,0.2810,0.0033,-0.0101,0.0070,1281,1492,1497,1502,1000,1000,1505,1000,1000,1379,1005,1198,1131,1.3636,-0.6674,-0.3387,0.0260,-0.0012,0.9724,0.3013,0.2808,0.2746,0.2672,0.2204,0.0082,0.0438,0.2204,0.0082,0.0438,0.3000,0.0600,0.0002,0,-1.9233,-3.5000,-0.0030,-1.9233,-3.5000,-0.0030
-1.3127,3.8551,-0.1411,0.0686,-0.0000,-0.4800,-0.1800,0.6400,0.2810,0.0036,-0.0102,0.0056,1281,1492,1497,1502,1000,1000,1505,1000,1000,1379,1005,1197,1131,0.4927,-0.1927,0.0989,0.0052,-0.0036,0.9979,0.3004,0.2820,0.2728,0.2688,0.2204,0.0082,0.0438,0.2204,0.0082,0.0438,0.3000,0.0600,0.0002,0,-1.9233,-3.5000,-0.0030,-1.9233,-3.5000,-0.0030
-1.2937,3.8064,-0.1407,0.0000,-0.0000,-0.4800,-0.1800,0.6400,0.2810,0.0042,-0.0103,0.0064,1283,1493,1497,1504,1000,1000,1505,1000,1000,1379,1005,1198,1131,-0.8300,0.2459,-0.1264,-0.0195,0.0081,1.0135,0.3019,0.2807,0.2730,0.2685,0.2204,0.0082,0.0438,0.2204,0.0082,0.0438,0.3000,0.0600,0.0002,0,-1.9233,-3.5000,-0.0030,-1.9233,-3.5000,-0.0030
-1.2773,3.7697,-0.1385,-0.0686,-0.0000,-0.4800,-0.1800,0.6400,0.2810,0.0033,-0.0104,0.0044,1281,1492,1497,1502,1000,1000,1505,1000,1000,1379,1005,1198,1131,1.1414,0.5891,0.2906,0.0133,-0.0132,0.9660,0.2990,0.2837,0.2717,0.2696,0.2204,0.0082,0.0438,0.2204,0.0082,0.0438,0.3000,0.0600,0.0002,0,-1.9233,-3.5000,-0.0030,-1.9233,-3.5000,-0.0030
-1.2705,3.7236,-0.1353,0.0686,-0.1371,-0.4800,-0.1800,0.6400,0.2810,0.0043,-0.0096,0.0059,1281,1492,1497,1502,1000,1000,1505,1000,1000,1379,1005,1198,1131,-1.1495,-0.9478,0.1022,0.0210,0.0385,1.0511,0.3007,0.2804,0.2730,0.2698,0.2204,0.0082,0.0438,0.2204,0.0082,0.0438,0.3000,0.0600,0.0002,0,-1.9233,-3.5000,-0.0030,-1.9233,-3.5000,-0.0030
-1.2586,3.6825,-0.1349,0.0686,-0.0686,-0.4800,-0.1800,0.6400,0.2810,0.0033,-0.0101,0.0058,1281,1492,1497,1502,1000,1000,1505,1000,1000,1379,1005,1198,1131,0.8898,0.5255,0.1001,-0.0050,-0.0413,1.0073,0.3003,0.2819,0.2734,0.2684,0.2204,0.0082,0.0438,0.2204,0.0082,0.0438,0.3000,0.0600,0.0002,0,-1.9233,-3.5000,-0.0030,-1.9233,-3.5000,-0.0030
-1.2476,3.6286,-0.1317,0.0000,-0.0000,-0.4800,-0.1800,0.6400,0.2810,0.0039,-0.0097,0.0048,1281,1492,1497,1502,1000,1000,1505,1000,1000,1379,1005,1197,1131,-0.3208,-0.2170,0.4014,0.0351,0.0040,0.9797,0.2993,0.2821,0.2722,0.2704,0.2204,0.0082,0.0438,0.2204,0.0082,0.0438,0.3000,0.0600,0.0002,0,-1.9233,-3.5000,-0.0030,-1.9233,-3.5000,-0.0030
-1.2376,3.5919,-0.1297,0.0000,-0.0686,-0.4800,-0.1800,0.6400,0.2810,0.0035,-0.0092,0.0064,1281,1492,1497,1502,1000,1000,1505,1000,1000,1379,1005,1197,1131,0.3309,-1.2173,0.0011,-0.0177,-0.0119,1.0382,0.3001,0.2803,0.2746,0.2690,0.2204,0.0082,0.0438,0.2204,0.0082,0.0438,0.3000,0.0600,0.0002,0,-1.9233,-3.5000,-0.0030,-1.9233,-3.5000,-0.0030
-1.2276,3.5410,-0.1275,0.0000,-0.0000,-0.4800,-0.1800,0.6400,0.2810,0.0039,-0.0106,0.0054,1283,1492,1497,1504,1000,1000,1505,1000,1000,1379,1005,1197,1131,-0.4578,2.2019,0.2592,0.0148,0.0284,0.9814,0.3008,0.2823,0.2719,0.2689,0.2204,0.0082,0.0438,0.2204,0.0082,0.0438,0.3000,0.0600,0.0002,0,-1.9233,-3.5000,-0.0030,-1.9233,-3.5000,-0.0030
-1.2180,3.4962,-0.1263,-0.0686,-0.0686,-0.4800,-0.1800,0.6400,0.2810,0.0039,-0.0084,0.0060,1281,1492,1497,1502,1000,1000,1505,1000,1000,1379,1005,1197,1131,-0.4983,-2.4928,-0.2178,-0.0156,0.0029,1.0051,0.2993,0.2796,0.2747,0.2705,0.2204,0.0082,0.0438,0.2204,0.0082,0.0438,0.3000,0.0600,0.0002,0,-1.9233,-3.5000,-0.0030,-1.9233,-3.5000,-0.0030
-1.2087,3.4604,-0.1288,0.0686,-0.0000,-0.4800,-0.1800,0.6400,0.2810,0.0032,-0.0101,0.0072,1281,1492,1497,1502,1000,1000,1505,1000,1000,1379,1005,1197,1131,0.8695,1.4286,-0.3220,0.0017,-0.0160,1.0341,0.3015,0.2806,0.2749,0.2670,0.2204,0.0082,0.0438,0.2204,0.0082,0.0438,0.3000,0.0600,0.0002,0,-1.9233,-3.5000,-0.0030,-1.9233,-3.5000,-0.0030
-1.2011,3.3991,-0.1310,0.0000,-0.0686,-0.4800,-0.1800,0.6400,0.2810,0.0038,-0.0094,0.0066,1281,1492,1497,1502,1000,1000,1505,1000,1000,1379,1005,1197,1131,-0.4443,0.1405,-0.1817,0.0257,0.0287,1.0039,0.3008,0.2799,0.2745,0.2688,0.2204,0.0082,0.0438,0.2204,0.0082,0.0438,0.3000,0.0600,0.0002,0,-1.9233,-3.5000,-0.0030,-1.9233,-3.5000,-0.0030
-1.1917,3.3678,-0.1334,-0.0686,-0.0686,-0.4800,-0.1800,0.6400,0.2810,0.0036,-0.0084,0.0071,1281,1492,1497,1502,1000,1000,1505,1000,1000,1379,1005,1197,1131,-0.0740,-1.9625,-0.2963,-0.0244,-0.0473,1.0121,0.3001,0.2786,0.2761,0.2691,0.2204,0.0082,0.0438,0.2204,0.0082,0.0438,0.3000,0.0600,0.0002,0,-1.9233,-3.5000,-0.0030,-1.9233,-3.5000,-0.0030
-1.1773,3.3236,-0.1353,0.0000,-0.0686,-0.4800,-0.1800,0.6400,0.2810,0.0033,-0.0104,0.0069,1281,1492,1497,1502,1000,1000,1505,1000,1000,1379,1005,1198,1131,0.6811,2.8594,-0.2456,0.0124,-0.0142,0.9870,0.3015,0.2813,0.2742,0.2670,0.2204,0.0082,0.0438,0.2204,0.0082,0.0438,0.3000,0.0600,0.0002,0,-1.9233,-3.5000,-0.0030,-1.9233,-3.5000,-0.0030
-1.1864,3.2775,-0.1398,0.0000,-0.0686,-0.4800,-0.1800,0.6400,0.2840,0.0040,-0.0081,0.0075,1285,1492,1497,1504,1000,1000,1505,1000,1000,1379,1005,1197,1131,-0.8880,-2.1876,-0.4782,0.0122,0.0239,1.0102,0.3036,0.2806,0.2794,0.2724,0.2204,0.0082,0.0438,0.2204,0.0082,0.0438,0.3000,0.0600,0.0002,0,-1.9233,-3.5000,-0.0030,-1.9233,-3.5000,-0.0030
-1.1765,3.2471,-0.1433,0.0686,-0.0686,-0.4800,-0.1800,0.6400,0.2850,0.0037,-0.0094,0.0063,1285,1492,1497,1502,1000,1000,1505,1000,1000,1379,1005,1197,1131,-0.2788,0.8907,-0.3664,-0.0120,-0.0292,1.0061,0.3044,0.2844,0.2783,0.2730,0.2204,0.0082,0.0438,0.2204,0.0082,0.0438,0.3000,0.0600,0.0002,0,-1.9233,-3.5000,-0.0030,-1.9233,-3.5000,-0.0030
-1.1711,3.1941,-0.1472,0.0686,-0.0686,-0.4800,-0.1800,0.6400,0.2850,0.0032,-0.0093,0.0070,1285,1492,1497,1502,1000,1000,1505,1000,1000,1379,1005,1198,1131,0.7008,0.9559,-0.2519,0.0005,0.0317,0.9750,0.3045,0.2841,0.2794,0.2720,0.2204,0.0082,0.0438,0.2204,0.0082,0.0438,0.3000,0.0600,0.0002,0,-1.9233,-3.5000,-0.0030,-1.9233,-3.5000,-0.0030
-1.1712,3.1563,-0.1508,0.0686,-0.1371,-0.4800,-0.1800,0.6400,0.2850,0.0039,-0.0078,0.0070,1285,1492,1497,1502,1000,1000,1505,1000,1000,1379,1005,1198,1131,-0.8615,-2.3326,-0.2756,0.0115,-0.0114,1.0178,0.3036,0.2819,0.2803,0.2742,0.2204,0.0082,0.0438,0.2204,0.0082,0.0438,0.3000,0.0600,0.0002,0,-1.9233,-3.5000,-0.0030,-1.9233,-3.5000,-0.0030
-1.1412,3.1182,-0.1474,0.0000,-0.0686,-0.4800,-0.1800,0.6400,0.2850,0.0034,-0.0096,0.0056,1285,1492,1497,1502,1000,1000,1505,1000,1000,1379,1005,1197,1131,0.2762,2.1447,0.2075,-0.0091,-0.0217,0.9794,0.3036,0.2857,0.2776,0.2731,0.2204,0.0082,0.0438,0.2204,0.0082,0.0438,0.3000,0.0600,0.0002,0,-1.9233,-3.5000,-0.0030,-1.9233,-3.5000,-0.0030
-1.1349,3.0618,-0.1437,-0.0686,-0.2057,-0.4800,-0.1800,0.6400,0.2850,0.0032,-0.0080,0.0046,1285,1492,1497,1502,1000,1000,1505,1000,1000,1379,1005,1197,1131,0.6211,-1.3253,0.4938,0.0225,0.0168,1.0015,0.3009,0.2852,0.2784,0.2755,0.2204,0.0082,0.0438,0.2204,0.0082,0.0438,0.3000,0.0600,0.0002,0,-1.9233,-3.5000,-0.0030,-1.9233,-3.5000,-0.0030
-1.1160,3.0338,-0.1386,0.0000,-0.0000,-0.4800,-0.1800,0.6400,0.2850,0.0038,-0.0081,0.0056,1286,1492,1497,1504,1000,1000,1505,1000,1000,1379,1005,1198,1131,-0.8604,-1.0558,0.2219,-0.0189,0.0158,1.0220,0.3024,0.2837,0.2787,0.2752,0.2204,0.0082,0.0438,0.2204,0.0082,0.0438,0.3000,0.0600,0.0002,0,-1.9233,-3.5000,-0.0030,-1.9233,-3.5000,-0.0030
-1.0970,2.9850,-0.1344,-0.0686,-0.2057,-0.4800,-0.1800,0.6400,0.2860,0.0031,-0.0093,0.0050,1286,1492,1497,1502,1000,1000,1505,1000,1000,1379,1005,1198,1131,0.6255,2.0080,0.1316,0.0205,-0.0507,0.9836,0.3034,0.2872,0.2785,0.2749,0.2204,0.0082,0.0438,0.2204,0.0082,0.0438,0.3000,0.0600,0.0002,0,-1.9233,-3.5000,-0.0030,-1.9233,-3.5000,-0.0030
-1.0950,2.9397,-0.1363,0.0686,-0.1371,-0.4800,-0.1800,0.6400,0.2860,0.0034,-0.0074,0.0068,1286,1492,1497,1502,1000,1000,1505,1000,1000,1379,1005,1198,1131,0.0271,-2.2199,-0.2391,0.0044,0.0272,0.9951,0.3035,0.2832,0.2821,0.2752,0.2204,0.0082,0.0438,0.2204,0.0082,0.0438,0.3000,0.0600,0.0002,0,-1.9233,-3.5000,-0.0030,-1.9233,-3.5000,-0.0030
-1.0901,2.9056,-0.1394,0.0686,-0.0686,-0.4800,-0.1800,0.6400,0.2860,0.0036,-0.0087,0.0071,1286,1492,1497,1502,1000,1000,1505,1000,1000,1379,1005,1198,1131,-0.4987,1.0281,-0.2682,-0.0308,-0.0527,1.0262,0.3054,0.2840,0.2808,0.2738,0.2204,0.0082,0.0438,0.2204,0.0082,0.0438,0.3000,0.0600,0.0002,0,-1.9233,-3.5000,-0.0030,-1.9233,-3.5000,-0.0030
-1.0769,2.8516,-0.1417,0.0686,-0.0686,-0.4800,-0.1800,0.6400,0.2860,0.0034,-0.0085,0.0077,1286,1492,1497,1502,1000,1000,1505,1000,1000,1379,1005,1198,1131,-0.2082,0.8447,-0.3922,0.0017,-0.0064,0.9895,0.3056,0.2834,0.2818,0.2732,0.2204,0.0082,0.0438,0.2204,0.0082,0.0438,0.3000,0.0600,0.0002,0,-1.9233,-3.5000,-0.0030,-1.9233,-3.5000,-0.0030
-1.0641,2.8153,-0.1452,0.0686,-0.0000,-0.4800,-0.1800,0.6400,0.2860,0.0032,-0.0071,0.0072,1286,1492,1497,1502,1000,1000,1505,1000,1000,1379,1005,1197,1131,0.2532,-2.1893,-0.3122,-0.0222,-0.0095,0.9727,0.3035,0.2827,0.2829,0.2749,0.2204,0.0082,0.0438,0.2204,0.0082,0.0438,0.3000,0.0600,0.0002,0,-1.9233,-3.5000,-0.0030,-1.9233,-3.5000,-0.0030
-1.0425,2.7737,-0.1452,0.0000,-0.0000,-0.4800,-0.1800,0.6400,0.2860,0.0033,-0.0087,0.0071,1286,1492,1497,1504,1000,1000,1505,1000,1000,1379,1005,1197,1131,-0.0342,1.7421,-0.2987,-0.0214,-0.0010,0.9901,0.3051,0.2844,0.2811,0.2735,0.2204,0.0082,0.0438,0.2204,0.0082,0.0438,0.3000,0.0600,0.0002,0,-1.9233,-3.5000,-0.0030,-1.9233,-3.5000,-0.0030
-1.0398,2.7229,-0.1451,0.0686,-0.1371,-0.4800,-0.1800,0.6400,0.2860,0.0033,-0.0075,0.0045,1286,1492,1497,1502,1000,1000,1505,1000,1000,1379,1005,1197,1131,0.0040,-0.8069,0.2964,0.0244,0.0335,1.0184,0.3013,0.2858,0.2797,0.2773,0.2204,0.0082,0.0438,0.2204,0.0082,0.0438,0.3000,0.0600,0.0002,0,-1.9233,-3.5000,-0.0030,-1.9233,-3.5000,-0.0030
-1.0372,2.6922,-0.1434,0.0000,-0.0686,-0.4800,-0.1800,0.6400,0.2860,0.0033,-0.0073,0.0050,1286,1492,1497,1502,1000,1000,1505,1000,1000,1379,1005,1198,1131,0.0087,-1.1671,0.3258,-0.0375,-0.0384,0.9883,0.3016,0.2850,0.2805,0.2769,0.2204,0.0082,0.0438,0.2204,0.0082,0.0438,0.3000,0.0600,0.0002,0,-1.9233,-3.5000,-0.0030,-1.9233,-3.5000,-0.0030
-1.0180,2.6535,-0.1380,0.0000,-0.1371,-0.4800,-0.1800,0.6400,0.2860,0.0034,-0.0085,0.0046,1286,1492,1497,1502,1000,1000,1505,1000,1000,1379,1005,1198,1131,-0.3614,1.7295,0.5204,-0.0373,0.0333,1.0233,0.3025,0.2864,0.2788,0.2763,0.2204,0.0082,0.0438,0.2204,0.0082,0.0438,0.3000,0.0600,0.0002,0,-1.9233,-3.5000,-0.0030,-1.9233,-3.5000,-0.0030
-1.0020,2.6083,-0.1327,0.0000,-0.0686,-0.4800,-0.1800,0.6400,0.2860,0.0030,-0.0071,0.0045,1286,1492,1497,1502,1000,1000,1505,1000,1000,1379,1005,1198,1131,0.4441,-1.0669,0.5998,0.0261,0.0260,1.0050,0.3006,0.2857,0.2803,0.2774,0.2204,0.0082,0.0438,0.2204,0.0082,0.0438,0.3000,0.0600,0.0002,0,-1.9233,-3.5000,-0.0030,-1.9233,-3.5000,-0.0030
-0.9813,2.5781,-0.1275,0.0686,-0.0686,-0.4800,-0.1800,0.6400,0.2860,0.0032,-0.0074,0.0061,1286,1492,1497,1502,1000,1000,1505,1000,1000,1379,1005,1198,1131,-0.1720,-0.4467,0.0693,-0.0092,-0.0138,0.9858,0.3027,0.2840,0.2816,0.2757,0.2204,0.0082,0.0438,0.2204,0.0082,0.0438,0.3000,0.0600,0.0002,0,-1.9233,-3.5000,-0.0030,-1.9233,-3.5000,-0.0030
-0.9752,2.5225,-0.1246,0.0000,-0.0686,-0.4800,-0.1800,0.6400,0.2860,0.0031,-0.0079,0.0056,1286,1492,1497,1504,1000,1000,1505,1000,1000,1379,1005,1198,1131,0.0246,1.0314,0.2609,-0.0222,0.0149,0.9957,0.3026,0.2851,0.2806,0.2756,0.2204,0.0082,0.0438,0.2204,0.0082,0.0438,0.3000,0.0600,0.0002,0,-1.9233,-3.5000,-0.0030,-1.9233,-3.5000,-0.0030
-0.9747,2.4758,-0.1237,0.0686,-0.0686,-0.4800,-0.1800,0.6400,0.2860,0.0031,-0.0065,0.0043,1286,1492,1497,1502,1000,1000,1505,1000,1000,1379,1005,1197,1131,0.1143,-1.9682,0.2852,0.0754,-0.0080,0.9922,0.2999,0.2851,0.2808,0.2783,0.2204,0.0082,0.0438,0.2204,0.0082,0.0438,0.3000,0.0600,0.0002,0,-1.9233,-3.5000,-0.0030,-1.9233,-3.5000,-0.0030
-0.9581,2.4466,-0.1223,0.0686,-0.0686,-0.4800,-0.1800,0.6400,0.2860,0.0034,-0.0075,0.0070,1286,1492,1497,1502,1000,1000,1505,1000,1000,1379,1005,1197,1131,-0.6170,0.5920,-0.1580,-0.0234,-0.0005,0.9813,0.3038,0.2832,0.2821,0.2749,0.2204,0.0082,0.0438,0.2204,0.0082,0.0438,0.3000,0.0600,0.0002,0,-1.9233,-3.5000,-0.0030,-1.9233,-3.5000,-0.0030
-0.9470,2.3916,-0.1218,0.0000,-0.0686,-0.4800,-0.1800,0.6400,0.2860,0.0029,-0.0073,0.0058,1286,1492,1497,1502,1000,1000,1505,1000,1000,1379,1005,1197,1131,0.4188,0.4150,0.1951,-0.0257,-0.0056,1.0262,0.3020,0.2846,0.2816,0.2757,0.2204,0.0082,0.0438,0.2204,0.0082,0.0438,0.3000,0.0600,0.0002,0,-1.9233,-3.5000,-0.0030,-1.9233,-3.5000,-0.0030
-0.9345,2.3776,-0.1230,0.0000,-0.1371,-0.4800,-0.1800,0.6400,0.2860,0.0031,-0.0065,0.0066,1286,1492,1497,1502,1000,1000,1505,1000,1000,1379,1005,1197,1131,-0.1016,-1.4955,-0.1256,0.0397,0.0213,0.9963,0.3021,0.2828,0.2830,0.2760,0.2204,0.0082,0.0438,0.2204,0.0082,0.0438,0.3000,0.0600,0.0002,0,-1.9233,-3.5000,-0.0030,-1.9233,-3.5000,-0.0030
-0.9216,2.3566,-0.1219,0.0000,-0.0686,-0.4800,-0.1800,0.6400,0.2860,0.0033,-0.0078,0.0069,1286,1492,1497,1502,1000,1000,1505,1000,1000,1379,1005,1198,1131,-0.6660,1.7119,-0.1621,-0.0011,-0.0069,0.9734,0.3041,0.2836,0.2818,0.2745,0.2204,0.0082,0.0438,0.2204,0.0082,0.0438,0.3000,0.0600,0.0002,0,-1.9233,-3.5000,-0.0030,-1.9233,-3.5000,-0.0030
-0.9052,2.3093,-0.1223,0.0686,-0.2057,-0.4800,-0.1800,0.6400,0.2860,0.0027,-0.0067,0.0068,1286,1492,1497,1504,1000,1000,1505,1000,1000,1379,1005,1198,1131,0.6906,-0.7357,-0.1035,-0.0048,-0.0190,1.0114,0.3022,0.2832,0.2835,0.2752,0.2204,0.0082,0.0438,0.2204,0.0082,0.0438,0.3000,0.0600,0.0002,0,-1.9233,-3.5000,-0.0030,-1.9233,-3.5000,-0.0030
-0.9134,2.2922,-0.1263,0.0686,-0.0686,-0.4800,-0.1800,0.6400,0.2860,0.0031,-0.0065,0.0053,1286,1492,1497,1502,1000,1000,1505,1000,1000,1379,1005,1198,1131,-0.1398,-0.9673,-0.1075,0.0699,0.0281,1.0105,0.3009,0.2841,0.2818,0.2772,0.2204,0.0082,0.0438,0.2204,0.0082,0.0438,0.3000,0.0600,0.0002,0,-1.9233,-3.5000,-0.0030,-1.9233,-3.5000,-0.0030
-0.9151,2.2619,-0.1247,-0.0686,-0.2743,-0.4800,-0.1800,0.6400,0.2860,0.0033,-0.0075,0.0054,1286,1492,1497,1502,1000,1000,1505,1000,1000,1379,1005,1198,1131,-0.7302,1.4506,0.1866,-0.0293,-0.0517,1.0123,0.3023,0.2848,0.2806,0.2764,0.2204,0.0082,0.0438,0.2204,0.0082,0.0438,0.3000,0.0600,0.0002,0,-1.9233,-3.5000,-0.0030,-1.9233,-3.5000,-0.0030
-0.9035,2.2220,-0.1224,0.0686,-0.0000,-0.4800,-0.1800,0.6400,0.2860,0.0026,-0.0063,0.0048,1286,1492,1497,1502,1000,1000,1505,1000,1000,1379,1005,1198,1131,0.8052,-1.0274,0.5203,-0.0156,-0.0114,1.0162,0.2997,0.2849,0.2818,0.2775,0.2204,0.0082,0.0438,0.2204,0.0082,0.0438,0.3000,0.0600,0.0002,0,-1.9233,-3.5000,-0.0030,-1.9233,-3.5000,-0.0030
-0.8945,2.2234,-0.1220,0.0000,-0.0000,-0.4800,-0.1800,0.6400,0.2860,0.0031,-0.0069,0.0059,1286,1492,1497,1502,1000,1000,1505,1000,1000,1379,1005,1198,1131,-0.2762,0.3158,0.0989,0.0135,0.0128,0.9749,0.3019,0.2840,0.2819,0.2763,0.2204,0.0082,0.0438,0.2204,0.0082,0.0438,0.3000,0.0600,0.0002,0,-1.9233,-3.5000,-0.0030,-1.9233,-3.5000,-0.0030
-0.9045,2.1958,-0.1213,0.0686,-0.0686,-0.4800,-0.1800,0.6400,0.2860,0.0034,-0.0074,0.0070,1286,1492,1497,1502,1000,1000,1505,1000,1000,1379,1005,1198,1131,-0.8762,1.4903,-0.1638,-0.0151,-0.0307,1.0328,0.3038,0.2830,0.2823,0.2749,0.2204,0.0082,0.0438,0.2204,0.0082,0.0438,0.3000,0.0600,0.0002,0,-1.9233,-3.5000,-0.0030,-1.9233,-3.5000,-0.0030
-0.9021,2.1557,-0.1235,0.0000,-0.0000,-0.4800,-0.1800,0.6400,0.2860,0.0027,-0.0058,0.0060,1286,1492,1497,1504,1000,1000,1505,1000,1000,1379,1005,1198,1131,0.7115,-1.9168,0.0505,-0.0082,-0.0773,0.9831,0.3005,0.2831,0.2836,0.2768,0.2204,0.0082,0.0438,0.2204,0.0082,0.0438,0.3000,0.0600,0.0002,0,-1.9233,-3.5000,-0.0030,-1.9233,-3.5000,-0.0030
-0.9085,2.1223,-0.1250,0.0686,-0.0686,-0.4800,-0.1800,0.6400,0.2860,0.0029,-0.0067,0.0058,1286,1492,1497,1502,1000,1000,1505,1000,1000,1379,1005,1197,1131,0.1576,0.3000,-0.2273,0.0193,0.0674,0.9836,0.3014,0.2840,0.2822,0.2764,0.2204,0.0082,0.0438,0.2204,0.0082,0.0438,0.3000,0.0600,0.0002,0,-1.9233,-3.5000,-0.0030,-1.9233,-3.5000,-0.0030
-0.8977,2.0907,-0.1247,0.0686,-0.0686,-0.4800,-0.1800,0.6400,0.2860,0.0029,-0.0067,0.0070,1286,1492,1497,1502,1000,1000,1505,1000,1000,1379,1005,1197,1131,0.0886,0.5512,-0.1903,-0.0096,-0.0262,1.0441,0.3027,0.2828,0.2833,0.2752,0.2204,0.0082,0.0438,0.2204,0.0082,0.0438,0.3000,0.0600,0.0002,0,-1.9233,-3.5000,-0.0030,-1.9233,-3.5000,-0.0030
-0.8700,2.0558,-0.1246,0.0686,-0.0686,-0.4800,-0.1800,0.6400,0.2860,0.0025,-0.0059,0.0059,1286,1492,1497,1502,1000,1000,1505,1000,1000,1379,1005,1198,1131,0.9377,-1.1313,0.1255,-0.0052,-0.0177,0.9884,0.3003,0.2836,0.2834,0.2767,0.2204,0.0082,0.0438,0.2204,0.0082,0.0438,0.3000,0.0600,0.0002,0,-1.9233,-3.5000,-0.0030,-1.9233,-3.5000,-0.0030
-0.8657,2.0395,-0.1241,0.0686,-0.0686,-0.4800,-0.1800,0.6400,0.2860,0.0029,-0.0065,0.0058,1286,1492,1497,1502,1000,1000,1505,1000,1000,1379,1005,1198,1131,-0.0796,0.2506,0.1046,-0.0111,0.0434,1.0001,0.3012,0.2838,0.2824,0.2766,0.2204,0.0082,0.0438,0.2204,0.0082,0.0438,0.3000,0.0600,0.0002,0,-1.9233,-3.5000,-0.0030,-1.9233,-3.5000,-0.0030
-0.8744,2.0027,-0.1235,0.0686,-0.0686,-0.4800,-0.1800,0.6400,0.2860,0.0034,-0.0065,0.0064,1286,1492,1497,1502,1000,1000,1505,1000,1000,1379,1005,1197,1131,-1.0657,0.4172,0.0790,-0.0318,-0.0167,1.0236,0.3023,0.2828,0.2825,0.2765,0.2204,0.0082,0.0438,0.2204,0.0082,0.0438,0.3000,0.0600,0.0002,0,-1.9233,-3.5000,-0.0030,-1.9233,-3.5000,-0.0030
-0.8638,1.9659,-0.1234,0.0686,-0.0686,-0.4800,-0.1800,0.6400,0.2860,0.0027,-0.0060,0.0062,1286,1492,1497,1504,1000,1000,1505,1000,1000,1379,1005,1198,1131,0.3661,-0.5762,-0.0153,0.0262,0.0002,0.9545,0.3009,0.2830,0.2835,0.2765,0.2204,0.0082,0.0438,0.2204,0.0082,0.0438,0.3000,0.0600,0.0002,0,-1.9233,-3.5000,-0.0030,-1.9233,-3.5000,-0.0030
-0.8756,1.9335,-0.1222,0.0000,-0.0686,-0.4800,-0.1800,0.6400,0.2860,0.0031,-0.0063,0.0056,1286,1492,1497,1502,1000,1000,1505,1000,1000,1379,1005,1198,1131,-0.3861,0.3238,-0.0112,0.0048,0.0479,0.9980,0.3010,0.2837,0.2822,0.2772,0.2204,0.0082,0.0438,0.2204,0.0082,0.0438,0.3000,0.0600,0.0002,0,-1.9233,-3.5000,-0.0030,-1.9233,-3.5000,-0.0030
-0.8660,1.8958,-0.1211,0.0000,-0.0686,-0.4800,-0.1800,0.6400,0.2860,0.0029,-0.0062,0.0063,1286,1492,1497,1502,1000,1000,1505,1000,1000,1379,1005,1197,1131,-0.0790,0.2490,0.0336,-0.0100,-0.0212,1.0197,0.3015,0.2829,0.2832,0.2764,0.2204,0.0082,0.0438,0.2204,0.0082,0.0438,0.3000,0.0600,0.0002,0,-1.9233,-3.5000,-0.0030,-1.9233,-3.5000,-0.0030
-0.8259,1.8730,-0.1207,0.0000,-0.0686,-0.4800,-0.1800,0.6400,0.2860,0.0024,-0.0058,0.0066,1286,1492,1497,1502,1000,1000,1505,1000,1000,1379,1005,1197,1131,0.8779,-0.5865,-0.1214,0.0166,0.0332,0.9673,0.3008,0.2828,0.2844,0.2760,0.2204,0.0082,0.0438,0.2204,0.0082,0.0438,0.3000,0.0600,0.0002,0,-1.9233,-3.5000,-0.0030,-1.9233,-3.5000,-0.0030
-0.8191,1.8372,-0.1208,0.0000,-0.2057,-0.4800,-0.1800,0.6400,0.2860,0.0030,-0.0059,0.0073,1286,1492,1497,1502,1000,1000,1505,1000,1000,1379,1005,1198,1131,-0.5701,-0.0962,-0.2618,0.0171,0.0277,1.0412,0.3023,0.2816,0.2843,0.2758,0.2204,0.0082,0.0438,0.2204,0.0082,0.0438,0.3000,0.0600,0.0002,0,-1.9233,-3.5000,-0.0030,-1.9233,-3.5000,-0.0030
-0.8047,1.7966,-0.1224,0.0000,-0.0000,-0.4800,-0.1800,0.6400,0.2860,0.0028,-0.0058,0.0065,1286,1492,1497,1502,1000,1000,1505,1000,1000,1379,1005,1198,1131,-0.1750,-0.1641,-0.0423,0.0030,-0.0740,1.0104,0.3011,0.2825,0.2838,0.2765,0.2204,0.0082,0.0438,0.2204,0.0082,0.0438,0.3000,0.0600,0.0002,0,-1.9233,-3.5000,-0.0030,-1.9233,-3.5000,-0.0030
-0.8023,1.7739,-0.1232,0.0000,-0.0686,-0.4800,-0.1800,0.6400,0.2860,0.0028,-0.0058,0.0068,1286,1492,1497,1504,1000,1000,1505,1000,1000,1379,1005,1198,1131,-0.0335,-0.0842,-0.1897,0.0224,0.0119,0.9627,0.3014,0.2822,0.2843,0.2761,0.2204,0.0082,0.0438,0.2204,0.0082,0.0438,0.3000,0.0600,0.0002,0,-1.9233,-3.5000,-0.0030,-1.9233,-3.5000,-0.0030
-0.8034,1.7487,-0.1234,0.0000,-0.1371,-0.4800,-0.1800,0.6400,0.2860,0.0029,-0.0059,0.0054,1286,1492,1497,1502,1000,1000,1505,1000,1000,1379,1005,1197,1131,-0.3628,0.2785,-0.0048,-0.0259,-0.0068,1.0445,0.3002,0.2836,0.2826,0.2776,0.2204,0.0082,0.0438,0.2204,0.0082,0.0438,0.3000,0.0600,0.0002,0,-1.9233,-3.5000,-0.0030,-1.9233,-3.5000,-0.0030
-0.7732,1.7188,-0.1220,0.0000,-0.0000,-0.4800,-0.1800,0.6400,0.2860,0.0026,-0.0057,0.0057,1286,1492,1497,1502,1000,1000,1505,1000,1000,1379,1005,1197,1131,0.3162,-0.0839,0.2178,0.0081,-0.0306,1.0204,0.2999,0.2835,0.2834,0.2772,0.2204,0.0082,0.0438,0.2204,0.0082,0.0438,0.3000,0.0600,0.0002,0,-1.9233,-3.5000,-0.0030,-1.9233,-3.5000,-0.0030
-0.7704,1.7128,-0.1181,0.0000,-0.2057,-0.4800,-0.1800,0.6400,0.2860,0.0029,-0.0057,0.0057,1286,1492,1497,1502,1000,1000,1505,1000,1000,1379,1005,1197,1131,-0.4384,-0.0510,0.2040,0.0311,0.0130,0.9722,0.3003,0.2831,0.2832,0.2775,0.2204,0.0082,0.0438,0.2204,0.0082,0.0438,0.3000,0.0600,0.0002,0,-1.9233,-3.5000,-0.0030,-1.9233,-3.5000,-0.0030
-0.7688,1.6934,-0.1129,0.0686,-0.0686,-0.4800,-0.1800,0.6400,0.2860,0.0030,-0.0058,0.0045,1286,1492,1497,1502,1000,1000,1505,1000,1000,1379,1005,1197,1131,-0.7064,0.3178,0.5756,-0.0422,-0.0190,1.0414,0.2992,0.2844,0.2817,0.2787,0.2204,0.0082,0.0438,0.2204,0.0082,0.0438,0.3000,0.0600,0.0002,0,-1.9233,-3.5000,-0.0030,-1.9233,-3.5000,-0.0030
-0.7593,1.6621,-0.1071,0.0686,-0.1371,-0.4800,-0.1800,0.6400,0.2860,0.0026,-0.0057,0.0045,1286,1492,1497,1502,1000,1000,1505,1000,1000,1379,1005,1197,1131,0.2460,0.2739,0.6095,0.0062,0.0197,1.0047,0.2987,0.2847,0.2822,0.2784,0.2204,0.0082,0.0438,0.2204,0.0082,0.0438,0.3000,0.0600,0.0002,0,-1.9233,-3.5000,-0.0030,-1.9233,-3.5000,-0.0030
-0.7734,1.6479,-0.1026,0.0686,-0.1371,-0.4800,-0.1800,0.6400,0.2860,0.0031,-0.0054,0.0067,1286,1492,1497,1504,1000,1000,1505,1000,1000,1379,1005,1197,1131,-0.8497,-0.4793,-0.0153,0.0339,0.0232,0.9673,0.3012,0.2815,0.2843,0.2770,0.2204,0.0082,0.0438,0.2204,0.0082,0.0438,0.3000,0.0600,0.0002,0,-1.9233,-3.5000,-0.0030,-1.9233,-3.5000,-0.0030
-0.7652,1.6163,-0.1034,0.0686,-0.0686,-0.4800,-0.1800,0.6400,0.2860,0.0025,-0.0056,0.0057,1286,1492,1497,1502,1000,1000,1505,1000,1000,1379,1005,1197,1131,0.3205,0.2197,-0.1001,-0.0657,-0.0394,0.9901,0.2998,0.2834,0.2836,0.2773,0.2204,0.0082,0.0438,0.2204,0.0082,0.0438,0.3000,0.0600,0.0002,0,-1.9233,-3.5000,-0.0030,-1.9233,-3.5000,-0.0030
-0.7518,1.5993,-0.1082,0.0686,-0.0000,-0.4800,-0.1800,0.6400,0.2860,0.0023,-0.0053,0.0075,1286,1492,1497,1502,1000,1000,1505,1000,1000,1379,1005,1197,1131,0.7869,-0.3336,-0.4278,0.0022,0.0344,0.9630,0.3011,0.2815,0.2859,0.2755,0.2204,0.0082,0.0438,0.2204,0.0082,0.0438,0.3000,0.0600,0.0002,0,-1.9233,-3.5000,-0.0030,-1.9233,-3.5000,-0.0030
-0.7670,1.5908,-0.1153,0.0000,-0.0686,-0.4800,-0.1800,0.6400,0.2860,0.0032,-0.0054,0.0094,1286,1492,1497,1502,1000,1000,1505,1000,1000,1379,1005,1197,1131,-1.1520,-0.1489,-0.9030,0.0355,0.0160,0.9855,0.3040,0.2788,0.2868,0.2744,0.2204,0.0082,0.0438,0.2204,0.0082,0.0438,0.3000,0.0600,0.0002,0,-1.9233,-3.5000,-0.0030,-1.9233,-3.5000,-0.0030
-0.7528,1.5542,-0.1217,0.0000,-0.0686,-0.4800,-0.1800,0.6400,0.2860,0.0024,-0.0054,0.0075,1286,1492,1497,1502,1000,1000,1505,1000,1000,1379,1005,1198,1131,0.5546,0.1816,-0.4204,-0.0519,-0.0719,0.9860,0.3014,0.2815,0.2857,0.2754,0.2204,0.0082,0.0438,0.2204,0.0082,0.0438,0.3000,0.0600,0.0002,0,-1.9233,-3.5000,-0.0030,-1.9233,-3.5000,-0.0030
-0.7572,1.5438,-0.1247,0.0686,-0.1371,-0.4800,-0.1800,0.6400,0.2860,0.0023,-0.0048,0.0065,1286,1492,1497,1502,1000,1000,1505,1000,1000,1379,1005,1198,1131,0.7284,-1.1849,-0.0497,0.0133,0.0190,0.9661,0.2997,0.2820,0.2853,0.2770,0.2204,0.0082,0.0438,0.2204,0.0082,0.0438,0.3000,0.0600,0.0002,0,-1.9233,-3.5000,-0.0030,-1.9233,-3.5000,-0.0030
