roll_imu,pitch_imu,yaw_imu,alpha,beta,roll_des,pitch_des,yaw_des,throttle_des,roll_pid,pitch_pid,yaw_pid,radio_ch1,radio_ch2,radio_ch3,radio_ch4,radio_ch5,radio_ch6,radio_ch7,radio_ch8,radio_ch9,radio_ch10,radio_ch11,radio_ch12,radio_ch13,GyroX,GyroY,GyroZ,AccX,AccY,AccZ,s1_command,s2_command,s3_command,s4_command,kp_roll,ki_roll,kd_roll,kp_pitch,ki_pitch,kd_pitch,kp_yaw,ki_yaw,kd_yaw,failsafeTriggered,kp_alphaRoll,ki_alphaRoll,kd_alphaRoll,kp_betaPitch,ki_betaPitch,kd_betaPitch
0.0000,0.0000,0.0000,9.2914,-2.4343,0.0000,0.0000,0.0000,0.0000,0.0000,0.0000,0.0000,998,1493,1497,1504,1000,1000,1505,1000,1000,1379,1005,1198,1131,0.0000,0.0000,0.0000,0.0000,0.0000,0.0000,0.0000,0.0000,0.0000,0.0000,0.2204,0.0082,0.0438,0.2204,0.0082,0.0438,0.3000,0.0600,0.0002,0,-0.3000,-100.0000,-0.0010,-0.3000,-100.0000,-0.0010
-22.6930,50.1517,-10.8284,0.0686,0.0686,-0.4800,-0.1800,0.6400,0.0000,0.0510,-0.1109,0.0110,996,1492,1497,1502,1000,1000,1505,1000,1000,1379,1005,1198,1131,0.0145,-0.1687,-0.0670,-0.0010,-0.0055,0.9544,0.1729,0.0488,-0.1509,-0.0709,0.2204,0.0082,0.0438,0.2204,0.0082,0.0438,0.3000,0.0600,0.0002,0,-1.9233,-3.5000,-0.0030,-1.9233,-3.5000,-0.0030
-22.6677,50.1208,-10.8082,0.0686,-0.0000,-0.4800,-0.1800,0.6400,0.0000,0.0510,-0.1108,0.0118,996,1492,1497,1502,1000,1000,1505,1000,1000,1379,1005,1198,1131,-0.0117,-0.1416,-0.0035,-0.0035,-0.0037,1.0033,0.1736,0.0480,-0.1499,-0.0717,0.2204,0.0082,0.0438,0.2204,0.0082,0.0438,0.3000,0.0600,0.0002,0,-1.9233,-3.5000,-0.0030,-1.9233,-3.5000,-0.0030
-22.6419,50.0899,-10.7874,0.0686,-0.0000,-0.4800,-0.1800,0.6400,0.0000,0.0509,-0.1107,0.0114,996,1492,1497,1502,1000,1000,1505,1000,1000,1379,1005,1198,1131,-0.0507,-0.1131,0.1020,-0.0037,-0.0048,1.0050,0.1731,0.0484,-0.1502,-0.0713,0.2204,0.0082,0.0438,0.2204,0.0082,0.0438,0.3000,0.0600,0.0002,0,-1.9233,-3.5000,-0.0030,-1.9233,-3.5000,-0.0030
-22.6159,50.0596,-10.7664,0.0686,-0.0000,-0.4800,-0.1800,0.6400,0.0000,0.0509,-0.1107,0.0117,996,1492,1497,1502,1000,1000,1505,1000,1000,1379,1005,1198,1131,-0.0900,-0.0517,0.0400,-0.0005,-0.0036,1.0049,0.1732,0.0482,-0.1499,-0.0715,0.2204,0.0082,0.0438,0.2204,0.0082,0.0438,0.3000,0.0600,0.0002,0,-1.9233,-3.5000,-0.0030,-1.9233,-3.5000,-0.0030
-22.5912,50.0289,-10.7471,0.0686,-0.0686,-0.4800,-0.1800,0.6400,0.0000,0.0508,-0.1106,0.0119,996,1492,1497,1502,1000,1000,1505,1000,1000,1379,1005,1197,1131,0.0197,-0.1518,-0.0438,-0.0015,-0.0021,1.0032,0.1732,0.0480,-0.1495,-0.0717,0.2204,0.0082,0.0438,0.2204,0.0082,0.0438,0.3000,0.0600,0.0002,0,-1.9233,-3.5000,-0.0030,-1.9233,-3.5000,-0.0030
-22.5652,49.9981,-10.7268,0.0000,-0.0000,-0.4800,-0.1800,0.6400,0.0000,0.0507,-0.1106,0.0117,998,1492,1497,1504,1000,1000,1505,1000,1000,1379,1005,1198,1131,-0.0169,-0.0398,0.0138,-0.0046,-0.0043,1.0033,0.1730,0.0481,-0.1496,-0.0716,0.2204,0.0082,0.0438,0.2204,0.0082,0.0438,0.3000,0.0600,0.0002,0,-1.9233,-3.5000,-0.0030,-1.9233,-3.5000,-0.0030
-22.5401,49.9673,-10.7073,0.0686,-0.0686,-0.4800,-0.1800,0.6400,0.0000,0.0507,-0.1105,0.0108,996,1492,1497,1502,1000,1000,1505,1000,1000,1379,1005,1198,1131,0.0378,-0.0649,-0.0093,-0.0040,-0.0052,1.0022,0.1720,0.0490,-0.1503,-0.0707,0.2204,0.0082,0.0438,0.2204,0.0082,0.0438,0.3000,0.0600,0.0002,0,-1.9233,-3.5000,-0.0030,-1.9233,-3.5000,-0.0030
-22.5147,49.9367,-10.6873,0.0686,-0.1371,-0.4800,-0.1800,0.6400,0.0000,0.0506,-0.1104,0.0117,996,1492,1497,1502,1000,1000,1505,1000,1000,1379,1005,1197,1131,-0.0463,-0.0829,0.0305,-0.0028,-0.0057,1.0013,0.1727,0.0481,-0.1494,-0.0715,0.2204,0.0082,0.0438,0.2204,0.0082,0.0438,0.3000,0.0600,0.0002,0,-1.9233,-3.5000,-0.0030,-1.9233,-3.5000,-0.0030
-22.4897,49.9060,-10.6675,0.0686,0.0686,-0.4800,-0.1800,0.6400,0.0000,0.0506,-0.1103,0.0119,996,1492,1497,1502,1000,1000,1505,1000,1000,1379,1005,1197,1131,-0.1298,-0.1159,-0.0540,-0.0025,-0.0036,1.0016,0.1729,0.0478,-0.1490,-0.0717,0.2204,0.0082,0.0438,0.2204,0.0082,0.0438,0.3000,0.0600,0.0002,0,-1.9233,-3.5000,-0.0030,-1.9233,-3.5000,-0.0030
-22.4657,49.8753,-10.6480,0.0000,-0.0000,-0.4800,-0.1800,0.6400,0.0000,0.0506,-0.1103,0.0118,996,1492,1497,1502,1000,1000,1505,1000,1000,1379,1005,1198,1131,-0.1292,-0.1025,0.0076,-0.0068,-0.0026,1.0009,0.1726,0.0479,-0.1491,-0.0715,0.2204,0.0082,0.0438,0.2204,0.0082,0.0438,0.3000,0.0600,0.0002,0,-1.9233,-3.5000,-0.0030,-1.9233,-3.5000,-0.0030
-22.4416,49.8447,-10.6292,0.0686,-0.0000,-0.4800,-0.1800,0.6400,0.0000,0.0505,-0.1102,0.0118,996,1492,1497,1502,1000,1000,1505,1000,1000,1379,1005,1198,1131,-0.0548,-0.0534,0.0076,-0.0001,-0.0022,1.0027,0.1725,0.0480,-0.1489,-0.0715,0.2204,0.0082,0.0438,0.2204,0.0082,0.0438,0.3000,0.0600,0.0002,0,-1.9233,-3.5000,-0.0030,-1.9233,-3.5000,-0.0030
-22.4166,49.8143,-10.6098,-0.0686,-0.2057,-0.4800,-0.1800,0.6400,0.0000,0.0504,-0.1102,0.0120,998,1493,1497,1504,1000,1000,1505,1000,1000,1379,1005,1198,1131,-0.0193,-0.0805,-0.0584,-0.0045,-0.0041,0.9970,0.1726,0.0477,-0.1485,-0.0718,0.2204,0.0082,0.0438,0.2204,0.0082,0.0438,0.3000,0.0600,0.0002,0,-1.9233,-3.5000,-0.0030,-1.9233,-3.5000,-0.0030
-22.3924,49.7838,-10.5913,0.0686,-0.0686,-0.4800,-0.1800,0.6400,0.0000,0.0504,-0.1101,0.0107,996,1492,1497,1502,1000,1000,1505,1000,1000,1379,1005,1197,1131,-0.0297,-0.0141,0.0150,-0.0042,-0.0058,0.9994,0.1712,0.0490,-0.1497,-0.0705,0.2204,0.0082,0.0438,0.2204,0.0082,0.0438,0.3000,0.0600,0.0002,0,-1.9233,-3.5000,-0.0030,-1.9233,-3.5000,-0.0030
-22.3677,49.7537,-10.5719,0.0000,0.0686,-0.4800,-0.1800,0.6400,0.0000,0.0503,-0.1101,0.0119,996,1492,1497,1502,1000,1000,1505,1000,1000,1379,1005,1197,1131,-0.0775,0.0136,-0.0112,-0.0025,-0.0013,1.0033,0.1722,0.0479,-0.1485,-0.0716,0.2204,0.0082,0.0438,0.2204,0.0082,0.0438,0.3000,0.0600,0.0002,0,-1.9233,-3.5000,-0.0030,-1.9233,-3.5000,-0.0030
-22.3427,49.7237,-10.5521,0.0686,-0.0000,-0.4800,-0.1800,0.6400,0.0000,0.0502,-0.1099,0.0116,996,1492,1497,1502,1000,1000,1505,1000,1000,1379,1005,1198,1131,-0.0325,-0.0967,0.0853,-0.0033,-0.0033,1.0033,0.1717,0.0481,-0.1486,-0.0712,0.2204,0.0082,0.0438,0.2204,0.0082,0.0438,0.3000,0.0600,0.0002,0,-1.9233,-3.5000,-0.0030,-1.9233,-3.5000,-0.0030
-22.3167,49.6931,-10.5317,0.0686,-0.0000,-0.4800,-0.1800,0.6400,0.0000,0.0502,-0.1099,0.0116,996,1492,1497,1502,1000,1000,1505,1000,1000,1379,1005,1198,1131,-0.0232,-0.0902,0.0584,0.0010,-0.0062,1.0032,0.1717,0.0481,-0.1485,-0.0713,0.2204,0.0082,0.0438,0.2204,0.0082,0.0438,0.3000,0.0600,0.0002,0,-1.9233,-3.5000,-0.0030,-1.9233,-3.5000,-0.0030
-22.2922,49.6624,-10.5127,0.0000,-0.1371,-0.4800,-0.1800,0.6400,0.0000,0.0501,-0.1098,0.0119,996,1492,1497,1502,1000,1000,1505,1000,1000,1379,1005,1197,1131,-0.0408,-0.0625,-0.0198,-0.0015,-0.0020,1.0017,0.1718,0.0478,-0.1481,-0.0716,0.2204,0.0082,0.0438,0.2204,0.0082,0.0438,0.3000,0.0600,0.0002,0,-1.9233,-3.5000,-0.0030,-1.9233,-3.5000,-0.0030
-22.2682,49.6319,-10.4937,0.0000,-0.0686,-0.4800,-0.1800,0.6400,0.0000,0.0501,-0.1098,0.0119,998,1493,1497,1504,1000,1000,1505,1000,1000,1379,1005,1197,1131,-0.0697,0.0259,-0.0288,-0.0026,-0.0030,1.0030,0.1718,0.0478,-0.1480,-0.0716,0.2204,0.0082,0.0438,0.2204,0.0082,0.0438,0.3000,0.0600,0.0002,0,-1.9233,-3.5000,-0.0030,-1.9233,-3.5000,-0.0030
-22.2435,49.6016,-10.4736,0.0000,-0.0000,-0.4800,-0.1800,0.6400,0.0000,0.0501,-0.1097,0.0108,996,1492,1497,1502,1000,1000,1505,1000,1000,1379,1005,1197,1131,-0.0949,-0.1497,0.0475,-0.0010,-0.0017,0.9991,0.1705,0.0488,-0.1489,-0.0704,0.2204,0.0082,0.0438,0.2204,0.0082,0.0438,0.3000,0.0600,0.0002,0,-1.9233,-3.5000,-0.0030,-1.9233,-3.5000,-0.0030
-22.2190,49.5702,-10.4543,0.0686,-0.0000,-0.4800,-0.1800,0.6400,0.0000,0.0500,-0.1096,0.0119,996,1492,1497,1502,1000,1000,1505,1000,1000,1379,1005,1197,1131,-0.0715,-0.1016,-0.0376,-0.0032,-0.0047,1.0037,0.1715,0.0477,-0.1477,-0.0716,0.2204,0.0082,0.0438,0.2204,0.0082,0.0438,0.3000,0.0600,0.0002,0,-1.9233,-3.5000,-0.0030,-1.9233,-3.5000,-0.0030
-22.1948,49.5382,-10.4355,0.0686,0.0686,-0.4800,-0.1800,0.6400,0.0000,0.0499,-0.1095,0.0121,996,1492,1497,1502,1000,1000,1505,1000,1000,1379,1005,1197,1131,-0.0568,-0.1524,-0.0744,-0.0011,-0.0046,1.0008,0.1715,0.0475,-0.1474,-0.0716,0.2204,0.0082,0.0438,0.2204,0.0082,0.0438,0.3000,0.0600,0.0002,0,-1.9233,-3.5000,-0.0030,-1.9233,-3.5000,-0.0030
-22.1709,49.5074,-10.4166,0.0686,-0.0686,-0.4800,-0.1800,0.6400,0.0000,0.0499,-0.1095,0.0118,996,1492,1497,1502,1000,1000,1505,1000,1000,1379,1005,1198,1131,-0.1299,-0.0015,0.0121,-0.0016,-0.0068,1.0000,0.1712,0.0478,-0.1477,-0.0714,0.2204,0.0082,0.0438,0.2204,0.0082,0.0438,0.3000,0.0600,0.0002,0,-1.9233,-3.5000,-0.0030,-1.9233,-3.5000,-0.0030
-22.1463,49.4768,-10.3969,0.0000,0.0686,-0.4800,-0.1800,0.6400,0.0000,0.0498,-0.1094,0.0120,996,1492,1497,1502,1000,1000,1505,1000,1000,1379,1005,1198,1131,-0.0222,-0.1544,-0.0367,-0.0027,-0.0043,1.0030,0.1712,0.0476,-0.1472,-0.0716,0.2204,0.0082,0.0438,0.2204,0.0082,0.0438,0.3000,0.0600,0.0002,0,-1.9233,-3.5000,-0.0030,-1.9233,-3.5000,-0.0030
-22.1209,49.4463,-10.3771,0.0000,-0.0000,-0.4800,-0.1800,0.6400,0.0000,0.0497,-0.1093,0.0127,998,1492,1497,1504,1000,1000,1505,1000,1000,1379,1005,1197,1131,0.0307,-0.1177,-0.2120,-0.0050,-0.0021,1.0028,0.1718,0.0469,-0.1463,-0.0723,0.2204,0.0082,0.0438,0.2204,0.0082,0.0438,0.3000,0.0600,0.0002,0,-1.9233,-3.5000,-0.0030,-1.9233,-3.5000,-0.0030
-22.1115,49.4103,-10.3784,0.0000,-0.0686,-0.4800,-0.1800,0.6400,0.0000,0.0497,-0.1093,0.0161,996,1492,1497,1502,1000,1000,1505,1000,1000,1379,1005,1198,1131,0.1729,0.0476,-1.7729,-0.0032,0.0084,0.9960,0.1751,0.0435,-0.1428,-0.0758,0.2204,0.0082,0.0438,0.2204,0.0082,0.0438,0.3000,0.0600,0.0002,0,-1.9233,-3.5000,-0.0030,-1.9233,-3.5000,-0.0030
-22.0945,49.3778,-10.3678,0.0686,-0.1371,-0.4800,-0.1800,0.6400,0.0000,0.0497,-0.1091,0.0100,996,1492,1497,1502,1000,1000,1505,1000,1000,1379,1005,1198,1131,-0.0526,-0.3036,0.5306,0.0048,-0.0225,0.9991,0.1688,0.0494,-0.1488,-0.0694,0.2204,0.0082,0.0438,0.2204,0.0082,0.0438,0.3000,0.0600,0.0002,0,-1.9233,-3.5000,-0.0030,-1.9233,-3.5000,-0.0030
-22.0491,49.3531,-10.3235,0.0686,0.0686,-0.4800,-0.1800,0.6400,0.0000,0.0496,-0.1092,0.0049,996,1492,1497,1502,1000,1000,1505,1000,1000,1379,1005,1198,1131,-0.0346,-0.0233,2.3145,-0.0150,0.0053,0.9895,0.1637,0.0547,-0.1539,-0.0645,0.2204,0.0082,0.0438,0.2204,0.0082,0.0438,0.3000,0.0600,0.0002,0,-1.9233,-3.5000,-0.0030,-1.9233,-3.5000,-0.0030
-22.0066,49.3264,-10.2807,0.0000,-0.0686,-0.4800,-0.1800,0.6400,0.0000,0.0494,-0.1090,0.0108,996,1492,1497,1502,1000,1000,1505,1000,1000,1379,1005,1198,1131,0.2186,-0.1771,0.4861,0.0085,-0.0058,1.0104,0.1692,0.0489,-0.1477,-0.0704,0.2204,0.0082,0.0438,0.2204,0.0082,0.0438,0.3000,0.0600,0.0002,0,-1.9233,-3.5000,-0.0030,-1.9233,-3.5000,-0.0030
-21.9875,49.2943,-10.2694,0.0686,-0.0000,-0.4800,-0.1800,0.6400,0.0000,0.0496,-0.1089,0.0144,996,1492,1497,1502,1000,1000,1505,1000,1000,1379,1005,1198,1131,-0.3654,-0.2723,-0.8704,0.0029,-0.0039,1.0109,0.1730,0.0449,-0.1441,-0.0738,0.2204,0.0082,0.0438,0.2204,0.0082,0.0438,0.3000,0.0600,0.0002,0,-1.9233,-3.5000,-0.0030,-1.9233,-3.5000,-0.0030
-21.9646,49.2640,-10.2512,0.0000,0.0686,-0.4800,-0.1800,0.6400,0.0000,0.0494,-0.1090,0.0085,998,1492,1497,1504,1000,1000,1505,1000,1000,1379,1005,1198,1131,-0.0662,0.1586,1.0132,-0.0174,-0.0058,0.9874,0.1670,0.0511,-0.1500,-0.0681,0.2204,0.0082,0.0438,0.2204,0.0082,0.0438,0.3000,0.0600,0.0002,0,-1.9233,-3.5000,-0.0030,-1.9233,-3.5000,-0.0030
-21.9238,49.2386,-10.2081,0.1371,-0.1371,-0.4800,-0.1800,0.6400,0.0000,0.0494,-0.1088,0.0069,996,1492,1497,1502,1000,1000,1505,1000,1000,1379,1005,1198,1131,-0.1013,-0.2297,1.4194,0.0052,-0.0077,1.0024,0.1650,0.0526,-0.1513,-0.0663,0.2204,0.0082,0.0438,0.2204,0.0082,0.0438,0.3000,0.0600,0.0002,0,-1.9233,-3.5000,-0.0030,-1.9233,-3.5000,-0.0030
-21.8944,49.2091,-10.1844,0.0686,-0.0000,-0.4800,-0.1800,0.6400,0.0000,0.0492,-0.1088,0.0139,996,1492,1497,1502,1000,1000,1505,1000,1000,1379,1005,1198,1131,-0.0002,-0.1539,-0.6100,0.0052,0.0002,1.0064,0.1720,0.0456,-0.1441,-0.0735,0.2204,0.0082,0.0438,0.2204,0.0082,0.0438,0.3000,0.0600,0.0002,0,-1.9233,-3.5000,-0.0030,-1.9233,-3.5000,-0.0030
-21.8809,49.1741,-10.1792,0.0000,-0.1371,-0.4800,-0.1800,0.6400,0.0000,0.0493,-0.1088,0.0142,996,1492,1497,1502,1000,1000,1505,1000,1000,1379,1005,1198,1131,-0.1174,0.0762,-0.8138,-0.0030,-0.0012,1.0041,0.1722,0.0454,-0.1439,-0.0737,0.2204,0.0082,0.0438,0.2204,0.0082,0.0438,0.3000,0.0600,0.0002,0,-1.9233,-3.5000,-0.0030,-1.9233,-3.5000,-0.0030
-21.8571,49.1429,-10.1613,0.0000,-0.0686,-0.4800,-0.1800,0.6400,0.0000,0.0492,-0.1086,0.0097,996,1492,1497,1502,1000,1000,1505,1000,1000,1379,1005,1198,1131,-0.0420,-0.2578,0.6546,-0.0094,0.0063,1.0038,0.1675,0.0497,-0.1480,-0.0692,0.2204,0.0082,0.0438,0.2204,0.0082,0.0438,0.3000,0.0600,0.0002,0,-1.9233,-3.5000,-0.0030,-1.9233,-3.5000,-0.0030
-21.8260,49.1135,-10.1326,0.0686,-0.0000,-0.4800,-0.1800,0.6400,0.0000,0.0490,-0.1086,0.0122,996,1492,1497,1502,1000,1000,1505,1000,1000,1379,1005,1198,1131,0.1231,-0.0949,-0.0060,0.0102,-0.0176,1.0004,0.1698,0.0474,-0.1455,-0.0717,0.2204,0.0082,0.0438,0.2204,0.0082,0.0438,0.3000,0.0600,0.0002,0,-1.9233,-3.5000,-0.0030,-1.9233,-3.5000,-0.0030
-21.8094,49.0782,-10.1252,0.1371,-0.0000,-0.4800,-0.1800,0.6400,0.0000,0.0491,-0.1085,0.0159,998,1492,1497,1504,1000,1000,1505,1000,1000,1379,1005,1198,1131,-0.1176,-0.0827,-1.3118,-0.0082,-0.0090,0.9999,0.1735,0.0435,-0.1418,-0.0753,0.2204,0.0082,0.0438,0.2204,0.0082,0.0438,0.3000,0.0600,0.0002,0,-1.9233,-3.5000,-0.0030,-1.9233,-3.5000,-0.0030
-21.7971,49.0426,-10.1228,0.0000,-0.0686,-0.4800,-0.1800,0.6400,0.0000,0.0490,-0.1084,0.0123,996,1492,1497,1502,1000,1000,1505,1000,1000,1379,1005,1197,1131,0.0133,-0.1623,-0.5198,-0.0048,0.0044,1.0074,0.1697,0.0471,-0.1452,-0.0717,0.2204,0.0082,0.0438,0.2204,0.0082,0.0438,0.3000,0.0600,0.0002,0,-1.9233,-3.5000,-0.0030,-1.9233,-3.5000,-0.0030
-21.7731,49.0121,-10.1034,0.0000,-0.1371,-0.4800,-0.1800,0.6400,0.0000,0.0490,-0.1084,0.0112,996,1492,1497,1502,1000,1000,1505,1000,1000,1379,1005,1197,1131,-0.0645,-0.0446,0.2472,0.0091,-0.0041,1.0030,0.1686,0.0482,-0.1462,-0.0706,0.2204,0.0082,0.0438,0.2204,0.0082,0.0438,0.3000,0.0600,0.0002,0,-1.9233,-3.5000,-0.0030,-1.9233,-3.5000,-0.0030
-21.7493,48.9808,-10.0879,0.0000,-0.0000,-0.4800,-0.1800,0.6400,0.0000,0.0489,-0.1083,0.0142,996,1492,1497,1502,1000,1000,1505,1000,1000,1379,1005,1198,1131,0.1581,-0.0654,-0.7055,-0.0110,0.0040,0.9956,0.1714,0.0452,-0.1430,-0.0737,0.2204,0.0082,0.0438,0.2204,0.0082,0.0438,0.3000,0.0600,0.0002,0,-1.9233,-3.5000,-0.0030,-1.9233,-3.5000,-0.0030
-21.7380,48.9463,-10.0856,0.0000,-0.0686,-0.4800,-0.1800,0.6400,0.0000,0.0489,-0.1083,0.0151,996,1492,1497,1502,1000,1000,1505,1000,1000,1379,1005,1198,1131,0.0229,-0.0316,-1.0986,0.0007,-0.0076,1.0004,0.1722,0.0443,-0.1421,-0.0744,0.2204,0.0082,0.0438,0.2204,0.0082,0.0438,0.3000,0.0600,0.0002,0,-1.9233,-3.5000,-0.0030,-1.9233,-3.5000,-0.0030
-21.7188,48.9146,-10.0732,0.0686,-0.0000,-0.4800,-0.1800,0.6400,0.0000,0.0490,-0.1082,0.0113,996,1492,1497,1502,1000,1000,1505,1000,1000,1379,1005,1198,1131,-0.2329,-0.0948,0.1762,0.0001,-0.0102,1.0065,0.1684,0.0479,-0.1458,-0.0705,0.2204,0.0082,0.0438,0.2204,0.0082,0.0438,0.3000,0.0600,0.0002,0,-1.9233,-3.5000,-0.0030,-1.9233,-3.5000,-0.0030
-21.6919,48.8853,-10.0505,0.0686,-0.1371,-0.4800,-0.1800,0.6400,0.0000,0.0488,-0.1082,0.0112,998,1492,1497,1504,1000,1000,1505,1000,1000,1379,1005,1198,1131,0.0607,0.1366,0.2678,-0.0097,-0.0021,0.9930,0.1681,0.0483,-0.1458,-0.0706,0.2204,0.0082,0.0438,0.2204,0.0082,0.0438,0.3000,0.0600,0.0002,0,-1.9233,-3.5000,-0.0030,-1.9233,-3.5000,-0.0030
-21.6698,48.8525,-10.0358,0.0686,-0.0686,-0.4800,-0.1800,0.6400,0.0000,0.0488,-0.1080,0.0130,996,1492,1497,1502,1000,1000,1505,1000,1000,1379,1005,1198,1131,0.0037,-0.1698,-0.6806,0.0102,-0.0005,1.0073,0.1698,0.0462,-0.1437,-0.0723,0.2204,0.0082,0.0438,0.2204,0.0082,0.0438,0.3000,0.0600,0.0002,0,-1.9233,-3.5000,-0.0030,-1.9233,-3.5000,-0.0030
-21.6502,48.8204,-10.0236,0.0686,-0.0000,-0.4800,-0.1800,0.6400,0.0000,0.0488,-0.1080,0.0120,996,1492,1497,1502,1000,1000,1505,1000,1000,1379,1005,1197,1131,-0.1087,-0.0404,-0.0702,-0.0032,-0.0087,1.0079,0.1688,0.0472,-0.1447,-0.0712,0.2204,0.0082,0.0438,0.2204,0.0082,0.0438,0.3000,0.0600,0.0002,0,-1.9233,-3.5000,-0.0030,-1.9233,-3.5000,-0.0030
-21.6216,48.7912,-9.9985,0.0000,-0.0000,-0.4800,-0.1800,0.6400,0.0000,0.0486,-0.1080,0.0098,996,1492,1497,1502,1000,1000,1505,1000,1000,1379,1005,1197,1131,0.0127,0.1226,0.7164,-0.0123,-0.0065,0.9992,0.1664,0.0495,-0.1468,-0.0691,0.2204,0.0082,0.0438,0.2204,0.0082,0.0438,0.3000,0.0600,0.0002,0,-1.9233,-3.5000,-0.0030,-1.9233,-3.5000,-0.0030
-21.5916,48.7626,-9.9729,0.0000,-0.0000,-0.4800,-0.1800,0.6400,0.0000,0.0485,-0.1078,0.0113,996,1492,1497,1502,1000,1000,1505,1000,1000,1379,1005,1198,1131,0.0754,-0.1321,0.2525,0.0002,0.0003,1.0003,0.1676,0.0480,-0.1451,-0.0705,0.2204,0.0082,0.0438,0.2204,0.0082,0.0438,0.3000,0.0600,0.0002,0,-1.9233,-3.5000,-0.0030,-1.9233,-3.5000,-0.0030
-21.5672,48.7321,-9.9542,0.0686,-0.0000,-0.4800,-0.1800,0.6400,0.0000,0.0485,-0.1078,0.0117,996,1492,1497,1502,1000,1000,1505,1000,1000,1379,1005,1198,1131,-0.0497,-0.0576,0.0330,0.0003,-0.0038,1.0124,0.1681,0.0475,-0.1446,-0.0710,0.2204,0.0082,0.0438,0.2204,0.0082,0.0438,0.3000,0.0600,0.0002,0,-1.9233,-3.5000,-0.0030,-1.9233,-3.5000,-0.0030
-21.5391,48.7021,-9.9299,0.0000,-0.0686,-0.4800,-0.1800,0.6400,0.0000,0.0485,-0.1078,0.0102,998,1493,1497,1504,1000,1000,1505,1000,1000,1379,1005,1198,1131,-0.0489,0.0355,0.5667,-0.0045,-0.0042,0.9997,0.1665,0.0490,-0.1460,-0.0695,0.2204,0.0082,0.0438,0.2204,0.0082,0.0438,0.3000,0.0600,0.0002,0,-1.9233,-3.5000,-0.0030,-1.9233,-3.5000,-0.0030
-21.5074,48.6734,-9.9002,0.0000,-0.0686,-0.4800,-0.1800,0.6400,0.0000,0.0484,-0.1076,0.0090,996,1492,1497,1502,1000,1000,1505,1000,1000,1379,1005,1198,1131,-0.1058,-0.2329,0.6702,0.0008,-0.0031,0.9968,0.1651,0.0501,-0.1470,-0.0682,0.2204,0.0082,0.0438,0.2204,0.0082,0.0438,0.3000,0.0600,0.0002,0,-1.9233,-3.5000,-0.0030,-1.9233,-3.5000,-0.0030
-21.4778,48.6431,-9.8750,0.0686,-0.0000,-0.4800,-0.1800,0.6400,0.0000,0.0484,-0.1075,0.0115,996,1492,1497,1502,1000,1000,1505,1000,1000,1379,1005,1198,1131,-0.0531,-0.2024,0.1914,0.0024,-0.0049,1.0005,0.1674,0.0477,-0.1444,-0.0706,0.2204,0.0082,0.0438,0.2204,0.0082,0.0438,0.3000,0.0600,0.0002,0,-1.9233,-3.5000,-0.0030,-1.9233,-3.5000,-0.0030
-21.4511,48.6109,-9.8532,0.0686,-0.0000,-0.4800,-0.1800,0.6400,0.0000,0.0483,-0.1074,0.0113,996,1492,1497,1502,1000,1000,1505,1000,1000,1379,1005,1197,1131,-0.0470,-0.2042,0.2261,-0.0082,0.0063,0.9977,0.1670,0.0479,-0.1445,-0.0704,0.2204,0.0082,0.0438,0.2204,0.0082,0.0438,0.3000,0.0600,0.0002,0,-1.9233,-3.5000,-0.0030,-1.9233,-3.5000,-0.0030
-21.4230,48.5797,-9.8289,0.0000,-0.1371,-0.4800,-0.1800,0.6400,0.0000,0.0482,-0.1074,0.0105,996,1492,1497,1502,1000,1000,1505,1000,1000,1379,1005,1197,1131,-0.0535,-0.2586,0.4621,-0.0057,0.0057,1.0030,0.1661,0.0486,-0.1451,-0.0696,0.2204,0.0082,0.0438,0.2204,0.0082,0.0438,0.3000,0.0600,0.0002,0,-1.9233,-3.5000,-0.0030,-1.9233,-3.5000,-0.0030
-21.3950,48.5485,-9.8052,0.0686,-0.0686,-0.4800,-0.1800,0.6400,0.0000,0.0481,-0.1073,0.0115,996,1492,1497,1502,1000,1000,1505,1000,1000,1379,1005,1197,1131,0.1720,-0.1546,0.2046,0.0011,-0.0075,1.0019,0.1669,0.0478,-0.1439,-0.0707,0.2204,0.0082,0.0438,0.2204,0.0082,0.0438,0.3000,0.0600,0.0002,0,-1.9233,-3.5000,-0.0030,-1.9233,-3.5000,-0.0030
-21.3716,48.5162,-9.7873,0.0686,-0.0686,-0.4800,-0.1800,0.6400,0.0000,0.0481,-0.1073,0.0125,998,1493,1497,1504,1000,1000,1505,1000,1000,1379,1005,1198,1131,-0.0508,-0.0760,-0.1856,-0.0051,-0.0079,0.9989,0.1679,0.0467,-0.1429,-0.0717,0.2204,0.0082,0.0438,0.2204,0.0082,0.0438,0.3000,0.0600,0.0002,0,-1.9233,-3.5000,-0.0030,-1.9233,-3.5000,-0.0030
-21.3497,48.4833,-9.7712,0.0686,-0.0686,-0.4800,-0.1800,0.6400,0.0000,0.0481,-0.1072,0.0112,996,1492,1497,1502,1000,1000,1505,1000,1000,1379,1005,1198,1131,-0.0436,-0.1846,-0.0999,0.0001,-0.0075,1.0063,0.1665,0.0479,-0.1440,-0.0703,0.2204,0.0082,0.0438,0.2204,0.0082,0.0438,0.3000,0.0600,0.0002,0,-1.9233,-3.5000,-0.0030,-1.9233,-3.5000,-0.0030
-21.3267,48.4512,-9.7538,0.0686,-0.0686,-0.4800,-0.1800,0.6400,0.0000,0.0480,-0.1072,0.0120,996,1492,1497,1502,1000,1000,1505,1000,1000,1379,1005,1197,1131,-0.0311,0.0342,-0.0228,0.0050,-0.0090,1.0073,0.1672,0.0472,-0.1432,-0.0712,0.2204,0.0082,0.0438,0.2204,0.0082,0.0438,0.3000,0.0600,0.0002,0,-1.9233,-3.5000,-0.0030,-1.9233,-3.5000,-0.0030
-21.3042,48.4200,-9.7384,0.0686,-0.0686,-0.4800,-0.1800,0.6400,0.0000,0.0479,-0.1071,0.0131,996,1492,1497,1502,1000,1000,1505,1000,1000,1379,1005,1197,1131,0.0748,0.0382,-0.3600,-0.0034,-0.0018,1.0029,0.1681,0.0461,-0.1420,-0.0723,0.2204,0.0082,0.0438,0.2204,0.0082,0.0438,0.3000,0.0600,0.0002,0,-1.9233,-3.5000,-0.0030,-1.9233,-3.5000,-0.0030
-21.2852,48.3872,-9.7271,0.0000,-0.0686,-0.4800,-0.1800,0.6400,0.0000,0.0479,-0.1070,0.0134,996,1492,1497,1502,1000,1000,1505,1000,1000,1379,1005,1197,1131,0.0032,-0.1096,-0.4958,-0.0017,-0.0035,1.0019,0.1683,0.0456,-0.1414,-0.0725,0.2204,0.0082,0.0438,0.2204,0.0082,0.0438,0.3000,0.0600,0.0002,0,-1.9233,-3.5000,-0.0030,-1.9233,-3.5000,-0.0030
-21.2659,48.3550,-9.7149,0.0000,-0.0000,-0.4800,-0.1800,0.6400,0.0000,0.0478,-0.1069,0.0127,996,1492,1497,1502,1000,1000,1505,1000,1000,1379,1005,1197,1131,0.0327,-0.0834,-0.2628,-0.0058,-0.0050,1.0033,0.1675,0.0464,-0.1421,-0.0718,0.2204,0.0082,0.0438,0.2204,0.0082,0.0438,0.3000,0.0600,0.0002,0,-1.9233,-3.5000,-0.0030,-1.9233,-3.5000,-0.0030
-21.2441,48.3226,-9.7002,0.0000,-0.0686,-0.4800,-0.1800,0.6400,0.0000,0.0478,-0.1069,0.0127,998,1493,1497,1504,1000,1000,1505,1000,1000,1379,1005,1198,1131,0.0874,0.0211,-0.2218,-0.0075,-0.0068,1.0040,0.1673,0.0465,-0.1420,-0.0718,0.2204,0.0082,0.0438,0.2204,0.0082,0.0438,0.3000,0.0600,0.0002,0,-1.9233,-3.5000,-0.0030,-1.9233,-3.5000,-0.0030
-21.2238,48.2899,-9.6876,0.0686,-0.0686,-0.4800,-0.1800,0.6400,0.0000,0.0478,-0.1068,0.0121,996,1492,1497,1502,1000,1000,1505,1000,1000,1379,1005,1198,1131,-0.0053,0.0379,-0.3566,-0.0042,0.0012,1.0067,0.1667,0.0470,-0.1425,-0.0712,0.2204,0.0082,0.0438,0.2204,0.0082,0.0438,0.3000,0.0600,0.0002,0,-1.9233,-3.5000,-0.0030,-1.9233,-3.5000,-0.0030
-21.2041,48.2576,-9.6749,0.1371,-0.0000,-0.4800,-0.1800,0.6400,0.0000,0.0477,-0.1068,0.0126,996,1492,1497,1502,1000,1000,1505,1000,1000,1379,1005,1198,1131,0.0109,0.0252,-0.2145,-0.0037,0.0028,1.0121,0.1671,0.0464,-0.1419,-0.0717,0.2204,0.0082,0.0438,0.2204,0.0082,0.0438,0.3000,0.0600,0.0002,0,-1.9233,-3.5000,-0.0030,-1.9233,-3.5000,-0.0030
-21.1820,48.2267,-9.6584,0.0686,-0.0686,-0.4800,-0.1800,0.6400,0.0000,0.0476,-0.1067,0.0119,996,1492,1497,1502,1000,1000,1505,1000,1000,1379,1005,1197,1131,0.0639,-0.0395,0.0308,-0.0051,-0.0005,1.0068,0.1662,0.0471,-0.1424,-0.0709,0.2204,0.0082,0.0438,0.2204,0.0082,0.0438,0.3000,0.0600,0.0002,0,-1.9233,-3.5000,-0.0030,-1.9233,-3.5000,-0.0030
-21.1587,48.1953,-9.6412,0.0686,-0.0000,-0.4800,-0.1800,0.6400,0.0000,0.0476,-0.1066,0.0124,996,1492,1497,1502,1000,1000,1505,1000,1000,1379,1005,1197,1131,0.0713,-0.1417,-0.1050,-0.0029,-0.0009,1.0041,0.1665,0.0466,-0.1418,-0.0714,0.2204,0.0082,0.0438,0.2204,0.0082,0.0438,0.3000,0.0600,0.0002,0,-1.9233,-3.5000,-0.0030,-1.9233,-3.5000,-0.0030
-21.1370,48.1635,-9.6253,0.0000,-0.0686,-0.4800,-0.1800,0.6400,0.0000,0.0476,-0.1065,0.0122,996,1492,1497,1502,1000,1000,1505,1000,1000,1379,1005,1197,1131,-0.0159,-0.1320,-0.0662,-0.0003,-0.0018,0.9986,0.1663,0.0467,-0.1418,-0.0712,0.2204,0.0082,0.0438,0.2204,0.0082,0.0438,0.3000,0.0600,0.0002,0,-1.9233,-3.5000,-0.0030,-1.9233,-3.5000,-0.0030
-21.1129,48.1329,-9.6055,0.0000,-0.0686,-0.4800,-0.1800,0.6400,0.0000,0.0476,-0.1065,0.0114,998,1493,1497,1504,1000,1000,1505,1000,1000,1379,1005,1198,1131,-0.1477,-0.0369,0.2317,-0.0017,-0.0073,0.9955,0.1654,0.0475,-0.1427,-0.0703,0.2204,0.0082,0.0438,0.2204,0.0082,0.0438,0.3000,0.0600,0.0002,0,-1.9233,-3.5000,-0.0030,-1.9233,-3.5000,-0.0030
-21.0863,48.1023,-9.5824,0.0686,0.0686,-0.4800,-0.1800,0.6400,0.0000,0.0475,-0.1064,0.0100,996,1492,1497,1502,1000,1000,1505,1000,1000,1379,1005,1198,1131,-0.1798,-0.1309,0.3353,-0.0013,-0.0072,0.9992,0.1639,0.0488,-0.1439,-0.0688,0.2204,0.0082,0.0438,0.2204,0.0082,0.0438,0.3000,0.0600,0.0002,0,-1.9233,-3.5000,-0.0030,-1.9233,-3.5000,-0.0030
-21.0601,48.0716,-9.5604,0.0686,-0.0000,-0.4800,-0.1800,0.6400,0.0000,0.0475,-0.1063,0.0114,996,1492,1497,1502,1000,1000,1505,1000,1000,1379,1005,1198,1131,-0.1186,-0.0877,0.1982,-0.0040,-0.0022,1.0036,0.1652,0.0474,-0.1423,-0.0703,0.2204,0.0082,0.0438,0.2204,0.0082,0.0438,0.3000,0.0600,0.0002,0,-1.9233,-3.5000,-0.0030,-1.9233,-3.5000,-0.0030
-21.0339,48.0408,-9.5392,0.0686,-0.0000,-0.4800,-0.1800,0.6400,0.0000,0.0474,-0.1062,0.0113,996,1492,1497,1502,1000,1000,1505,1000,1000,1379,1005,1198,1131,-0.0448,-0.1046,0.2307,-0.0041,-0.0001,1.0041,0.1649,0.0475,-0.1423,-0.0702,0.2204,0.0082,0.0438,0.2204,0.0082,0.0438,0.3000,0.0600,0.0002,0,-1.9233,-3.5000,-0.0030,-1.9233,-3.5000,-0.0030
-21.0062,48.0097,-9.5157,0.0686,-0.0686,-0.4800,-0.1800,0.6400,0.0000,0.0473,-0.1061,0.0107,996,1492,1497,1502,1000,1000,1505,1000,1000,1379,1005,1198,1131,0.0872,-0.1521,0.4408,-0.0040,-0.0030,1.0023,0.1641,0.0482,-0.1427,-0.0696,0.2204,0.0082,0.0438,0.2204,0.0082,0.0438,0.3000,0.0600,0.0002,0,-1.9233,-3.5000,-0.0030,-1.9233,-3.5000,-0.0030
-20.9776,47.9790,-9.4913,-0.0686,-0.2057,-0.4800,-0.1800,0.6400,0.0000,0.0472,-0.1061,0.0110,996,1492,1497,1502,2008,1000,1505,1000,1000,1379,1005,1198,1131,0.1279,-0.1461,0.3504,0.0004,-0.0047,0.9983,0.1642,0.0479,-0.1422,-0.0699,0.2204,0.0082,0.0438,0.2204,0.0082,0.0438,0.3000,0.0600,0.0002,0,-1.9233,-3.5000,-0.0030,-1.9233,-3.5000,-0.0030
-20.9517,47.9471,-9.4706,0.0686,-0.0000,-0.4800,-0.1800,0.6400,0.0000,0.0472,-0.1060,0.0121,998,1492,1497,1504,2008,1000,1505,1000,1000,1379,1005,1197,1131,-0.1187,-0.1508,-0.0249,-0.0036,-0.0100,1.0023,0.1654,0.0466,-0.1411,-0.0709,0.2204,0.0082,0.0438,0.2204,0.0082,0.0438,0.3000,0.0600,0.0002,0,-1.9233,-3.5000,-0.0030,-1.9233,-3.5000,-0.0030
-20.9306,47.9145,-9.4551,0.0000,-0.1371,-0.4800,-0.1800,0.6400,0.0000,0.0472,-0.1060,0.0120,996,1492,1497,1502,2008,1000,1505,1000,1000,1379,1005,1198,1131,-0.1438,-0.0440,-0.3079,-0.0043,-0.0027,1.0013,0.1651,0.0468,-0.1412,-0.0708,0.2204,0.0082,0.0438,0.2204,0.0082,0.0438,0.3000,0.0600,0.0002,0,-1.9233,-3.5000,-0.0030,-1.9233,-3.5000,-0.0030
-20.9095,47.8817,-9.4402,0.0686,0.0686,-0.4800,-0.1800,0.6400,0.0000,0.0471,-0.1059,0.0127,996,1492,1497,1502,2008,1000,1505,1000,1000,1379,1005,1198,1131,-0.0075,-0.0322,-0.2302,-0.0027,-0.0016,1.0012,0.1657,0.0461,-0.1403,-0.0716,0.2204,0.0082,0.0438,0.2204,0.0082,0.0438,0.3000,0.0600,0.0002,0,-1.9233,-3.5000,-0.0030,-1.9233,-3.5000,-0.0030
-20.8885,47.8490,-9.4267,0.0686,0.0686,-0.4800,-0.1800,0.6400,0.0000,0.0470,-0.1058,0.0132,996,1492,1497,1502,2008,1000,1505,1000,1000,1379,1005,1197,1131,0.0238,-0.1201,-0.3699,-0.0009,-0.0019,1.0029,0.1660,0.0456,-0.1396,-0.0720,0.2204,0.0082,0.0438,0.2204,0.0082,0.0438,0.3000,0.0600,0.0002,0,-1.9233,-3.5000,-0.0030,-1.9233,-3.5000,-0.0030
