roll_imu,pitch_imu,yaw_imu,alpha,beta,roll_des,pitch_des,yaw_des,throttle_des,roll_pid,pitch_pid,yaw_pid,radio_ch1,radio_ch2,radio_ch3,radio_ch4,radio_ch5,radio_ch6,radio_ch7,radio_ch8,radio_ch9,radio_ch10,radio_ch11,radio_ch12,radio_ch13,GyroX,GyroY,GyroZ,AccX,AccY,AccZ,s1_command,s2_command,s3_command,s4_command,kp_roll,ki_roll,kd_roll,kp_pitch,ki_pitch,kd_pitch,kp_yaw,ki_yaw,kd_yaw,failsafeTriggered,kp_alphaRoll,ki_alphaRoll,kd_alphaRoll,kp_betaPitch,ki_betaPitch,kd_betaPitch
0.0000,0.0000,0.0000,9.4286,-2.3657,0.0000,0.0000,0.0000,0.0000,0.0000,0.0000,0.0000,998,1493,1497,1504,1000,1000,1505,1000,1000,1374,1005,1111,1131,0.0000,0.0000,0.0000,0.0000,0.0000,0.0000,0.0000,0.0000,0.0000,0.0000,0.2204,0.0082,0.0438,0.2204,0.0082,0.0438,0.3000,0.0600,0.0002,0,-0.3000,-100.0000,-0.0010,-0.3000,-100.0000,-0.0010
-78.5014,-21.1424,17.6833,0.0000,0.0686,-0.4800,-0.1800,0.6400,0.0000,0.1740,0.0462,0.0169,996,1492,1497,1502,1000,1000,1505,1000,1000,1374,1005,1112,1131,-0.0316,-0.0473,0.0091,0.0089,-0.0088,0.9571,0.1447,-0.2372,-0.1109,0.2033,0.2204,0.0082,0.0438,0.2204,0.0082,0.0438,0.3000,0.0600,0.0002,0,-1.9098,-3.5000,-0.0021,-1.9098,-3.5000,-0.0021
-78.4763,-21.1406,17.6748,0.0000,-0.0000,-0.4800,-0.1800,0.6400,0.0000,0.1739,0.0462,0.0167,996,1492,1497,1502,1000,1000,1505,1000,1000,1374,1005,1112,1131,0.0110,-0.0933,0.0549,0.0079,-0.0079,0.9942,0.1444,-0.2369,-0.1110,0.2035,0.2204,0.0082,0.0438,0.2204,0.0082,0.0438,0.3000,0.0600,0.0002,0,-1.9098,-3.5000,-0.0021,-1.9098,-3.5000,-0.0021
-78.4502,-21.1391,17.6664,0.0000,0.0686,-0.4800,-0.1800,0.6400,0.0000,0.1739,0.0462,0.0170,996,1492,1497,1502,1000,1000,1505,1000,1000,1374,1005,1111,1131,-0.0073,-0.1276,-0.0137,0.0061,-0.0095,1.0025,0.1446,-0.2371,-0.1107,0.2032,0.2204,0.0082,0.0438,0.2204,0.0082,0.0438,0.3000,0.0600,0.0002,0,-1.9098,-3.5000,-0.0021,-1.9098,-3.5000,-0.0021
-78.4242,-21.1376,17.6576,0.0000,-0.0000,-0.4800,-0.1800,0.6400,0.0000,0.1739,0.0462,0.0168,996,1492,1497,1502,1000,1000,1505,1000,1000,1374,1005,1111,1131,-0.0487,-0.0917,0.0314,0.0080,-0.0073,1.0046,0.1444,-0.2369,-0.1108,0.2033,0.2204,0.0082,0.0438,0.2204,0.0082,0.0438,0.3000,0.0600,0.0002,0,-1.9098,-3.5000,-0.0021,-1.9098,-3.5000,-0.0021
-78.3985,-21.1359,17.6491,0.0000,0.0686,-0.4800,-0.1800,0.6400,0.0000,0.1738,0.0462,0.0169,996,1492,1497,1502,1000,1000,1505,1000,1000,1374,1005,1112,1131,-0.0327,-0.0385,0.0104,0.0053,-0.0069,1.0021,0.1445,-0.2369,-0.1107,0.2031,0.2204,0.0082,0.0438,0.2204,0.0082,0.0438,0.3000,0.0600,0.0002,0,-1.9098,-3.5000,-0.0021,-1.9098,-3.5000,-0.0021
-78.3722,-21.1339,17.6402,0.0000,0.0686,-0.4800,-0.1800,0.6400,0.0000,0.1737,0.0462,0.0169,998,1493,1497,1504,1000,1000,1505,1000,1000,1374,1005,1112,1131,-0.0036,-0.0720,0.0326,0.0073,-0.0075,1.0013,0.1444,-0.2368,-0.1106,0.2031,0.2204,0.0082,0.0438,0.2204,0.0082,0.0438,0.3000,0.0600,0.0002,0,-1.9098,-3.5000,-0.0021,-1.9098,-3.5000,-0.0021
-78.3461,-21.1318,17.6317,-0.0686,-0.0000,-0.4800,-0.1800,0.6400,0.0000,0.1737,0.0462,0.0157,996,1492,1497,1502,1000,1000,1505,1000,1000,1374,1005,1112,1131,-0.0204,-0.1075,0.0755,0.0088,-0.0093,0.9989,0.1432,-0.2356,-0.1117,0.2042,0.2204,0.0082,0.0438,0.2204,0.0082,0.0438,0.3000,0.0600,0.0002,0,-1.9098,-3.5000,-0.0021,-1.9098,-3.5000,-0.0021
-78.3194,-21.1299,17.6229,0.0686,0.0686,-0.4800,-0.1800,0.6400,0.0000,0.1736,0.0462,0.0169,996,1492,1497,1502,1000,1000,1505,1000,1000,1374,1005,1112,1131,0.0238,-0.0451,0.0089,0.0107,-0.0107,1.0039,0.1443,-0.2366,-0.1106,0.2029,0.2204,0.0082,0.0438,0.2204,0.0082,0.0438,0.3000,0.0600,0.0002,0,-1.9098,-3.5000,-0.0021,-1.9098,-3.5000,-0.0021
-78.2934,-21.1281,17.6143,0.0000,-0.0000,-0.4800,-0.1800,0.6400,0.0000,0.1736,0.0462,0.0168,996,1492,1497,1502,1000,1000,1505,1000,1000,1374,1005,1112,1131,-0.1030,-0.0860,0.0209,0.0039,-0.0087,0.9976,0.1442,-0.2366,-0.1105,0.2030,0.2204,0.0082,0.0438,0.2204,0.0082,0.0438,0.3000,0.0600,0.0002,0,-1.9098,-3.5000,-0.0021,-1.9098,-3.5000,-0.0021
-78.2667,-21.1266,17.6054,-0.0686,0.0686,-0.4800,-0.1800,0.6400,0.0000,0.1735,0.0462,0.0168,996,1492,1497,1502,1000,1000,1505,1000,1000,1374,1005,1112,1131,0.0390,-0.0805,0.0121,0.0107,-0.0087,1.0001,0.1441,-0.2365,-0.1104,0.2028,0.2204,0.0082,0.0438,0.2204,0.0082,0.0438,0.3000,0.0600,0.0002,0,-1.9098,-3.5000,-0.0021,-1.9098,-3.5000,-0.0021
-78.2405,-21.1253,17.5970,-0.0686,-0.0000,-0.4800,-0.1800,0.6400,0.0000,0.1734,0.0462,0.0172,996,1492,1497,1502,1000,1000,1505,1000,1000,1374,1005,1112,1131,-0.0127,-0.1172,-0.0989,0.0054,-0.0081,1.0004,0.1444,-0.2369,-0.1100,0.2024,0.2204,0.0082,0.0438,0.2204,0.0082,0.0438,0.3000,0.0600,0.0002,0,-1.9098,-3.5000,-0.0021,-1.9098,-3.5000,-0.0021
-78.2140,-21.1238,17.5884,0.0000,0.0686,-0.4800,-0.1800,0.6400,0.0000,0.1734,0.0462,0.0169,998,1493,1497,1504,1000,1000,1505,1000,1000,1374,1005,1112,1131,-0.0363,-0.1015,0.0254,0.0064,-0.0106,1.0055,0.1440,-0.2364,-0.1103,0.2027,0.2204,0.0082,0.0438,0.2204,0.0082,0.0438,0.3000,0.0600,0.0002,0,-1.9098,-3.5000,-0.0021,-1.9098,-3.5000,-0.0021
-78.1881,-21.1220,17.5804,0.0686,-0.0000,-0.4800,-0.1800,0.6400,0.0000,0.1733,0.0462,0.0159,996,1492,1497,1502,1000,1000,1505,1000,1000,1374,1005,1112,1131,-0.0033,-0.1260,0.0191,0.0074,-0.0097,1.0042,0.1430,-0.2354,-0.1112,0.2036,0.2204,0.0082,0.0438,0.2204,0.0082,0.0438,0.3000,0.0600,0.0002,0,-1.9098,-3.5000,-0.0021,-1.9098,-3.5000,-0.0021
-78.1620,-21.1199,17.5722,0.0000,0.0686,-0.4800,-0.1800,0.6400,0.0000,0.1733,0.0462,0.0168,996,1492,1497,1502,1000,1000,1505,1000,1000,1374,1005,1112,1131,0.0069,-0.0943,0.0394,0.0101,-0.0074,1.0023,0.1439,-0.2363,-0.1102,0.2026,0.2204,0.0082,0.0438,0.2204,0.0082,0.0438,0.3000,0.0600,0.0002,0,-1.9098,-3.5000,-0.0021,-1.9098,-3.5000,-0.0021
-78.1360,-21.1182,17.5644,0.0000,-0.0000,-0.4800,-0.1800,0.6400,0.0000,0.1732,0.0462,0.0167,996,1492,1497,1502,1000,1000,1505,1000,1000,1374,1005,1112,1131,0.0171,-0.1149,0.0794,0.0090,-0.0076,1.0036,0.1437,-0.2361,-0.1103,0.2027,0.2204,0.0082,0.0438,0.2204,0.0082,0.0438,0.3000,0.0600,0.0002,0,-1.9098,-3.5000,-0.0021,-1.9098,-3.5000,-0.0021
-78.1099,-21.1163,17.5563,-0.0686,0.0686,-0.4800,-0.1800,0.6400,0.0000,0.1732,0.0462,0.0169,996,1492,1497,1502,1000,1000,1505,1000,1000,1374,1005,1112,1131,-0.0290,-0.1673,0.0236,0.0065,-0.0093,0.9951,0.1438,-0.2362,-0.1101,0.2025,0.2204,0.0082,0.0438,0.2204,0.0082,0.0438,0.3000,0.0600,0.0002,0,-1.9098,-3.5000,-0.0021,-1.9098,-3.5000,-0.0021
-78.0838,-21.1145,17.5478,-0.0686,-0.1371,-0.4800,-0.1800,0.6400,0.0000,0.1731,0.0462,0.0170,996,1492,1497,1502,1000,1000,1505,1000,1000,1374,1005,1112,1131,-0.0465,-0.1162,-0.0302,0.0062,-0.0077,1.0003,0.1439,-0.2363,-0.1099,0.2023,0.2204,0.0082,0.0438,0.2204,0.0082,0.0438,0.3000,0.0600,0.0002,0,-1.9098,-3.5000,-0.0021,-1.9098,-3.5000,-0.0021
-78.0578,-21.1125,17.5394,0.0000,0.0686,-0.4800,-0.1800,0.6400,0.0000,0.1730,0.0462,0.0170,998,1493,1497,1504,1000,1000,1505,1000,1000,1374,1005,1112,1131,-0.0046,-0.0857,-0.0059,0.0020,-0.0064,0.9981,0.1438,-0.2362,-0.1099,0.2022,0.2204,0.0082,0.0438,0.2204,0.0082,0.0438,0.3000,0.0600,0.0002,0,-1.9098,-3.5000,-0.0021,-1.9098,-3.5000,-0.0021
-78.0314,-21.1106,17.5307,0.0000,-0.0000,-0.4800,-0.1800,0.6400,0.0000,0.1730,0.0462,0.0161,996,1492,1497,1502,1000,1000,1505,1000,1000,1374,1005,1112,1131,-0.0067,-0.0958,-0.0326,0.0056,-0.0074,1.0049,0.1429,-0.2352,-0.1107,0.2031,0.2204,0.0082,0.0438,0.2204,0.0082,0.0438,0.3000,0.0600,0.0002,0,-1.9098,-3.5000,-0.0021,-1.9098,-3.5000,-0.0021
-78.0049,-21.1090,17.5221,-0.0686,0.1371,-0.4800,-0.1800,0.6400,0.0000,0.1729,0.0462,0.0168,996,1492,1497,1502,1000,1000,1505,1000,1000,1374,1005,1111,1131,-0.0205,-0.1634,0.0133,0.0037,-0.0104,0.9985,0.1436,-0.2360,-0.1099,0.2023,0.2204,0.0082,0.0438,0.2204,0.0082,0.0438,0.3000,0.0600,0.0002,0,-1.9098,-3.5000,-0.0021,-1.9098,-3.5000,-0.0021
-77.9786,-21.1070,17.5136,0.0000,0.0686,-0.4800,-0.1800,0.6400,0.0000,0.1728,0.0461,0.0169,996,1492,1497,1502,1000,1000,1505,1000,1000,1374,1005,1111,1131,0.0354,-0.0398,0.0229,0.0046,-0.0081,1.0022,0.1436,-0.2359,-0.1098,0.2021,0.2204,0.0082,0.0438,0.2204,0.0082,0.0438,0.3000,0.0600,0.0002,0,-1.9098,-3.5000,-0.0021,-1.9098,-3.5000,-0.0021
-77.9520,-21.1053,17.5049,0.0000,0.0686,-0.4800,-0.1800,0.6400,0.0000,0.1728,0.0462,0.0169,996,1492,1497,1502,1000,1000,1505,1000,1000,1374,1005,1112,1131,0.0132,-0.1047,-0.0044,0.0084,-0.0056,1.0010,0.1436,-0.2359,-0.1097,0.2020,0.2204,0.0082,0.0438,0.2204,0.0082,0.0438,0.3000,0.0600,0.0002,0,-1.9098,-3.5000,-0.0021,-1.9098,-3.5000,-0.0021
-77.9256,-21.1035,17.4961,0.0000,0.0686,-0.4800,-0.1800,0.6400,0.0000,0.1728,0.0461,0.0168,996,1492,1497,1502,1000,1000,1505,1000,1000,1374,1005,1112,1131,-0.0309,-0.0572,0.0284,0.0069,-0.0079,1.0015,0.1434,-0.2357,-0.1098,0.2021,0.2204,0.0082,0.0438,0.2204,0.0082,0.0438,0.3000,0.0600,0.0002,0,-1.9098,-3.5000,-0.0021,-1.9098,-3.5000,-0.0021
-77.8995,-21.1019,17.4875,0.0000,-0.0000,-0.4800,-0.1800,0.6400,0.0000,0.1727,0.0462,0.0170,998,1493,1497,1504,1000,1000,1505,1000,1000,1374,1005,1111,1131,-0.0180,-0.1622,-0.0267,0.0054,-0.0110,0.9989,0.1435,-0.2359,-0.1095,0.2018,0.2204,0.0082,0.0438,0.2204,0.0082,0.0438,0.3000,0.0600,0.0002,0,-1.9098,-3.5000,-0.0021,-1.9098,-3.5000,-0.0021
-77.8733,-21.1005,17.4788,0.0000,0.2057,-0.4800,-0.1800,0.6400,0.0000,0.1727,0.0462,0.0159,996,1492,1497,1502,1000,1000,1505,1000,1000,1374,1005,1112,1131,-0.1583,-0.1213,-0.0265,0.0159,-0.0377,1.0010,0.1425,-0.2348,-0.1106,0.2029,0.2204,0.0082,0.0438,0.2204,0.0082,0.0438,0.3000,0.0600,0.0002,0,-1.9098,-3.5000,-0.0021,-1.9098,-3.5000,-0.0021
-77.8469,-21.0946,17.4718,-0.0686,0.0686,-0.4800,-0.1800,0.6400,0.0000,0.1727,0.0462,0.0144,996,1492,1497,1502,1000,1000,1505,1000,1000,1374,1005,1112,1131,-0.2667,-0.1445,0.8379,-0.0069,-0.0021,0.9834,0.1409,-0.2332,-0.1121,0.2044,0.2204,0.0082,0.0438,0.2204,0.0082,0.0438,0.3000,0.0600,0.0002,0,-1.9098,-3.5000,-0.0021,-1.9098,-3.5000,-0.0021
-77.8207,-21.0883,17.4648,0.0686,-0.0000,-0.4800,-0.1800,0.6400,0.0000,0.1725,0.0461,0.0170,996,1492,1497,1502,1000,1000,1505,1000,1000,1374,1005,1111,1131,0.0695,-0.0042,0.0043,0.0044,0.0011,0.9998,0.1434,-0.2356,-0.1093,0.2015,0.2204,0.0082,0.0438,0.2204,0.0082,0.0438,0.3000,0.0600,0.0002,0,-1.9098,-3.5000,-0.0021,-1.9098,-3.5000,-0.0021
-77.7947,-21.0903,17.4552,0.0000,0.1371,-0.4800,-0.1800,0.6400,0.0000,0.1727,0.0462,0.0187,996,1492,1497,1502,1000,1000,1505,1000,1000,1374,1005,1111,1131,-0.4548,-0.2703,-0.5761,0.0147,-0.0059,1.0080,0.1451,-0.2375,-0.1078,0.2002,0.2204,0.0082,0.0438,0.2204,0.0082,0.0438,0.3000,0.0600,0.0002,0,-1.9098,-3.5000,-0.0021,-1.9098,-3.5000,-0.0021
-77.7673,-21.0919,17.4449,0.1371,-0.0000,-0.4800,-0.1800,0.6400,0.0000,0.1724,0.0461,0.0170,996,1492,1497,1502,1000,1000,1505,1000,1000,1374,1005,1112,1131,0.0658,0.0593,-0.0366,-0.0009,-0.0062,1.0056,0.1433,-0.2354,-0.1093,0.2015,0.2204,0.0082,0.0438,0.2204,0.0082,0.0438,0.3000,0.0600,0.0002,0,-1.9098,-3.5000,-0.0021,-1.9098,-3.5000,-0.0021
-77.7429,-21.0882,17.4374,0.0686,0.1371,-0.4800,-0.1800,0.6400,0.0000,0.1722,0.0460,0.0164,998,1493,1497,1504,1000,1000,1505,1000,1000,1374,1005,1112,1131,0.2875,0.0891,0.1846,0.0075,-0.0134,1.0038,0.1426,-0.2347,-0.1097,0.2018,0.2204,0.0082,0.0438,0.2204,0.0082,0.0438,0.3000,0.0600,0.0002,0,-1.9098,-3.5000,-0.0021,-1.9098,-3.5000,-0.0021
-77.7148,-21.0871,17.4270,-0.0686,0.0686,-0.4800,-0.1800,0.6400,0.0000,0.1723,0.0462,0.0174,996,1492,1497,1502,1000,1000,1505,1000,1000,1374,1005,1112,1131,-0.1427,-0.2830,-0.4611,0.0114,-0.0099,1.0040,0.1435,-0.2359,-0.1087,0.2011,0.2204,0.0082,0.0438,0.2204,0.0082,0.0438,0.3000,0.0600,0.0002,0,-1.9098,-3.5000,-0.0021,-1.9098,-3.5000,-0.0021
-77.6883,-21.0900,17.4173,0.0686,-0.0000,-0.4800,-0.1800,0.6400,0.0000,0.1722,0.0460,0.0176,996,1492,1497,1502,1000,1000,1505,1000,1000,1374,1005,1112,1131,0.0472,0.1521,-0.2733,0.0052,-0.0095,1.0038,0.1438,-0.2358,-0.1086,0.2006,0.2204,0.0082,0.0438,0.2204,0.0082,0.0438,0.3000,0.0600,0.0002,0,-1.9098,-3.5000,-0.0021,-1.9098,-3.5000,-0.0021
-77.6619,-21.0877,17.4092,0.1371,0.0686,-0.4800,-0.1800,0.6400,0.0000,0.1721,0.0462,0.0161,996,1492,1497,1502,1000,1000,1505,1000,1000,1374,1005,1112,1131,0.0731,-0.1596,0.2565,0.0062,-0.0031,1.0021,0.1421,-0.2344,-0.1099,0.2022,0.2204,0.0082,0.0438,0.2204,0.0082,0.0438,0.3000,0.0600,0.0002,0,-1.9098,-3.5000,-0.0021,-1.9098,-3.5000,-0.0021
-77.6356,-21.0835,17.4000,0.0686,0.0686,-0.4800,-0.1800,0.6400,0.0000,0.1721,0.0462,0.0166,996,1492,1497,1502,1000,1000,1505,1000,1000,1374,1005,1111,1131,-0.0664,-0.2723,0.1092,0.0130,-0.0139,0.9995,0.1426,-0.2349,-0.1093,0.2017,0.2204,0.0082,0.0438,0.2204,0.0082,0.0438,0.3000,0.0600,0.0002,0,-1.9098,-3.5000,-0.0021,-1.9098,-3.5000,-0.0021
-77.6091,-21.0834,17.3918,0.0000,0.0686,-0.4800,-0.1800,0.6400,0.0000,0.1720,0.0460,0.0179,996,1492,1497,1502,1000,1000,1505,1000,1000,1374,1005,1111,1131,0.0350,0.0552,-0.3096,0.0028,-0.0081,1.0057,0.1439,-0.2360,-0.1081,0.2002,0.2204,0.0082,0.0438,0.2204,0.0082,0.0438,0.3000,0.0600,0.0002,0,-1.9098,-3.5000,-0.0021,-1.9098,-3.5000,-0.0021
-77.5833,-21.0835,17.3831,-0.0686,-0.1371,-0.4800,-0.1800,0.6400,0.0000,0.1720,0.0461,0.0167,998,1493,1497,1504,1000,1000,1505,1000,1000,1374,1005,1112,1131,0.0163,-0.1651,0.0471,0.0045,-0.0104,1.0066,0.1426,-0.2349,-0.1091,0.2014,0.2204,0.0082,0.0438,0.2204,0.0082,0.0438,0.3000,0.0600,0.0002,0,-1.9098,-3.5000,-0.0021,-1.9098,-3.5000,-0.0021
-77.5562,-21.0798,17.3739,0.0000,-0.0686,-0.4800,-0.1800,0.6400,0.0000,0.1720,0.0461,0.0151,996,1492,1497,1502,1000,1000,1505,1000,1000,1374,1005,1111,1131,-0.1261,-0.0604,0.2622,0.0086,-0.0027,1.0007,0.1410,-0.2332,-0.1108,0.2029,0.2204,0.0082,0.0438,0.2204,0.0082,0.0438,0.3000,0.0600,0.0002,0,-1.9098,-3.5000,-0.0021,-1.9098,-3.5000,-0.0021
-77.5312,-21.0761,17.3662,0.0000,-0.0000,-0.4800,-0.1800,0.6400,0.0000,0.1719,0.0461,0.0170,996,1492,1497,1502,1000,1000,1505,1000,1000,1374,1005,1111,1131,-0.0510,-0.0160,0.0068,0.0122,-0.0207,0.9941,0.1428,-0.2350,-0.1088,0.2009,0.2204,0.0082,0.0438,0.2204,0.0082,0.0438,0.3000,0.0600,0.0002,0,-1.9098,-3.5000,-0.0021,-1.9098,-3.5000,-0.0021
-77.5050,-21.0746,17.3574,-0.0686,0.0686,-0.4800,-0.1800,0.6400,0.0000,0.1719,0.0461,0.0168,996,1492,1497,1502,1000,1000,1505,1000,1000,1374,1005,1112,1131,-0.2395,-0.1428,0.0357,0.0000,-0.0035,1.0004,0.1426,-0.2348,-0.1090,0.2012,0.2204,0.0082,0.0438,0.2204,0.0082,0.0438,0.3000,0.0600,0.0002,0,-1.9098,-3.5000,-0.0021,-1.9098,-3.5000,-0.0021
-77.4786,-21.0711,17.3485,0.0000,-0.0686,-0.4800,-0.1800,0.6400,0.0000,0.1717,0.0461,0.0161,996,1492,1497,1502,1000,1000,1505,1000,1000,1374,1005,1112,1131,0.2165,-0.0676,0.2639,0.0097,-0.0045,1.0081,0.1417,-0.2338,-0.1095,0.2016,0.2204,0.0082,0.0438,0.2204,0.0082,0.0438,0.3000,0.0600,0.0002,0,-1.9098,-3.5000,-0.0021,-1.9098,-3.5000,-0.0021
-77.4527,-21.0670,17.3405,-0.0686,-0.0000,-0.4800,-0.1800,0.6400,0.0000,0.1718,0.0461,0.0166,996,1492,1497,1502,1000,1000,1505,1000,1000,1374,1005,1111,1131,-0.1516,-0.1728,0.1114,0.0141,-0.0171,1.0018,0.1423,-0.2345,-0.1090,0.2013,0.2204,0.0082,0.0438,0.2204,0.0082,0.0438,0.3000,0.0600,0.0002,0,-1.9098,-3.5000,-0.0021,-1.9098,-3.5000,-0.0021
-77.4250,-21.0650,17.3319,-0.0686,-0.0000,-0.4800,-0.1800,0.6400,0.0000,0.1716,0.0461,0.0167,998,1493,1497,1504,1000,1000,1505,1000,1000,1374,1005,1112,1131,0.1025,-0.0723,0.0748,-0.0003,0.0019,0.9960,0.1422,-0.2343,-0.1089,0.2010,0.2204,0.0082,0.0438,0.2204,0.0082,0.0438,0.3000,0.0600,0.0002,0,-1.9098,-3.5000,-0.0021,-1.9098,-3.5000,-0.0021
-77.4004,-21.0621,17.3245,0.0000,-0.0000,-0.4800,-0.1800,0.6400,0.0000,0.1715,0.0461,0.0153,996,1492,1497,1502,1000,1000,1505,1000,1000,1374,1005,1112,1131,0.1641,-0.1342,0.1885,0.0127,-0.0042,1.0099,0.1408,-0.2329,-0.1101,0.2023,0.2204,0.0082,0.0438,0.2204,0.0082,0.0438,0.3000,0.0600,0.0002,0,-1.9098,-3.5000,-0.0021,-1.9098,-3.5000,-0.0021
-77.3733,-21.0572,17.3155,0.0000,0.1371,-0.4800,-0.1800,0.6400,0.0000,0.1717,0.0461,0.0162,996,1492,1497,1502,1000,1000,1505,1000,1000,1374,1005,1111,1131,-0.3862,-0.0878,0.2538,0.0142,-0.0279,1.0008,0.1419,-0.2340,-0.1094,0.2015,0.2204,0.0082,0.0438,0.2204,0.0082,0.0438,0.3000,0.0600,0.0002,0,-1.9098,-3.5000,-0.0021,-1.9098,-3.5000,-0.0021
-77.3465,-21.0550,17.3071,-0.0686,-0.0000,-0.4800,-0.1800,0.6400,0.0000,0.1713,0.0460,0.0172,996,1492,1497,1502,1000,1000,1505,1000,1000,1374,1005,1111,1131,0.2697,0.0571,-0.0581,-0.0080,-0.0096,0.9980,0.1425,-0.2345,-0.1082,0.2002,0.2204,0.0082,0.0438,0.2204,0.0082,0.0438,0.3000,0.0600,0.0002,0,-1.9098,-3.5000,-0.0021,-1.9098,-3.5000,-0.0021
-77.3218,-21.0546,17.2988,0.0000,0.0686,-0.4800,-0.1800,0.6400,0.0000,0.1714,0.0461,0.0171,996,1492,1497,1502,1000,1000,1505,1000,1000,1374,1005,1112,1131,0.0433,-0.3099,-0.0791,0.0212,0.0188,1.0024,0.1424,-0.2346,-0.1081,0.2004,0.2204,0.0082,0.0438,0.2204,0.0082,0.0438,0.3000,0.0600,0.0002,0,-1.9098,-3.5000,-0.0021,-1.9098,-3.5000,-0.0021
-77.2946,-21.0518,17.2899,0.0000,-0.0000,-0.4800,-0.1800,0.6400,0.0000,0.1715,0.0461,0.0165,996,1492,1497,1502,1000,1000,1505,1000,1000,1374,1005,1112,1131,-0.3917,-0.1486,0.1339,0.0131,-0.0248,1.0049,0.1420,-0.2341,-0.1089,0.2010,0.2204,0.0082,0.0438,0.2204,0.0082,0.0438,0.3000,0.0600,0.0002,0,-1.9098,-3.5000,-0.0021,-1.9098,-3.5000,-0.0021
-77.2684,-21.0492,17.2829,0.0000,0.0686,-0.4800,-0.1800,0.6400,0.0000,0.1712,0.0460,0.0170,998,1493,1497,1504,1000,1000,1505,1000,1000,1374,1005,1112,1131,0.2669,0.0775,-0.0093,-0.0046,-0.0275,1.0016,0.1422,-0.2341,-0.1082,0.2002,0.2204,0.0082,0.0438,0.2204,0.0082,0.0438,0.3000,0.0600,0.0002,0,-1.9098,-3.5000,-0.0021,-1.9098,-3.5000,-0.0021
-77.2424,-21.0496,17.2732,-0.0686,0.0686,-0.4800,-0.1800,0.6400,0.0000,0.1712,0.0461,0.0169,996,1492,1497,1502,1000,1000,1505,1000,1000,1374,1005,1112,1131,0.0180,-0.1562,-0.2952,0.0054,-0.0036,0.9945,0.1420,-0.2341,-0.1083,0.2004,0.2204,0.0082,0.0438,0.2204,0.0082,0.0438,0.3000,0.0600,0.0002,0,-1.9098,-3.5000,-0.0021,-1.9098,-3.5000,-0.0021
-77.2145,-21.0497,17.2626,0.0000,-0.0000,-0.4800,-0.1800,0.6400,0.0000,0.1713,0.0460,0.0167,996,1492,1497,1502,1000,1000,1505,1000,1000,1374,1005,1112,1131,-0.1910,-0.0662,0.0343,0.0132,0.0184,1.0035,0.1420,-0.2340,-0.1085,0.2005,0.2204,0.0082,0.0438,0.2204,0.0082,0.0438,0.3000,0.0600,0.0002,0,-1.9098,-3.5000,-0.0021,-1.9098,-3.5000,-0.0021
-77.1877,-21.0467,17.2548,-0.0686,-0.0686,-0.4800,-0.1800,0.6400,0.0000,0.1711,0.0460,0.0163,996,1492,1497,1502,1000,1000,1505,1000,1000,1374,1005,1111,1131,0.0800,0.0183,0.1916,0.0103,-0.0038,1.0105,0.1414,-0.2333,-0.1088,0.2008,0.2204,0.0082,0.0438,0.2204,0.0082,0.0438,0.3000,0.0600,0.0002,0,-1.9098,-3.5000,-0.0021,-1.9098,-3.5000,-0.0021
-77.1607,-21.0440,17.2460,0.0000,0.0686,-0.4800,-0.1800,0.6400,0.0000,0.1710,0.0460,0.0173,996,1492,1497,1502,1000,1000,1505,1000,1000,1374,1005,1111,1131,0.0814,-0.0538,-0.1105,0.0027,-0.0316,1.0018,0.1423,-0.2343,-0.1077,0.1997,0.2204,0.0082,0.0438,0.2204,0.0082,0.0438,0.3000,0.0600,0.0002,0,-1.9098,-3.5000,-0.0021,-1.9098,-3.5000,-0.0021
-77.1336,-21.0447,17.2355,0.0000,0.0686,-0.4800,-0.1800,0.6400,0.0000,0.1710,0.0460,0.0180,996,1492,1497,1502,1000,1000,1505,1000,1000,1374,1005,1112,1131,0.0735,-0.0664,-0.3694,0.0121,-0.0224,0.9983,0.1430,-0.2350,-0.1069,0.1990,0.2204,0.0082,0.0438,0.2204,0.0082,0.0438,0.3000,0.0600,0.0002,0,-1.9098,-3.5000,-0.0021,-1.9098,-3.5000,-0.0021
-77.1073,-21.0441,17.2261,-0.0686,0.1371,-0.4800,-0.1800,0.6400,0.0000,0.1710,0.0460,0.0166,998,1493,1497,1504,1000,1000,1505,1000,1000,1374,1005,1112,1131,-0.1073,-0.0453,0.0874,0.0019,-0.0169,1.0074,0.1416,-0.2336,-0.1083,0.2003,0.2204,0.0082,0.0438,0.2204,0.0082,0.0438,0.3000,0.0600,0.0002,0,-1.9098,-3.5000,-0.0021,-1.9098,-3.5000,-0.0021
-77.0812,-21.0409,17.2183,0.0000,-0.0000,-0.4800,-0.1800,0.6400,0.0000,0.1710,0.0460,0.0158,996,1492,1497,1502,1000,1000,1505,1000,1000,1374,1005,1112,1131,-0.1922,-0.1114,0.0769,0.0054,-0.0038,1.0070,0.1407,-0.2328,-0.1092,0.2012,0.2204,0.0082,0.0438,0.2204,0.0082,0.0438,0.3000,0.0600,0.0002,0,-1.9098,-3.5000,-0.0021,-1.9098,-3.5000,-0.0021
-77.0545,-21.0400,17.2089,-0.0686,-0.0686,-0.4800,-0.1800,0.6400,0.0000,0.1709,0.0460,0.0180,996,1492,1497,1502,1000,1000,1505,1000,1000,1374,1005,1112,1131,-0.1200,-0.0758,-0.3163,0.0104,-0.0060,1.0051,0.1428,-0.2348,-0.1069,0.1989,0.2204,0.0082,0.0438,0.2204,0.0082,0.0438,0.3000,0.0600,0.0002,0,-1.9098,-3.5000,-0.0021,-1.9098,-3.5000,-0.0021
-77.0281,-21.0400,17.1994,-0.1371,-0.0686,-0.4800,-0.1800,0.6400,0.0000,0.1708,0.0460,0.0170,996,1492,1497,1502,1000,1000,1505,1000,1000,1374,1005,1112,1131,-0.0125,-0.1615,-0.0345,0.0015,-0.0132,1.0017,0.1417,-0.2338,-0.1077,0.1998,0.2204,0.0082,0.0438,0.2204,0.0082,0.0438,0.3000,0.0600,0.0002,0,-1.9098,-3.5000,-0.0021,-1.9098,-3.5000,-0.0021
-77.0015,-21.0360,17.1912,0.0000,-0.0686,-0.4800,-0.1800,0.6400,0.0000,0.1708,0.0460,0.0161,996,1492,1497,1502,1000,1000,1505,1000,1000,1374,1005,1111,1131,-0.1140,-0.0597,0.2950,0.0008,-0.0162,1.0023,0.1408,-0.2328,-0.1087,0.2007,0.2204,0.0082,0.0438,0.2204,0.0082,0.0438,0.3000,0.0600,0.0002,0,-1.9098,-3.5000,-0.0021,-1.9098,-3.5000,-0.0021
-76.9751,-21.0328,17.1825,-0.0686,0.2057,-0.4800,-0.1800,0.6400,0.0000,0.1707,0.0460,0.0173,996,1492,1497,1502,1000,1000,1505,1000,1000,1374,1005,1111,1131,-0.0670,-0.0805,-0.0959,0.0059,-0.0133,1.0012,0.1419,-0.2339,-0.1074,0.1994,0.2204,0.0082,0.0438,0.2204,0.0082,0.0438,0.3000,0.0600,0.0002,0,-1.9098,-3.5000,-0.0021,-1.9098,-3.5000,-0.0021
-76.9483,-21.0328,17.1733,-0.0686,0.1371,-0.4800,-0.1800,0.6400,0.0000,0.1706,0.0460,0.0175,998,1493,1497,1504,1000,1000,1505,1000,1000,1374,1005,1112,1131,-0.1356,-0.0601,-0.1892,0.0050,-0.0104,1.0071,0.1421,-0.2341,-0.1072,0.1992,0.2204,0.0082,0.0438,0.2204,0.0082,0.0438,0.3000,0.0600,0.0002,0,-1.9098,-3.5000,-0.0021,-1.9098,-3.5000,-0.0021
-76.9221,-21.0299,17.1656,0.0000,-0.0000,-0.4800,-0.1800,0.6400,0.0000,0.1706,0.0460,0.0151,996,1492,1497,1502,1000,1000,1505,1000,1000,1374,1005,1111,1131,-0.1195,-0.1043,0.2701,0.0031,-0.0019,1.0073,0.1397,-0.2317,-0.1095,0.2015,0.2204,0.0082,0.0438,0.2204,0.0082,0.0438,0.3000,0.0600,0.0002,0,-1.9098,-3.5000,-0.0021,-1.9098,-3.5000,-0.0021
-76.8957,-21.0255,17.1573,0.0000,-0.0000,-0.4800,-0.1800,0.6400,0.0000,0.1705,0.0460,0.0170,996,1492,1497,1502,1000,1000,1505,1000,1000,1374,1005,1111,1131,-0.0244,-0.0781,0.0072,0.0044,-0.0107,1.0040,0.1415,-0.2334,-0.1075,0.1995,0.2204,0.0082,0.0438,0.2204,0.0082,0.0438,0.3000,0.0600,0.0002,0,-1.9098,-3.5000,-0.0021,-1.9098,-3.5000,-0.0021
-76.8689,-21.0239,17.1481,0.0000,0.2057,-0.4800,-0.1800,0.6400,0.0000,0.1704,0.0460,0.0172,996,1492,1497,1502,1000,1000,1505,1000,1000,1374,1005,1112,1131,-0.0136,-0.1521,-0.1108,0.0042,-0.0116,1.0056,0.1416,-0.2336,-0.1072,0.1992,0.2204,0.0082,0.0438,0.2204,0.0082,0.0438,0.3000,0.0600,0.0002,0,-1.9098,-3.5000,-0.0021,-1.9098,-3.5000,-0.0021
-76.8428,-21.0217,17.1404,-0.0686,0.0686,-0.4800,-0.1800,0.6400,0.0000,0.1704,0.0459,0.0163,996,1492,1497,1502,1000,1000,1505,1000,1000,1374,1005,1112,1131,-0.0147,0.0212,0.1689,0.0041,-0.0039,1.0119,0.1407,-0.2325,-0.1082,0.2000,0.2204,0.0082,0.0438,0.2204,0.0082,0.0438,0.3000,0.0600,0.0002,0,-1.9098,-3.5000,-0.0021,-1.9098,-3.5000,-0.0021
-76.8161,-21.0178,17.1321,-0.0686,-0.0000,-0.4800,-0.1800,0.6400,0.0000,0.1703,0.0459,0.0162,996,1492,1497,1502,1000,1000,1505,1000,1000,1374,1005,1112,1131,0.0916,0.0804,0.2121,0.0079,-0.0025,1.0129,0.1405,-0.2323,-0.1082,0.2000,0.2204,0.0082,0.0438,0.2204,0.0082,0.0438,0.3000,0.0600,0.0002,0,-1.9098,-3.5000,-0.0021,-1.9098,-3.5000,-0.0021
-76.7889,-21.0147,17.1227,0.0000,-0.0000,-0.4800,-0.1800,0.6400,0.0000,0.1702,0.0459,0.0166,998,1493,1497,1504,1000,1000,1505,1000,1000,1374,1005,1112,1131,0.0603,-0.0127,0.1158,0.0087,-0.0080,1.0109,0.1409,-0.2327,-0.1077,0.1996,0.2204,0.0082,0.0438,0.2204,0.0082,0.0438,0.3000,0.0600,0.0002,0,-1.9098,-3.5000,-0.0021,-1.9098,-3.5000,-0.0021
-76.7619,-21.0125,17.1143,0.0000,-0.1371,-0.4800,-0.1800,0.6400,0.0000,0.1702,0.0459,0.0154,996,1492,1497,1502,1000,1000,1505,1000,1000,1374,1005,1112,1131,0.0027,0.0153,0.1635,0.0067,-0.0133,0.9992,0.1397,-0.2315,-0.1088,0.2006,0.2204,0.0082,0.0438,0.2204,0.0082,0.0438,0.3000,0.0600,0.0002,0,-1.9098,-3.5000,-0.0021,-1.9098,-3.5000,-0.0021
-76.7355,-21.0104,17.1054,0.0686,-0.0000,-0.4800,-0.1800,0.6400,0.0000,0.1701,0.0460,0.0166,996,1492,1497,1502,1000,1000,1505,1000,1000,1374,1005,1112,1131,-0.0415,-0.2022,0.1266,0.0085,-0.0127,0.9878,0.1407,-0.2327,-0.1075,0.1995,0.2204,0.0082,0.0438,0.2204,0.0082,0.0438,0.3000,0.0600,0.0002,0,-1.9098,-3.5000,-0.0021,-1.9098,-3.5000,-0.0021
-76.7090,-21.0077,17.0969,0.0000,0.2743,-0.4800,-0.1800,0.6400,0.0000,0.1701,0.0460,0.0169,996,1492,1497,1502,1000,1000,1505,1000,1000,1374,1005,1112,1131,-0.1436,-0.2454,0.0504,0.0086,-0.0110,0.9955,0.1410,-0.2330,-0.1073,0.1993,0.2204,0.0082,0.0438,0.2204,0.0082,0.0438,0.3000,0.0600,0.0002,0,-1.9098,-3.5000,-0.0021,-1.9098,-3.5000,-0.0021
-76.6821,-21.0059,17.0879,0.0000,-0.0000,-0.4800,-0.1800,0.6400,0.0000,0.1700,0.0459,0.0174,996,1492,1497,1502,1000,1000,1505,1000,1000,1374,1005,1112,1131,-0.1016,0.0041,-0.1570,0.0111,-0.0082,1.0025,0.1416,-0.2334,-0.1067,0.1985,0.2204,0.0082,0.0438,0.2204,0.0082,0.0438,0.3000,0.0600,0.0002,0,-1.9098,-3.5000,-0.0021,-1.9098,-3.5000,-0.0021
-76.6551,-21.0051,17.0781,-0.0686,0.1371,-0.4800,-0.1800,0.6400,0.0000,0.1699,0.0459,0.0171,996,1492,1497,1502,1000,1000,1505,1000,1000,1374,1005,1112,1131,0.0295,-0.0240,-0.0809,0.0022,-0.0035,1.0144,0.1411,-0.2330,-0.1069,0.1987,0.2204,0.0082,0.0438,0.2204,0.0082,0.0438,0.3000,0.0600,0.0002,0,-1.9098,-3.5000,-0.0021,-1.9098,-3.5000,-0.0021
-76.6279,-21.0027,17.0685,0.0000,0.0686,-0.4800,-0.1800,0.6400,0.0000,0.1699,0.0459,0.0168,998,1493,1497,1504,1000,1000,1505,1000,1000,1374,1005,1111,1131,0.0620,0.0337,0.0143,0.0071,-0.0076,1.0042,0.1408,-0.2326,-0.1071,0.1989,0.2204,0.0082,0.0438,0.2204,0.0082,0.0438,0.3000,0.0600,0.0002,0,-1.9098,-3.5000,-0.0021,-1.9098,-3.5000,-0.0021
-76.6011,-21.0009,17.0595,0.0000,-0.0686,-0.4800,-0.1800,0.6400,0.0000,0.1698,0.0459,0.0162,996,1492,1497,1502,1000,1000,1505,1000,1000,1374,1005,1112,1131,-0.0247,-0.1018,-0.0899,0.0112,-0.0114,1.0033,0.1401,-0.2320,-0.1077,0.1996,0.2204,0.0082,0.0438,0.2204,0.0082,0.0438,0.3000,0.0600,0.0002,0,-1.9098,-3.5000,-0.0021,-1.9098,-3.5000,-0.0021
-76.5743,-20.9992,17.0500,-0.2057,-0.0000,-0.4800,-0.1800,0.6400,0.0000,0.1698,0.0459,0.0170,996,1492,1497,1502,1000,1000,1505,1000,1000,1374,1005,1112,1131,-0.1743,-0.0823,-0.0093,-0.0113,-0.0172,0.9987,0.1409,-0.2327,-0.1069,0.1988,0.2204,0.0082,0.0438,0.2204,0.0082,0.0438,0.3000,0.0600,0.0002,0,-1.9098,-3.5000,-0.0021,-1.9098,-3.5000,-0.0021
-76.5471,-21.0011,17.0401,-0.1371,0.1371,-0.4800,-0.1800,0.6400,0.0000,0.1697,0.0459,0.0172,996,1492,1497,1502,1000,1000,1505,1000,1000,1374,1005,1112,1131,-0.0447,-0.0963,-0.2824,0.0473,-0.0141,1.0138,0.1410,-0.2328,-0.1066,0.1985,0.2204,0.0082,0.0438,0.2204,0.0082,0.0438,0.3000,0.0600,0.0002,0,-1.9098,-3.5000,-0.0021,-1.9098,-3.5000,-0.0021
-76.5191,-21.0008,17.0306,-0.1371,-0.0686,-0.4800,-0.1800,0.6400,0.0000,0.1695,0.0460,0.0162,996,1492,1497,1502,1000,1000,1505,1000,1000,1374,1005,1112,1131,0.4212,-0.1511,0.2352,-0.0290,0.0142,1.0051,0.1397,-0.2316,-0.1073,0.1992,0.2204,0.0082,0.0438,0.2204,0.0082,0.0438,0.3000,0.0600,0.0002,0,-1.9098,-3.5000,-0.0021,-1.9098,-3.5000,-0.0021
-76.4891,-20.9943,17.0236,0.0000,0.1371,-0.4800,-0.1800,0.6400,0.0000,0.1692,0.0460,0.0151,996,1492,1497,1502,1000,1000,1505,1000,1000,1374,1005,1112,1131,0.9070,-0.3362,0.5866,0.0066,0.0114,1.0165,0.1382,-0.2303,-0.1081,0.2001,0.2204,0.0082,0.0438,0.2204,0.0082,0.0438,0.3000,0.0600,0.0002,0,-1.9098,-3.5000,-0.0021,-1.9098,-3.5000,-0.0021
-76.4517,-20.9864,17.0180,0.0000,0.0686,-0.4800,-0.1800,0.6400,0.0000,0.1688,0.0460,0.0151,998,1493,1497,1504,2008,1000,1505,1000,1000,1374,1005,1112,1131,1.4870,-0.2423,0.5974,0.0358,-0.0100,0.9939,0.1379,-0.2299,-0.1078,0.1998,0.2204,0.0082,0.0438,0.2204,0.0082,0.0438,0.3000,0.0600,0.0002,0,-1.9098,-3.5000,-0.0021,-1.9098,-3.5000,-0.0021
-76.4109,-20.9784,17.0135,0.0000,-0.0000,-0.4800,-0.1800,0.6400,0.0000,0.1688,0.0458,0.0148,996,1492,1497,1502,2008,1000,1505,1000,1000,1374,1005,1112,1131,1.4560,0.0497,0.3700,0.0025,-0.0420,0.9707,0.1378,-0.2294,-0.1081,0.1997,0.2204,0.0082,0.0438,0.2204,0.0082,0.0438,0.3000,0.0600,0.0002,0,-1.9098,-3.5000,-0.0021,-1.9098,-3.5000,-0.0021
-76.3709,-20.9740,17.0075,0.0686,-0.0000,-0.4800,-0.1800,0.6400,0.0000,0.1693,0.0460,0.0164,996,1492,1497,1502,2008,1000,1505,1000,1000,1374,1005,1112,1131,0.0964,-0.4951,0.1696,-0.0011,0.0033,0.9852,0.1396,-0.2317,-0.1068,0.1989,0.2204,0.0082,0.0438,0.2204,0.0082,0.0438,0.3000,0.0600,0.0002,0,-1.9098,-3.5000,-0.0021,-1.9098,-3.5000,-0.0021
-76.3499,-20.9687,16.9987,0.0000,0.0686,-0.4800,-0.1800,0.6400,0.0000,0.1698,0.0458,0.0159,996,1492,1497,1502,2008,1000,1505,1000,1000,1374,1005,1112,1131,-1.2367,0.1059,0.2688,0.0125,-0.0026,1.0163,0.1400,-0.2315,-0.1081,0.1996,0.2204,0.0082,0.0438,0.2204,0.0082,0.0438,0.3000,0.0600,0.0002,0,-1.9098,-3.5000,-0.0021,-1.9098,-3.5000,-0.0021
