roll_imu,pitch_imu,yaw_imu,alpha,beta,roll_des,pitch_des,yaw_des,throttle_des,roll_pid,pitch_pid,yaw_pid,radio_ch1,radio_ch2,radio_ch3,radio_ch4,radio_ch5,radio_ch6,radio_ch7,radio_ch8,radio_ch9,radio_ch10,radio_ch11,radio_ch12,radio_ch13,GyroX,GyroY,GyroZ,AccX,AccY,AccZ,s1_command,s2_command,s3_command,s4_command,kp_roll,ki_roll,kd_roll,kp_pitch,ki_pitch,kd_pitch,kp_yaw,ki_yaw,kd_yaw,failsafeTriggered,kp_alphaRoll,ki_alphaRoll,kd_alphaRoll,kp_betaPitch,ki_betaPitch,kd_betaPitch
0.0000,0.0000,0.0000,8.6057,-2.0914,0.0000,0.0000,0.0000,0.0000,0.0000,0.0000,0.0000,998,1499,1501,1504,1000,1000,1505,1000,1000,1979,1205,2008,1103,0.0000,0.0000,0.0000,0.0000,0.0000,0.0000,0.0000,0.0000,0.0000,0.0000,0.2204,0.0082,0.0438,0.2204,0.0082,0.0438,0.3000,0.0600,0.0002,0,-0.3000,-100.0000,-0.0010,-0.3000,-100.0000,-0.0010
3.6300,17.2001,0.4914,0.0000,0.1371,-0.1800,0.0000,0.6400,0.0000,-0.0096,-0.0379,0.0043,996,1497,1500,1502,1000,1000,1505,1000,1000,1979,1205,2008,1103,0.0774,-0.0164,-0.0819,-0.0021,-0.0032,0.9562,0.0325,0.0433,-0.0240,-0.0518,0.2204,0.0082,0.0438,0.2204,0.0082,0.0438,0.3000,0.0600,0.0002,0,-3.5685,-143.5000,-0.0071,-3.5685,-143.5000,-0.0071
3.6201,17.1547,0.4876,0.0000,-0.0000,-0.1800,0.0000,0.6400,0.0000,-0.0096,-0.0378,0.0050,996,1497,1500,1502,1000,1000,1505,1000,1000,1979,1205,2008,1103,0.1208,-0.1053,-0.0221,0.0022,-0.0041,1.0011,0.0332,0.0424,-0.0231,-0.0524,0.2204,0.0082,0.0438,0.2204,0.0082,0.0438,0.3000,0.0600,0.0002,0,-3.5685,-143.5000,-0.0071,-3.5685,-143.5000,-0.0071
3.6102,17.1087,0.4838,0.0000,0.1371,-0.1800,0.0000,0.6400,0.0000,-0.0096,-0.0377,0.0051,996,1497,1500,1502,1000,1000,1505,1000,1000,1979,1205,2008,1103,0.0640,-0.1106,-0.0635,0.0007,-0.0027,0.9989,0.0332,0.0421,-0.0230,-0.0524,0.2204,0.0082,0.0438,0.2204,0.0082,0.0438,0.3000,0.0600,0.0002,0,-3.5685,-143.5000,-0.0071,-3.5685,-143.5000,-0.0071
3.6003,17.0636,0.4801,0.0000,-0.0000,-0.1800,0.0000,0.6400,0.0000,-0.0096,-0.0376,0.0053,996,1497,1500,1502,1000,1000,1505,1000,1000,1979,1205,2008,1103,0.0622,-0.0635,-0.1007,0.0018,-0.0019,1.0024,0.0333,0.0418,-0.0227,-0.0524,0.2204,0.0082,0.0438,0.2204,0.0082,0.0438,0.3000,0.0600,0.0002,0,-3.5685,-143.5000,-0.0071,-3.5685,-143.5000,-0.0071
3.5894,17.0177,0.4761,0.0000,-0.0686,-0.1800,0.0000,0.6400,0.0000,-0.0095,-0.0375,0.0051,996,1497,1500,1502,1000,1000,1505,1000,1000,1979,1205,2008,1103,-0.0295,-0.0508,-0.0272,-0.0011,-0.0029,1.0011,0.0330,0.0419,-0.0229,-0.0520,0.2204,0.0082,0.0438,0.2204,0.0082,0.0438,0.3000,0.0600,0.0002,0,-3.5685,-143.5000,-0.0071,-3.5685,-143.5000,-0.0071
3.5783,16.9726,0.4729,0.0000,0.0686,-0.1800,0.0000,0.6400,0.0000,-0.0095,-0.0374,0.0048,998,1499,1501,1504,1000,1000,1505,1000,1000,1979,1205,2008,1103,-0.0529,0.0051,0.0677,-0.0017,-0.0042,1.0020,0.0327,0.0421,-0.0232,-0.0516,0.2204,0.0082,0.0438,0.2204,0.0082,0.0438,0.3000,0.0600,0.0002,0,-3.5685,-143.5000,-0.0071,-3.5685,-143.5000,-0.0071
3.5667,16.9271,0.4701,0.0000,0.0686,-0.1800,0.0000,0.6400,0.0000,-0.0094,-0.0373,0.0039,996,1497,1500,1502,1000,1000,1505,1000,1000,1979,1205,2008,1103,-0.0976,-0.0954,0.0350,0.0005,-0.0026,1.0019,0.0317,0.0428,-0.0239,-0.0506,0.2204,0.0082,0.0438,0.2204,0.0082,0.0438,0.3000,0.0600,0.0002,0,-3.5685,-143.5000,-0.0071,-3.5685,-143.5000,-0.0071
3.5554,16.8810,0.4678,0.0000,0.2057,-0.1800,0.0000,0.6400,0.0000,-0.0094,-0.0372,0.0048,996,1497,1500,1502,1000,1000,1505,1000,1000,1979,1205,2008,1103,-0.1176,-0.0464,0.0577,-0.0004,-0.0020,0.9991,0.0326,0.0417,-0.0230,-0.0514,0.2204,0.0082,0.0438,0.2204,0.0082,0.0438,0.3000,0.0600,0.0002,0,-3.5685,-143.5000,-0.0071,-3.5685,-143.5000,-0.0071
3.5437,16.8358,0.4654,0.0000,-0.0686,-0.1800,0.0000,0.6400,0.0000,-0.0094,-0.0371,0.0047,996,1497,1500,1502,1000,1000,1505,1000,1000,1979,1205,2008,1103,-0.1078,-0.0680,0.0810,0.0001,-0.0054,1.0001,0.0324,0.0418,-0.0230,-0.0511,0.2204,0.0082,0.0438,0.2204,0.0082,0.0438,0.3000,0.0600,0.0002,0,-3.5685,-143.5000,-0.0071,-3.5685,-143.5000,-0.0071
3.5322,16.7904,0.4630,0.0000,0.0686,-0.1800,0.0000,0.6400,0.0000,-0.0094,-0.0370,0.0045,996,1497,1500,1502,1000,1000,1505,1000,1000,1979,1205,2008,1103,-0.0753,-0.0514,0.1351,0.0009,-0.0026,1.0006,0.0321,0.0418,-0.0231,-0.0508,0.2204,0.0082,0.0438,0.2204,0.0082,0.0438,0.3000,0.0600,0.0002,0,-3.5685,-143.5000,-0.0071,-3.5685,-143.5000,-0.0071
3.5217,16.7448,0.4621,0.0000,0.0686,-0.1800,0.0000,0.6400,0.0000,-0.0093,-0.0369,0.0047,996,1497,1500,1502,1000,1000,1505,1000,1000,1979,1205,2008,1103,-0.0990,-0.0485,0.1093,0.0022,-0.0009,1.0051,0.0323,0.0415,-0.0229,-0.0509,0.2204,0.0082,0.0438,0.2204,0.0082,0.0438,0.3000,0.0600,0.0002,0,-3.5685,-143.5000,-0.0071,-3.5685,-143.5000,-0.0071
3.5109,16.6988,0.4602,-0.1371,-0.2057,-0.1800,0.0000,0.6400,0.0000,-0.0093,-0.0368,0.0047,998,1499,1501,1504,1000,1000,1505,1000,1000,1979,1205,2008,1103,-0.0528,-0.1196,0.1206,0.0006,-0.0021,1.0022,0.0321,0.0414,-0.0227,-0.0508,0.2204,0.0082,0.0438,0.2204,0.0082,0.0438,0.3000,0.0600,0.0002,0,-3.5685,-143.5000,-0.0071,-3.5685,-143.5000,-0.0071
3.5005,16.6527,0.4586,0.0000,-0.0000,-0.1800,0.0000,0.6400,0.0000,-0.0093,-0.0367,0.0037,996,1497,1500,1502,1000,1000,1505,1000,1000,1979,1205,2008,1103,-0.0705,-0.0655,0.1178,0.0030,-0.0031,0.9966,0.0311,0.0423,-0.0237,-0.0497,0.2204,0.0082,0.0438,0.2204,0.0082,0.0438,0.3000,0.0600,0.0002,0,-3.5685,-143.5000,-0.0071,-3.5685,-143.5000,-0.0071
3.4900,16.6066,0.4562,-0.1371,-0.2057,-0.1800,0.0000,0.6400,0.0000,-0.0093,-0.0366,0.0049,996,1497,1500,1502,1000,1000,1505,1000,1000,1979,1205,2008,1103,0.0280,-0.0934,0.0293,-0.0013,-0.0043,1.0000,0.0322,0.0410,-0.0223,-0.0508,0.2204,0.0082,0.0438,0.2204,0.0082,0.0438,0.3000,0.0600,0.0002,0,-3.5685,-143.5000,-0.0071,-3.5685,-143.5000,-0.0071
3.4809,16.5604,0.4539,0.0000,0.0686,-0.1800,0.0000,0.6400,0.0000,-0.0094,-0.0365,0.0048,996,1497,1500,1502,1000,1000,1505,1000,1000,1979,1205,2008,1103,0.1280,-0.0635,0.0510,0.0001,0.0008,0.9993,0.0320,0.0410,-0.0223,-0.0507,0.2204,0.0082,0.0438,0.2204,0.0082,0.0438,0.3000,0.0600,0.0002,0,-3.5685,-143.5000,-0.0071,-3.5685,-143.5000,-0.0071
3.4717,16.5133,0.4515,0.0000,-0.0686,-0.1800,0.0000,0.6400,0.0000,-0.0093,-0.0363,0.0051,996,1497,1500,1502,1000,1000,1505,1000,1000,1979,1205,2008,1103,0.1240,-0.1712,0.0102,0.0009,-0.0022,1.0004,0.0320,0.0406,-0.0219,-0.0507,0.2204,0.0082,0.0438,0.2204,0.0082,0.0438,0.3000,0.0600,0.0002,0,-3.5685,-143.5000,-0.0071,-3.5685,-143.5000,-0.0071
3.4630,16.4666,0.4487,-0.0686,0.1371,-0.1800,0.0000,0.6400,0.0000,-0.0093,-0.0362,0.0050,996,1497,1500,1502,1000,1000,1505,1000,1000,1979,1205,2008,1103,0.0448,-0.1746,0.0056,0.0013,0.0010,0.9986,0.0320,0.0405,-0.0219,-0.0505,0.2204,0.0082,0.0438,0.2204,0.0082,0.0438,0.3000,0.0600,0.0002,0,-3.5685,-143.5000,-0.0071,-3.5685,-143.5000,-0.0071
3.4531,16.4199,0.4460,0.0000,0.0686,-0.1800,0.0000,0.6400,0.0000,-0.0093,-0.0361,0.0050,998,1499,1501,1504,1000,1000,1505,1000,1000,1979,1205,2008,1103,0.0545,-0.1445,0.0095,-0.0016,-0.0038,1.0027,0.0318,0.0404,-0.0219,-0.0504,0.2204,0.0082,0.0438,0.2204,0.0082,0.0438,0.3000,0.0600,0.0002,0,-3.5685,-143.5000,-0.0071,-3.5685,-143.5000,-0.0071
3.4430,16.3739,0.4426,0.0000,0.1371,-0.1800,0.0000,0.6400,0.0000,-0.0092,-0.0361,0.0040,996,1497,1500,1502,1000,1000,1505,1000,1000,1979,1205,2008,1103,0.0215,-0.0701,-0.0100,0.0013,-0.0044,1.0049,0.0309,0.0412,-0.0228,-0.0493,0.2204,0.0082,0.0438,0.2204,0.0082,0.0438,0.3000,0.0600,0.0002,0,-3.5685,-143.5000,-0.0071,-3.5685,-143.5000,-0.0071
3.4330,16.3279,0.4393,0.0000,-0.0000,-0.1800,0.0000,0.6400,0.0000,-0.0092,-0.0359,0.0052,996,1497,1500,1502,1000,1000,1505,1000,1000,1979,1205,2008,1103,0.0009,-0.1232,-0.0617,0.0014,-0.0028,1.0039,0.0320,0.0399,-0.0215,-0.0504,0.2204,0.0082,0.0438,0.2204,0.0082,0.0438,0.3000,0.0600,0.0002,0,-3.5685,-143.5000,-0.0071,-3.5685,-143.5000,-0.0071
3.4218,16.2816,0.4358,0.0000,0.2057,-0.1800,0.0000,0.6400,0.0000,-0.0092,-0.0358,0.0052,996,1497,1500,1502,1000,1000,1505,1000,1000,1979,1205,2008,1103,-0.0764,-0.1262,-0.0376,0.0003,-0.0031,0.9994,0.0319,0.0398,-0.0215,-0.0502,0.2204,0.0082,0.0438,0.2204,0.0082,0.0438,0.3000,0.0600,0.0002,0,-3.5685,-143.5000,-0.0071,-3.5685,-143.5000,-0.0071
3.4110,16.2356,0.4322,0.0686,0.0686,-0.1800,0.0000,0.6400,0.0000,-0.0091,-0.0358,0.0051,996,1497,1500,1502,1000,1000,1505,1000,1000,1979,1205,2008,1103,-0.0582,-0.0671,-0.0242,-0.0010,-0.0013,0.9984,0.0317,0.0398,-0.0215,-0.0500,0.2204,0.0082,0.0438,0.2204,0.0082,0.0438,0.3000,0.0600,0.0002,0,-3.5685,-143.5000,-0.0071,-3.5685,-143.5000,-0.0071
3.3998,16.1898,0.4287,0.0000,0.0686,-0.1800,0.0000,0.6400,0.0000,-0.0091,-0.0357,0.0051,996,1497,1500,1502,1000,1000,1505,1000,1000,1979,1205,2008,1103,-0.0401,-0.0536,-0.0309,-0.0020,-0.0034,1.0051,0.0317,0.0397,-0.0214,-0.0499,0.2204,0.0082,0.0438,0.2204,0.0082,0.0438,0.3000,0.0600,0.0002,0,-3.5685,-143.5000,-0.0071,-3.5685,-143.5000,-0.0071
3.3886,16.1439,0.4255,0.0000,-0.0686,-0.1800,0.0000,0.6400,0.0000,-0.0091,-0.0355,0.0052,998,1499,1501,1504,1000,1000,1505,1000,1000,1979,1205,2008,1103,-0.0578,-0.0864,-0.0347,0.0005,0.0000,0.9983,0.0316,0.0395,-0.0213,-0.0498,0.2204,0.0082,0.0438,0.2204,0.0082,0.0438,0.3000,0.0600,0.0002,0,-3.5685,-143.5000,-0.0071,-3.5685,-143.5000,-0.0071
3.3768,16.0978,0.4229,-0.0686,0.0686,-0.1800,0.0000,0.6400,0.0000,-0.0090,-0.0354,0.0039,996,1497,1500,1502,1000,1000,1505,1000,1000,1979,1205,2008,1103,-0.1823,-0.0876,0.0713,0.0006,-0.0021,0.9998,0.0303,0.0406,-0.0225,-0.0483,0.2204,0.0082,0.0438,0.2204,0.0082,0.0438,0.3000,0.0600,0.0002,0,-3.5685,-143.5000,-0.0071,-3.5685,-143.5000,-0.0071
3.3641,16.0521,0.4202,0.0000,-0.0686,-0.1800,0.0000,0.6400,0.0000,-0.0090,-0.0354,0.0050,996,1497,1500,1502,1000,1000,1505,1000,1000,1979,1205,2008,1103,-0.1496,0.0139,0.0121,0.0003,-0.0013,1.0000,0.0314,0.0394,-0.0214,-0.0494,0.2204,0.0082,0.0438,0.2204,0.0082,0.0438,0.3000,0.0600,0.0002,0,-3.5685,-143.5000,-0.0071,-3.5685,-143.5000,-0.0071
3.3526,16.0065,0.4180,0.0686,0.0686,-0.1800,0.0000,0.6400,0.0000,-0.0090,-0.0352,0.0049,996,1497,1500,1502,1000,1000,1505,1000,1000,1979,1205,2008,1103,-0.1496,-0.0874,0.0407,0.0017,-0.0017,0.9991,0.0312,0.0393,-0.0213,-0.0492,0.2204,0.0082,0.0438,0.2204,0.0082,0.0438,0.3000,0.0600,0.0002,0,-3.5685,-143.5000,-0.0071,-3.5685,-143.5000,-0.0071
3.3417,15.9605,0.4155,0.0000,0.1371,-0.1800,0.0000,0.6400,0.0000,-0.0090,-0.0352,0.0050,996,1497,1500,1502,1000,1000,1505,1000,1000,1979,1205,2008,1103,0.0126,-0.0585,0.0075,-0.0002,-0.0006,1.0071,0.0311,0.0392,-0.0211,-0.0492,0.2204,0.0082,0.0438,0.2204,0.0082,0.0438,0.3000,0.0600,0.0002,0,-3.5685,-143.5000,-0.0071,-3.5685,-143.5000,-0.0071
3.3318,15.9146,0.4130,0.0000,-0.0686,-0.1800,0.0000,0.6400,0.0000,-0.0090,-0.0350,0.0050,996,1497,1500,1502,1000,1000,1505,1000,1000,1979,1205,2008,1103,0.0030,-0.0628,0.0189,-0.0000,-0.0001,1.0020,0.0310,0.0391,-0.0210,-0.0491,0.2204,0.0082,0.0438,0.2204,0.0082,0.0438,0.3000,0.0600,0.0002,0,-3.5685,-143.5000,-0.0071,-3.5685,-143.5000,-0.0071
3.3219,15.8686,0.4106,0.0000,0.2057,-0.1800,0.0000,0.6400,0.0000,-0.0090,-0.0349,0.0051,998,1499,1501,1504,1000,1000,1505,1000,1000,1979,1205,2008,1104,0.0546,-0.1314,-0.0039,-0.0030,-0.0015,1.0023,0.0310,0.0388,-0.0208,-0.0491,0.2204,0.0082,0.0438,0.2204,0.0082,0.0438,0.3000,0.0600,0.0002,0,-3.5685,-143.5000,-0.0071,-3.5685,-143.5000,-0.0071
3.3124,15.8223,0.4082,0.0000,-0.1371,-0.1800,0.0000,0.6400,0.0000,-0.0090,-0.0348,0.0040,996,1497,1500,1502,1000,1000,1505,1000,1000,1979,1205,2008,1104,0.0536,-0.0670,0.0309,0.0025,-0.0019,1.0003,0.0299,0.0398,-0.0218,-0.0479,0.2204,0.0082,0.0438,0.2204,0.0082,0.0438,0.3000,0.0600,0.0002,0,-3.5685,-143.5000,-0.0071,-3.5685,-143.5000,-0.0071
3.3030,15.7758,0.4061,0.0000,0.1371,-0.1800,0.0000,0.6400,0.0000,-0.0090,-0.0347,0.0049,996,1497,1500,1502,1000,1000,1505,1000,1000,1979,1205,2008,1103,0.0467,-0.1222,0.0835,0.0041,-0.0020,1.0066,0.0307,0.0388,-0.0208,-0.0486,0.2204,0.0082,0.0438,0.2204,0.0082,0.0438,0.3000,0.0600,0.0002,0,-3.5685,-143.5000,-0.0071,-3.5685,-143.5000,-0.0071
3.2935,15.7293,0.4039,-0.0686,-0.0686,-0.1800,0.0000,0.6400,0.0000,-0.0090,-0.0346,0.0048,996,1497,1500,1502,1000,1000,1505,1000,1000,1979,1205,2008,1103,0.0954,-0.0954,0.0768,-0.0024,-0.0018,0.9990,0.0305,0.0388,-0.0208,-0.0485,0.2204,0.0082,0.0438,0.2204,0.0082,0.0438,0.3000,0.0600,0.0002,0,-3.5685,-143.5000,-0.0071,-3.5685,-143.5000,-0.0071
3.2843,15.6828,0.4017,-0.0686,-0.1371,-0.1800,0.0000,0.6400,0.0000,-0.0090,-0.0345,0.0052,996,1497,1500,1502,1000,1000,1505,1000,1000,1979,1205,2008,1103,0.1075,-0.0994,-0.0048,0.0013,-0.0039,1.0021,0.0307,0.0383,-0.0204,-0.0487,0.2204,0.0082,0.0438,0.2204,0.0082,0.0438,0.3000,0.0600,0.0002,0,-3.5685,-143.5000,-0.0071,-3.5685,-143.5000,-0.0071
3.2747,15.6367,0.3991,0.0000,0.0686,-0.1800,0.0000,0.6400,0.0000,-0.0089,-0.0344,0.0049,996,1497,1500,1502,1000,1000,1505,1000,1000,1979,1205,2008,1103,0.0596,-0.0421,0.0670,0.0014,-0.0032,1.0052,0.0304,0.0385,-0.0206,-0.0483,0.2204,0.0082,0.0438,0.2204,0.0082,0.0438,0.3000,0.0600,0.0002,0,-3.5685,-143.5000,-0.0071,-3.5685,-143.5000,-0.0071
3.2655,15.5904,0.3968,0.0686,-0.0000,-0.1800,0.0000,0.6400,0.0000,-0.0089,-0.0343,0.0052,998,1499,1501,1504,1000,1000,1505,1000,1000,1979,1205,2008,1103,0.1036,-0.1579,-0.0189,-0.0008,-0.0022,1.0010,0.0306,0.0380,-0.0202,-0.0484,0.2204,0.0082,0.0438,0.2204,0.0082,0.0438,0.3000,0.0600,0.0002,0,-3.5685,-143.5000,-0.0071,-3.5685,-143.5000,-0.0071
3.2556,15.5441,0.3941,0.0000,-0.0000,-0.1800,0.0000,0.6400,0.0000,-0.0088,-0.0342,0.0039,996,1497,1500,1502,1000,1000,1505,1000,1000,1979,1205,2008,1103,-0.0748,-0.0680,0.0598,0.0007,0.0008,1.0007,0.0293,0.0392,-0.0215,-0.0470,0.2204,0.0082,0.0438,0.2204,0.0082,0.0438,0.3000,0.0600,0.0002,0,-3.5685,-143.5000,-0.0071,-3.5685,-143.5000,-0.0071
3.2445,15.4978,0.3910,0.0686,0.2057,-0.1800,0.0000,0.6400,0.0000,-0.0088,-0.0341,0.0051,996,1497,1500,1502,1000,1000,1505,1000,1000,1979,1205,2008,1103,-0.0431,-0.0775,-0.0001,0.0017,-0.0040,0.9997,0.0304,0.0379,-0.0202,-0.0480,0.2204,0.0082,0.0438,0.2204,0.0082,0.0438,0.3000,0.0600,0.0002,0,-3.5685,-143.5000,-0.0071,-3.5685,-143.5000,-0.0071
3.2335,15.4517,0.3879,0.0686,-0.0000,-0.1800,0.0000,0.6400,0.0000,-0.0088,-0.0340,0.0051,996,1497,1500,1502,1000,1000,1505,1000,1000,1979,1205,2008,1104,-0.0080,-0.1134,-0.0266,0.0001,-0.0037,1.0012,0.0303,0.0377,-0.0201,-0.0480,0.2204,0.0082,0.0438,0.2204,0.0082,0.0438,0.3000,0.0600,0.0002,0,-3.5685,-143.5000,-0.0071,-3.5685,-143.5000,-0.0071
3.2225,15.4059,0.3849,0.0686,0.0686,-0.1800,0.0000,0.6400,0.0000,-0.0088,-0.0339,0.0052,996,1497,1500,1502,1000,1000,1505,1000,1000,1979,1205,2008,1104,-0.0428,-0.0494,-0.0275,0.0016,-0.0048,0.9976,0.0303,0.0375,-0.0200,-0.0479,0.2204,0.0082,0.0438,0.2204,0.0082,0.0438,0.3000,0.0600,0.0002,0,-3.5685,-143.5000,-0.0071,-3.5685,-143.5000,-0.0071
3.2106,15.3604,0.3815,0.0000,0.1371,-0.1800,0.0000,0.6400,0.0000,-0.0087,-0.0339,0.0052,996,1497,1500,1502,1000,1000,1505,1000,1000,1979,1205,2008,1104,-0.0857,-0.0078,-0.0565,-0.0001,-0.0043,1.0023,0.0303,0.0374,-0.0199,-0.0478,0.2204,0.0082,0.0438,0.2204,0.0082,0.0438,0.3000,0.0600,0.0002,0,-3.5685,-143.5000,-0.0071,-3.5685,-143.5000,-0.0071
3.1992,15.3150,0.3791,0.0000,-0.0686,-0.1800,0.0000,0.6400,0.0000,-0.0087,-0.0337,0.0050,998,1499,1501,1504,1000,1000,1505,1000,1000,1979,1205,2008,1104,-0.0880,-0.0190,0.0591,-0.0012,-0.0036,1.0008,0.0300,0.0375,-0.0201,-0.0474,0.2204,0.0082,0.0438,0.2204,0.0082,0.0438,0.3000,0.0600,0.0002,0,-3.5685,-143.5000,-0.0071,-3.5685,-143.5000,-0.0071
3.1876,15.2693,0.3761,0.0000,-0.0686,-0.1800,0.0000,0.6400,0.0000,-0.0087,-0.0336,0.0044,996,1497,1500,1502,1000,1000,1505,1000,1000,1979,1205,2008,1104,-0.1298,-0.0754,-0.0882,0.0013,-0.0007,0.9977,0.0294,0.0379,-0.0205,-0.0467,0.2204,0.0082,0.0438,0.2204,0.0082,0.0438,0.3000,0.0600,0.0002,0,-3.5685,-143.5000,-0.0071,-3.5685,-143.5000,-0.0071
3.1765,15.2229,0.3729,0.0000,0.1371,-0.1800,0.0000,0.6400,0.0000,-0.0087,-0.0335,0.0052,996,1497,1500,1502,1000,1000,1505,1000,1000,1979,1205,2008,1103,0.0026,-0.0661,-0.0298,0.0013,-0.0035,0.9970,0.0300,0.0370,-0.0196,-0.0475,0.2204,0.0082,0.0438,0.2204,0.0082,0.0438,0.3000,0.0600,0.0002,0,-3.5685,-143.5000,-0.0071,-3.5685,-143.5000,-0.0071
3.1662,15.1765,0.3702,0.0000,-0.0686,-0.1800,0.0000,0.6400,0.0000,-0.0087,-0.0334,0.0050,996,1497,1500,1502,1000,1000,1505,1000,1000,1979,1205,2008,1103,-0.0028,-0.0840,0.0287,0.0003,0.0011,1.0018,0.0297,0.0371,-0.0197,-0.0471,0.2204,0.0082,0.0438,0.2204,0.0082,0.0438,0.3000,0.0600,0.0002,0,-3.5685,-143.5000,-0.0071,-3.5685,-143.5000,-0.0071
3.1559,15.1308,0.3677,0.0000,-0.0686,-0.1800,0.0000,0.6400,0.0000,-0.0087,-0.0333,0.0052,996,1497,1500,1502,1000,1000,1505,1000,1000,1979,1205,2008,1103,0.0080,-0.0195,-0.0280,0.0013,-0.0011,1.0019,0.0299,0.0368,-0.0194,-0.0472,0.2204,0.0082,0.0438,0.2204,0.0082,0.0438,0.3000,0.0600,0.0002,0,-3.5685,-143.5000,-0.0071,-3.5685,-143.5000,-0.0071
3.1457,15.0851,0.3649,0.0000,0.1371,-0.1800,0.0000,0.6400,0.0000,-0.0087,-0.0332,0.0052,996,1497,1500,1502,1000,1000,1505,1000,1000,1979,1205,2008,1103,0.0187,-0.1453,-0.0283,0.0004,-0.0024,0.9950,0.0297,0.0366,-0.0193,-0.0470,0.2204,0.0082,0.0438,0.2204,0.0082,0.0438,0.3000,0.0600,0.0002,0,-3.5685,-143.5000,-0.0071,-3.5685,-143.5000,-0.0071
3.1358,15.0380,0.3621,0.0000,0.2057,-0.1800,0.0000,0.6400,0.0000,-0.0087,-0.0331,0.0049,998,1499,1501,1504,1000,1000,1505,1000,1000,1979,1205,2008,1103,0.0633,-0.1789,0.0527,0.0026,-0.0039,1.0000,0.0293,0.0368,-0.0195,-0.0467,0.2204,0.0082,0.0438,0.2204,0.0082,0.0438,0.3000,0.0600,0.0002,0,-3.5685,-143.5000,-0.0071,-3.5685,-143.5000,-0.0071
3.1260,14.9918,0.3599,0.0686,0.0686,-0.1800,0.0000,0.6400,0.0000,-0.0086,-0.0330,0.0040,996,1497,1500,1502,1000,1000,1505,1000,1000,1979,1205,2008,1103,0.0311,-0.1157,0.0546,0.0035,-0.0038,0.9994,0.0284,0.0376,-0.0204,-0.0456,0.2204,0.0082,0.0438,0.2204,0.0082,0.0438,0.3000,0.0600,0.0002,0,-3.5685,-143.5000,-0.0071,-3.5685,-143.5000,-0.0071
3.1166,14.9456,0.3578,0.0000,0.1371,-0.1800,0.0000,0.6400,0.0000,-0.0086,-0.0329,0.0050,996,1497,1500,1502,1000,1000,1505,1000,1000,1979,1205,2008,1103,0.0721,-0.0664,0.0441,0.0016,-0.0020,0.9981,0.0293,0.0365,-0.0193,-0.0465,0.2204,0.0082,0.0438,0.2204,0.0082,0.0438,0.3000,0.0600,0.0002,0,-3.5685,-143.5000,-0.0071,-3.5685,-143.5000,-0.0071
3.1072,14.8989,0.3559,0.0000,-0.0686,-0.1800,0.0000,0.6400,0.0000,-0.0086,-0.0328,0.0050,996,1497,1500,1502,1000,1000,1505,1000,1000,1979,1205,2008,1103,0.0730,-0.0674,0.0746,0.0007,-0.0029,1.0000,0.0292,0.0364,-0.0192,-0.0464,0.2204,0.0082,0.0438,0.2204,0.0082,0.0438,0.3000,0.0600,0.0002,0,-3.5685,-143.5000,-0.0071,-3.5685,-143.5000,-0.0071
3.0976,14.8531,0.3543,-0.1371,-0.2057,-0.1800,0.0000,0.6400,0.0000,-0.0086,-0.0327,0.0047,996,1497,1500,1502,1000,1000,1505,1000,1000,1979,1205,2008,1103,0.0163,-0.1056,0.1766,0.0012,-0.0037,0.9978,0.0288,0.0366,-0.0195,-0.0459,0.2204,0.0082,0.0438,0.2204,0.0082,0.0438,0.3000,0.0600,0.0002,0,-3.5685,-143.5000,-0.0071,-3.5685,-143.5000,-0.0071
3.0874,14.8061,0.3526,0.0000,0.2057,-0.1800,0.0000,0.6400,0.0000,-0.0085,-0.0326,0.0049,996,1497,1500,1502,1000,1000,1505,1000,1000,1979,1205,2008,1103,-0.0248,-0.1602,0.0832,0.0001,-0.0017,0.9978,0.0290,0.0362,-0.0191,-0.0460,0.2204,0.0082,0.0438,0.2204,0.0082,0.0438,0.3000,0.0600,0.0002,0,-3.5685,-143.5000,-0.0071,-3.5685,-143.5000,-0.0071
3.0773,14.7598,0.3510,-0.2057,-0.1371,-0.1800,0.0000,0.6400,0.0000,-0.0085,-0.0325,0.0048,998,1499,1501,1504,1000,1000,1505,1000,1000,1979,1205,2008,1103,-0.0350,-0.1038,0.1045,-0.0019,-0.0005,1.0083,0.0288,0.0362,-0.0192,-0.0458,0.2204,0.0082,0.0438,0.2204,0.0082,0.0438,0.3000,0.0600,0.0002,0,-3.5685,-143.5000,-0.0071,-3.5685,-143.5000,-0.0071
3.0666,14.7135,0.3489,0.0000,0.0686,-0.1800,0.0000,0.6400,0.0000,-0.0084,-0.0324,0.0042,996,1497,1500,1502,1000,1000,1505,1000,1000,1979,1205,2008,1103,-0.1198,-0.0921,-0.0153,-0.0000,-0.0019,1.0042,0.0282,0.0366,-0.0197,-0.0451,0.2204,0.0082,0.0438,0.2204,0.0082,0.0438,0.3000,0.0600,0.0002,0,-3.5685,-143.5000,-0.0071,-3.5685,-143.5000,-0.0071
3.0552,14.6674,0.3465,-0.0686,0.0686,-0.1800,0.0000,0.6400,0.0000,-0.0084,-0.0323,0.0051,996,1497,1500,1502,1000,1000,1505,1000,1000,1979,1205,2008,1103,-0.1840,-0.0280,0.0229,-0.0012,-0.0017,1.0029,0.0290,0.0356,-0.0188,-0.0458,0.2204,0.0082,0.0438,0.2204,0.0082,0.0438,0.3000,0.0600,0.0002,0,-3.5685,-143.5000,-0.0071,-3.5685,-143.5000,-0.0071
3.0430,14.6210,0.3438,0.0000,0.1371,-0.1800,0.0000,0.6400,0.0000,-0.0084,-0.0322,0.0053,996,1497,1500,1502,1000,1000,1505,1000,1000,1979,1205,2008,1103,-0.1098,-0.1557,-0.0333,-0.0010,-0.0029,1.0020,0.0290,0.0353,-0.0185,-0.0458,0.2204,0.0082,0.0438,0.2204,0.0082,0.0438,0.3000,0.0600,0.0002,0,-3.5685,-143.5000,-0.0071,-3.5685,-143.5000,-0.0071
3.0315,14.5742,0.3413,0.0000,-0.0000,-0.1800,0.0000,0.6400,0.0000,-0.0084,-0.0321,0.0051,996,1497,1500,1502,1000,1000,1505,1000,1000,1979,1205,2008,1103,-0.0878,-0.0279,0.0354,-0.0005,-0.0026,1.0016,0.0288,0.0354,-0.0187,-0.0456,0.2204,0.0082,0.0438,0.2204,0.0082,0.0438,0.3000,0.0600,0.0002,0,-3.5685,-143.5000,-0.0071,-3.5685,-143.5000,-0.0071
3.0203,14.5288,0.3391,0.0000,0.2057,-0.1800,0.0000,0.6400,0.0000,-0.0083,-0.0320,0.0052,996,1497,1500,1502,1000,1000,1505,1000,1000,1979,1205,2008,1103,-0.1551,0.0152,0.0026,0.0019,0.0012,1.0012,0.0289,0.0352,-0.0185,-0.0456,0.2204,0.0082,0.0438,0.2204,0.0082,0.0438,0.3000,0.0600,0.0002,0,-3.5685,-143.5000,-0.0071,-3.5685,-143.5000,-0.0071
3.0096,14.4833,0.3363,0.0000,-0.0000,-0.1800,0.0000,0.6400,0.0000,-0.0084,-0.0319,0.0053,998,1499,1501,1497,1000,1000,1505,1000,1000,1979,1205,2008,1103,-0.0188,-0.0251,-0.0449,-0.0017,-0.0007,1.0029,0.0288,0.0350,-0.0182,-0.0456,0.2204,0.0082,0.0438,0.2204,0.0082,0.0438,0.3000,0.0600,0.0002,0,-3.5685,-143.5000,-0.0071,-3.5685,-143.5000,-0.0071
2.9990,14.4369,0.3335,0.0000,0.1371,-0.1800,0.0000,-1.6000,0.0000,-0.0084,-0.0318,-0.0015,996,1497,1500,1495,1000,1000,1505,1000,1000,1979,1205,2008,1103,-0.0065,-0.0927,-0.0206,0.0027,0.0001,1.0006,0.0219,0.0416,-0.0249,-0.0387,0.2204,0.0082,0.0438,0.2204,0.0082,0.0438,0.3000,0.0600,0.0002,0,-3.5685,-143.5000,-0.0071,-3.5685,-143.5000,-0.0071
2.9888,14.3908,0.3307,0.0000,0.0686,-0.1800,0.0000,-1.6000,0.0000,-0.0084,-0.0317,-0.0014,996,1497,1500,1495,1000,1000,1505,1000,1000,1979,1205,2008,1103,0.0213,-0.0410,-0.0579,0.0000,-0.0027,1.0010,0.0220,0.0414,-0.0247,-0.0387,0.2204,0.0082,0.0438,0.2204,0.0082,0.0438,0.3000,0.0600,0.0002,0,-3.5685,-143.5000,-0.0071,-3.5685,-143.5000,-0.0071
2.9784,14.3450,0.3275,0.0686,0.1371,-0.1800,0.0000,-1.6000,0.0000,-0.0083,-0.0316,-0.0015,996,1497,1500,1495,1000,1000,1505,1000,1000,1979,1205,2008,1103,0.0111,-0.1047,-0.0256,-0.0010,-0.0019,1.0000,0.0217,0.0414,-0.0247,-0.0384,0.2204,0.0082,0.0438,0.2204,0.0082,0.0438,0.3000,0.0600,0.0002,0,-3.5685,-143.5000,-0.0071,-3.5685,-143.5000,-0.0071
2.9686,14.2982,0.3248,0.0000,-0.0000,-0.1800,0.0000,0.0000,0.0000,-0.0083,-0.0315,0.0032,996,1497,1500,1500,1000,1000,1505,1000,1000,1979,1205,2008,1103,0.0582,-0.1091,0.0182,0.0035,-0.0017,1.0027,0.0263,0.0366,-0.0200,-0.0430,0.2204,0.0082,0.0438,0.2204,0.0082,0.0438,0.3000,0.0600,0.0002,0,-3.5685,-143.5000,-0.0071,-3.5685,-143.5000,-0.0071
2.9589,14.2520,0.3224,0.0000,0.2057,-0.1800,0.0000,0.6400,0.0000,-0.0083,-0.0314,0.0053,996,1497,1500,1502,1000,1000,1505,1000,1000,1979,1205,2008,1104,-0.0282,-0.0702,-0.0369,-0.0016,-0.0025,1.0024,0.0284,0.0343,-0.0178,-0.0450,0.2204,0.0082,0.0438,0.2204,0.0082,0.0438,0.3000,0.0600,0.0002,0,-3.5685,-143.5000,-0.0071,-3.5685,-143.5000,-0.0071
2.9483,14.2060,0.3192,0.0000,-0.0000,-0.1800,0.0000,0.6400,0.0660,-0.0083,-0.0313,0.0052,1087,1499,1501,1504,1000,1000,1505,1000,1000,1979,1205,2008,1103,-0.0185,-0.0476,-0.0016,-0.0031,-0.0018,1.0045,0.0942,0.1004,0.0481,0.0213,0.2204,0.0082,0.0438,0.2204,0.0082,0.0438,0.3000,0.0600,0.0002,0,-3.5685,-143.5000,-0.0071,-3.5685,-143.5000,-0.0071
2.9385,14.1588,0.3163,0.0000,-0.1371,-0.1800,0.0000,0.6400,0.1390,-0.0083,-0.0312,0.0042,1139,1497,1500,1502,1000,1000,1505,1000,1000,1979,1205,2008,1103,0.0514,-0.1412,-0.0099,0.0007,-0.0011,0.9982,0.1661,0.1742,0.1203,0.0953,0.2204,0.0082,0.0438,0.2204,0.0082,0.0438,0.3000,0.0600,0.0002,0,-3.5685,-143.5000,-0.0071,-3.5685,-143.5000,-0.0071
2.9287,14.1122,0.3141,0.0686,0.1371,-0.1800,0.0000,0.6400,0.1550,-0.0083,-0.0311,0.0052,1155,1497,1500,1502,1000,1000,1505,1000,1000,1979,1205,2008,1103,0.1172,-0.1238,-0.0030,0.0001,-0.0043,1.0031,0.1830,0.1892,0.1374,0.1105,0.2204,0.0082,0.0438,0.2204,0.0082,0.0438,0.3000,0.0600,0.0002,0,-3.5685,-143.5000,-0.0071,-3.5685,-143.5000,-0.0071
2.9187,14.0657,0.3118,0.0000,0.1371,-0.1800,0.0000,0.6400,0.1960,-0.0082,-0.0310,0.0050,1196,1497,1500,1502,1000,1000,1505,1000,1000,1979,1205,2008,1103,0.0199,-0.1529,0.0688,0.0015,-0.0039,1.0037,0.2237,0.2302,0.1782,0.1518,0.2204,0.0082,0.0438,0.2204,0.0082,0.0438,0.3000,0.0600,0.0002,0,-3.5685,-143.5000,-0.0071,-3.5685,-143.5000,-0.0071
2.9087,14.0184,0.3097,0.0000,-0.0686,-0.1800,0.0000,0.6400,0.2100,-0.0082,-0.0309,0.0051,1210,1497,1500,1502,1000,1000,1505,1000,1000,1979,1205,2008,1103,-0.0270,-0.1830,0.0181,0.0005,-0.0024,1.0023,0.2378,0.2440,0.1924,0.1658,0.2204,0.0082,0.0438,0.2204,0.0082,0.0438,0.3000,0.0600,0.0002,0,-3.5685,-143.5000,-0.0071,-3.5685,-143.5000,-0.0071
2.8977,13.9719,0.3074,-0.0686,-0.0000,-0.1800,0.0000,0.6400,0.2240,-0.0081,-0.0309,0.0051,1224,1497,1500,1502,1000,1000,1505,1000,1000,1979,1205,2008,1103,-0.0852,-0.0105,0.0353,0.0026,-0.0036,1.0038,0.2518,0.2579,0.2063,0.1800,0.2204,0.0082,0.0438,0.2204,0.0082,0.0438,0.3000,0.0600,0.0002,0,-3.5685,-143.5000,-0.0071,-3.5685,-143.5000,-0.0071
2.8866,13.9256,0.3059,0.0000,-0.0000,-0.1800,0.0000,0.6400,0.2260,-0.0081,-0.0307,0.0047,1235,1499,1501,1504,1000,1000,1505,1000,1000,1979,1205,2008,1103,-0.1519,-0.0687,0.1343,-0.0013,-0.0014,1.0034,0.2534,0.2601,0.2081,0.1824,0.2204,0.0082,0.0438,0.2204,0.0082,0.0438,0.3000,0.0600,0.0002,0,-3.5685,-143.5000,-0.0071,-3.5685,-143.5000,-0.0071
2.8752,13.8786,0.3039,-0.0686,-0.2057,-0.1800,0.0000,0.6400,0.2360,-0.0081,-0.0306,0.0040,1236,1497,1500,1502,1000,1000,1505,1000,1000,1979,1205,2008,1103,-0.1539,-0.1193,0.0784,-0.0004,-0.0017,1.0028,0.2626,0.2707,0.2175,0.1933,0.2204,0.0082,0.0438,0.2204,0.0082,0.0438,0.3000,0.0600,0.0002,0,-3.5685,-143.5000,-0.0071,-3.5685,-143.5000,-0.0071
2.8637,13.8318,0.3023,0.0000,0.2057,-0.1800,0.0000,0.6400,0.2360,-0.0081,-0.0306,0.0050,1236,1497,1500,1502,1000,1000,1505,1000,1000,1979,1205,2008,1103,-0.0943,-0.0883,0.0676,0.0009,-0.0026,1.0024,0.2635,0.2696,0.2185,0.1924,0.2204,0.0082,0.0438,0.2204,0.0082,0.0438,0.3000,0.0600,0.0002,0,-3.5685,-143.5000,-0.0071,-3.5685,-143.5000,-0.0071
2.8526,13.7852,0.3006,0.0000,-0.0000,-0.1800,0.0000,0.6400,0.2360,-0.0080,-0.0305,0.0050,1236,1497,1500,1502,1000,1000,1505,1000,1000,1979,1205,2008,1103,-0.0972,-0.0617,0.0848,-0.0007,-0.0009,1.0038,0.2634,0.2695,0.2185,0.1925,0.2204,0.0082,0.0438,0.2204,0.0082,0.0438,0.3000,0.0600,0.0002,0,-3.5685,-143.5000,-0.0071,-3.5685,-143.5000,-0.0071
2.8429,13.7388,0.2991,0.0686,0.2057,-0.1800,0.0000,0.6400,0.2360,-0.0080,-0.0304,0.0049,1236,1497,1500,1502,1000,1000,1505,1000,1000,1979,1205,2008,1103,-0.0350,-0.0668,0.0872,-0.0009,-0.0020,1.0006,0.2632,0.2696,0.2185,0.1927,0.2204,0.0082,0.0438,0.2204,0.0082,0.0438,0.3000,0.0600,0.0002,0,-3.5685,-143.5000,-0.0071,-3.5685,-143.5000,-0.0071
2.8323,13.6925,0.2969,0.0000,-0.0000,-0.1800,0.0000,0.6400,0.2360,-0.0080,-0.0303,0.0051,1236,1497,1500,1502,1000,1000,1505,1000,1000,1979,1205,2008,1103,0.0104,-0.0610,0.0185,-0.0005,-0.0019,1.0026,0.2634,0.2692,0.2189,0.1925,0.2204,0.0082,0.0438,0.2204,0.0082,0.0438,0.3000,0.0600,0.0002,0,-3.5685,-143.5000,-0.0071,-3.5685,-143.5000,-0.0071
2.8224,13.6466,0.2939,-0.0686,0.0686,-0.1800,0.0000,0.6400,0.2360,-0.0080,-0.0302,0.0055,1238,1499,1501,1504,1000,1000,1505,1000,1000,1979,1205,2008,1103,0.0280,-0.0211,-0.0860,0.0015,-0.0028,1.0052,0.2636,0.2688,0.2193,0.1923,0.2204,0.0082,0.0438,0.2204,0.0082,0.0438,0.3000,0.0600,0.0002,0,-3.5685,-143.5000,-0.0071,-3.5685,-143.5000,-0.0071
2.8125,13.6004,0.2911,0.0686,0.2057,-0.1800,0.0000,0.6400,0.2360,-0.0080,-0.0301,0.0040,1236,1497,1500,1502,1000,1000,1505,1000,1000,1979,1205,2008,1103,0.0316,-0.0962,0.0775,-0.0005,-0.0033,1.0058,0.2621,0.2701,0.2179,0.1939,0.2204,0.0082,0.0438,0.2204,0.0082,0.0438,0.3000,0.0600,0.0002,0,-3.5685,-143.5000,-0.0071,-3.5685,-143.5000,-0.0071
2.8027,13.5546,0.2891,0.0000,0.0686,-0.1800,0.0000,0.6400,0.2360,-0.0080,-0.0300,0.0053,1236,1497,1500,1502,1000,1000,1505,1000,1000,1979,1205,2008,1103,0.0584,-0.0084,-0.0047,-0.0013,-0.0030,1.0021,0.2633,0.2688,0.2193,0.1926,0.2204,0.0082,0.0438,0.2204,0.0082,0.0438,0.3000,0.0600,0.0002,0,-3.5685,-143.5000,-0.0071,-3.5685,-143.5000,-0.0071
2.7930,13.5081,0.2865,0.0000,-0.1371,-0.1800,0.0000,0.6400,0.2360,-0.0080,-0.0299,0.0052,1236,1497,1500,1502,1000,1000,1505,1000,1000,1979,1205,2008,1103,0.0688,-0.0855,-0.0013,0.0016,-0.0032,1.0005,0.2632,0.2687,0.2193,0.1928,0.2204,0.0082,0.0438,0.2204,0.0082,0.0438,0.3000,0.0600,0.0002,0,-3.5685,-143.5000,-0.0071,-3.5685,-143.5000,-0.0071
2.7838,13.4616,0.2842,0.0686,0.0686,-0.1800,0.0000,0.6400,0.2360,-0.0080,-0.0298,0.0052,1236,1497,1500,1502,1000,1000,1505,1000,1000,1979,1205,2008,1103,0.1302,-0.0993,0.0186,-0.0018,-0.0049,0.9998,0.2630,0.2687,0.2193,0.1930,0.2204,0.0082,0.0438,0.2204,0.0082,0.0438,0.3000,0.0600,0.0002,0,-3.5685,-143.5000,-0.0071,-3.5685,-143.5000,-0.0071
2.7744,13.4152,0.2814,-0.0686,-0.0686,-0.1800,0.0000,0.6400,0.2360,-0.0080,-0.0298,0.0055,1236,1497,1500,1502,1000,1000,1505,1000,1000,1979,1205,2008,1103,0.1036,-0.0580,-0.0865,-0.0005,-0.0015,1.0057,0.2633,0.2682,0.2197,0.1928,0.2204,0.0082,0.0438,0.2204,0.0082,0.0438,0.3000,0.0600,0.0002,0,-3.5685,-143.5000,-0.0071,-3.5685,-143.5000,-0.0071
2.7648,13.3685,0.2785,0.0000,0.0686,-0.1800,0.0000,0.6400,0.2360,-0.0079,-0.0296,0.0053,1238,1499,1501,1504,1000,1000,1505,1000,1000,1979,1205,2008,1103,0.0284,-0.1716,-0.0318,0.0020,-0.0019,1.0027,0.2630,0.2682,0.2196,0.1931,0.2204,0.0082,0.0438,0.2204,0.0082,0.0438,0.3000,0.0600,0.0002,0,-3.5685,-143.5000,-0.0071,-3.5685,-143.5000,-0.0071
2.7546,13.3217,0.2755,0.0000,0.0686,-0.1800,0.0000,0.6400,0.2360,-0.0079,-0.0296,0.0045,1236,1497,1500,1502,1000,1000,1505,1000,1000,1979,1205,2008,1103,0.0126,-0.1041,-0.0907,0.0015,-0.0040,1.0011,0.2622,0.2689,0.2189,0.1940,0.2204,0.0082,0.0438,0.2204,0.0082,0.0438,0.3000,0.0600,0.0002,0,-3.5685,-143.5000,-0.0071,-3.5685,-143.5000,-0.0071
2.7438,13.2750,0.2728,0.0000,-0.0000,-0.1800,0.0000,0.6400,0.2360,-0.0078,-0.0294,0.0051,1236,1497,1500,1502,1000,1000,1505,1000,1000,1979,1205,2008,1103,-0.0638,-0.1306,0.0488,-0.0001,-0.0043,1.0021,0.2627,0.2682,0.2195,0.1936,0.2204,0.0082,0.0438,0.2204,0.0082,0.0438,0.3000,0.0600,0.0002,0,-3.5685,-143.5000,-0.0071,-3.5685,-143.5000,-0.0071
2.7320,13.2286,0.2703,0.0000,-0.0686,-0.1800,0.0000,0.6400,0.2360,-0.0078,-0.0294,0.0050,1236,1497,1500,1502,1000,1000,1505,1000,1000,1979,1205,2008,1103,-0.0775,-0.0633,0.0873,0.0027,-0.0037,1.0033,0.2626,0.2682,0.2194,0.1938,0.2204,0.0082,0.0438,0.2204,0.0082,0.0438,0.3000,0.0600,0.0002,0,-3.5685,-143.5000,-0.0071,-3.5685,-143.5000,-0.0071
2.7215,13.1822,0.2688,0.0000,0.2057,-0.1800,0.0000,0.6400,0.2360,-0.0078,-0.0293,0.0050,1236,1497,1500,1502,1000,1000,1505,1000,1000,1979,1205,2008,1103,-0.0611,-0.0381,0.0848,0.0006,-0.0013,1.0046,0.2625,0.2681,0.2195,0.1939,0.2204,0.0082,0.0438,0.2204,0.0082,0.0438,0.3000,0.0600,0.0002,0,-3.5685,-143.5000,-0.0071,-3.5685,-143.5000,-0.0071
2.7107,13.1362,0.2676,0.0000,-0.0000,-0.1800,0.0000,0.6400,0.2360,-0.0078,-0.0292,0.0051,1236,1497,1500,1502,1000,1000,1505,1000,1000,1979,1205,2008,1103,-0.0489,0.0169,0.0685,-0.0011,-0.0041,1.0014,0.2625,0.2679,0.2196,0.1939,0.2204,0.0082,0.0438,0.2204,0.0082,0.0438,0.3000,0.0600,0.0002,0,-3.5685,-143.5000,-0.0071,-3.5685,-143.5000,-0.0071
2.6994,13.0908,0.2656,0.0000,-0.0000,-0.1800,0.0000,0.6400,0.2360,-0.0077,-0.0292,0.0052,1238,1499,1501,1504,1000,1000,1505,1000,1000,1979,1205,2008,1103,-0.1228,0.0673,0.0127,0.0014,-0.0030,1.0003,0.2627,0.2677,0.2198,0.1939,0.2204,0.0082,0.0438,0.2204,0.0082,0.0438,0.3000,0.0600,0.0002,0,-3.5685,-143.5000,-0.0071,-3.5685,-143.5000,-0.0071
2.6881,13.0453,0.2642,0.0000,0.0686,-0.1800,0.0000,0.6400,0.2360,-0.0077,-0.0291,0.0037,1236,1497,1500,1502,1000,1000,1505,1000,1000,1979,1205,2008,1103,-0.0726,0.1771,0.1856,-0.0371,-0.0073,1.0133,0.2611,0.2692,0.2183,0.1955,0.2204,0.0082,0.0438,0.2204,0.0082,0.0438,0.3000,0.0600,0.0002,0,-3.5685,-143.5000,-0.0071,-3.5685,-143.5000,-0.0071
2.6789,12.9976,0.2688,0.0000,-0.0000,-0.1800,0.0000,0.6400,0.2360,-0.0077,-0.0285,0.0025,1236,1497,1500,1502,1000,1000,1505,1000,1000,1979,1205,2008,1103,0.0031,-0.9561,0.9341,0.0682,0.0013,1.0144,0.2593,0.2698,0.2177,0.1972,0.2204,0.0082,0.0438,0.2204,0.0082,0.0438,0.3000,0.0600,0.0002,0,-3.5685,-143.5000,-0.0071,-3.5685,-143.5000,-0.0071
2.6713,12.9509,0.2695,0.0000,-0.0000,-0.1800,0.0000,0.6400,0.2360,-0.0078,-0.0290,0.0076,1236,1497,1500,1502,1000,1000,1505,1000,1000,1979,1205,2008,1103,0.1917,0.2847,-0.6779,-0.0034,0.0157,0.9940,0.2648,0.2652,0.2224,0.1916,0.2204,0.0082,0.0438,0.2204,0.0082,0.0438,0.3000,0.0600,0.0002,0,-3.5685,-143.5000,-0.0071,-3.5685,-143.5000,-0.0071
2.6524,12.9062,0.2577,-0.0686,-0.0686,-0.1800,0.0000,0.6400,0.2360,-0.0076,-0.0291,0.0057,1236,1497,1500,1502,1000,1000,1505,1000,1000,1979,1205,2008,1103,-0.1043,0.6809,-0.2343,-0.1012,0.0075,1.0154,0.2632,0.2670,0.2203,0.1936,0.2204,0.0082,0.0438,0.2204,0.0082,0.0438,0.3000,0.0600,0.0002,0,-3.5685,-143.5000,-0.0071,-3.5685,-143.5000,-0.0071
2.6481,12.8612,0.2602,0.0686,0.1371,-0.1800,0.0000,0.6400,0.2360,-0.0075,-0.0282,0.0026,1236,1497,1500,1502,1000,1000,1505,1000,1000,1979,1205,2008,1103,-0.4870,-1.1615,0.8271,0.0397,-0.0242,0.9834,0.2593,0.2690,0.2179,0.1977,0.2204,0.0082,0.0438,0.2204,0.0082,0.0438,0.3000,0.0600,0.0002,0,-3.5685,-143.5000,-0.0071,-3.5685,-143.5000,-0.0071
2.6407,12.8132,0.2636,0.1371,-0.0686,-0.1800,0.0000,0.6400,0.2360,-0.0079,-0.0287,0.0059,1238,1499,1501,1504,1000,1000,1505,1000,1000,1979,1205,2008,1103,0.5294,0.1303,-0.1097,0.0800,-0.0184,0.9709,0.2626,0.2667,0.2211,0.1936,0.2204,0.0082,0.0438,0.2204,0.0082,0.0438,0.3000,0.0600,0.0002,0,-3.5685,-143.5000,-0.0071,-3.5685,-143.5000,-0.0071
2.6241,12.7643,0.2496,-0.0686,-0.0686,-0.1800,0.0000,0.6400,0.2360,-0.0076,-0.0286,0.0080,1236,1497,1500,1502,1000,1000,1505,1000,1000,1979,1205,2008,1103,-0.0541,0.1700,-1.2518,-0.0401,0.0277,1.0223,0.2650,0.2642,0.2230,0.1918,0.2204,0.0082,0.0438,0.2204,0.0082,0.0438,0.3000,0.0600,0.0002,0,-3.5685,-143.5000,-0.0071,-3.5685,-143.5000,-0.0071
2.6122,12.7239,0.2433,0.0000,0.0686,-0.1800,0.0000,0.6400,0.2360,-0.0075,-0.0284,0.0034,1236,1497,1500,1502,1000,1000,1505,1000,1000,1979,1205,2008,1103,-0.3512,0.0207,0.5781,-0.0714,-0.0113,1.0292,0.2604,0.2685,0.2184,0.1967,0.2204,0.0082,0.0438,0.2204,0.0082,0.0438,0.3000,0.0600,0.0002,0,-3.5685,-143.5000,-0.0071,-3.5685,-143.5000,-0.0071
2.6083,12.6757,0.2483,0.0686,0.2057,-0.1800,0.0000,0.6400,0.2360,-0.0078,-0.0283,0.0050,1236,1497,1500,1502,1000,1000,1505,1000,1000,1979,1205,2008,1104,0.4573,-0.0011,0.1754,0.0601,0.0002,0.9614,0.2615,0.2671,0.2205,0.1949,0.2204,0.0082,0.0438,0.2204,0.0082,0.0438,0.3000,0.0600,0.0002,0,-3.5685,-143.5000,-0.0071,-3.5685,-143.5000,-0.0071
2.5941,12.6285,0.2393,0.0000,0.2057,-0.1800,0.0000,0.6400,0.2360,-0.0075,-0.0279,0.0084,1236,1497,1500,1502,1000,1000,1505,1000,1000,1979,1205,2008,1104,-0.0759,-0.6827,-0.9979,0.0161,-0.0238,1.0068,0.2648,0.2631,0.2240,0.1922,0.2204,0.0082,0.0438,0.2204,0.0082,0.0438,0.3000,0.0600,0.0002,0,-3.5685,-143.5000,-0.0071,-3.5685,-143.5000,-0.0071
2.5800,12.5839,0.2310,-0.0686,0.1371,-0.1800,0.0000,0.6400,0.2360,-0.0075,-0.0283,0.0048,1236,1497,1500,1502,1000,1000,1505,1000,1000,1979,1205,2008,1103,-0.1500,0.4399,0.1164,-0.0326,0.0224,1.0182,0.2617,0.2670,0.2200,0.1953,0.2204,0.0082,0.0438,0.2204,0.0082,0.0438,0.3000,0.0600,0.0002,0,-3.5685,-143.5000,-0.0071,-3.5685,-143.5000,-0.0071
2.5734,12.5344,0.2354,0.0686,0.2057,-0.1800,0.0000,0.6400,0.2360,-0.0076,-0.0279,0.0040,1238,1499,1501,1504,1000,1000,1505,1000,1000,1979,1205,2008,1103,0.1578,-0.2359,0.4944,-0.0103,-0.0079,0.9826,0.2604,0.2675,0.2197,0.1964,0.2204,0.0082,0.0438,0.2204,0.0082,0.0438,0.3000,0.0600,0.0002,0,-3.5685,-143.5000,-0.0071,-3.5685,-143.5000,-0.0071
2.5670,12.4880,0.2321,0.0000,0.2057,-0.1800,0.0000,0.6400,0.2360,-0.0075,-0.0278,0.0062,1236,1497,1500,1502,1000,1000,1505,1000,1000,1979,1205,2008,1103,-0.0195,-0.3576,-0.5963,0.0151,0.0031,1.0147,0.2625,0.2651,0.2219,0.1945,0.2204,0.0082,0.0438,0.2204,0.0082,0.0438,0.3000,0.0600,0.0002,0,-3.5685,-143.5000,-0.0071,-3.5685,-143.5000,-0.0071
2.5483,12.4437,0.2244,0.0000,0.2057,-0.1800,0.0000,0.6400,0.2360,-0.0076,-0.0280,0.0042,1236,1497,1500,1502,1000,1000,1505,1000,1000,1979,1205,2008,1103,0.1897,0.1781,0.2598,0.0071,-0.0072,1.0179,0.2606,0.2673,0.2198,0.1963,0.2204,0.0082,0.0438,0.2204,0.0082,0.0438,0.3000,0.0600,0.0002,0,-3.5685,-143.5000,-0.0071,-3.5685,-143.5000,-0.0071
2.5426,12.3967,0.2319,0.0686,0.2057,-0.1800,0.0000,0.6400,0.2360,-0.0073,-0.0278,0.0030,1236,1497,1500,1502,1000,1000,1505,1000,1000,1979,1205,2008,1103,-0.3355,0.0445,0.8278,-0.0176,0.0037,0.9841,0.2595,0.2681,0.2185,0.1979,0.2204,0.0082,0.0438,0.2204,0.0082,0.0438,0.3000,0.0600,0.0002,0,-3.5685,-143.5000,-0.0071,-3.5685,-143.5000,-0.0071
2.5341,12.3489,0.2308,0.0000,0.0686,-0.1800,0.0000,0.6400,0.2360,-0.0076,-0.0276,0.0067,1236,1497,1500,1502,1000,1000,1505,1000,1000,1979,1205,2008,1103,0.4225,-0.1491,-0.4114,0.0157,-0.0040,0.9904,0.2627,0.2646,0.2227,0.1941,0.2204,0.0082,0.0438,0.2204,0.0082,0.0438,0.3000,0.0600,0.0002,0,-3.5685,-143.5000,-0.0071,-3.5685,-143.5000,-0.0071
2.5180,12.3036,0.2236,0.0686,0.2057,-0.1800,0.0000,0.6400,0.2360,-0.0073,-0.0274,0.0052,1236,1497,1500,1502,1000,1000,1505,1000,1000,1979,1205,2008,1103,-0.3183,-0.3545,-0.0280,0.0090,-0.0168,1.0199,0.2614,0.2655,0.2211,0.1960,0.2204,0.0082,0.0438,0.2204,0.0082,0.0438,0.3000,0.0600,0.0002,0,-3.5685,-143.5000,-0.0071,-3.5685,-143.5000,-0.0071
2.5120,12.2567,0.2296,0.0000,0.1371,-0.1800,0.0000,0.6400,0.2360,-0.0073,-0.0276,0.0026,1238,1499,1501,1504,1000,1000,1505,1000,1000,1979,1205,2008,1103,-0.2590,0.2367,0.9452,-0.0219,0.0026,0.9940,0.2589,0.2684,0.2182,0.1985,0.2204,0.0082,0.0438,0.2204,0.0082,0.0438,0.3000,0.0600,0.0002,0,-3.5685,-143.5000,-0.0071,-3.5685,-143.5000,-0.0071
2.5025,12.2079,0.2328,0.0000,0.0686,-0.1800,0.0000,0.6400,0.2360,-0.0076,-0.0273,0.0049,1236,1497,1500,1502,1000,1000,1505,1000,1000,1979,1205,2008,1103,0.5609,-0.2732,-0.0760,0.0199,0.0172,0.9932,0.2605,0.2661,0.2212,0.1962,0.2204,0.0082,0.0438,0.2204,0.0082,0.0438,0.3000,0.0600,0.0002,0,-3.5685,-143.5000,-0.0071,-3.5685,-143.5000,-0.0071
2.4886,12.1629,0.2249,0.0000,0.1371,-0.1800,0.0000,0.6400,0.2360,-0.0072,-0.0272,0.0061,1236,1497,1500,1502,1000,1000,1505,1000,1000,1979,1205,2008,1103,-0.4763,-0.2166,-0.2932,0.0117,-0.0287,1.0275,0.2622,0.2643,0.2220,0.1955,0.2204,0.0082,0.0438,0.2204,0.0082,0.0438,0.3000,0.0600,0.0002,0,-3.5685,-143.5000,-0.0071,-3.5685,-143.5000,-0.0071
2.4808,12.1142,0.2257,0.0000,-0.0000,-0.1800,0.0000,0.6400,0.2360,-0.0074,-0.0273,0.0036,1236,1497,1500,1502,1000,1000,1505,1000,1000,1979,1205,2008,1103,0.1352,0.2473,0.5579,-0.0407,-0.0135,0.9821,0.2596,0.2671,0.2197,0.1976,0.2204,0.0082,0.0438,0.2204,0.0082,0.0438,0.3000,0.0600,0.0002,0,-3.5685,-143.5000,-0.0071,-3.5685,-143.5000,-0.0071
2.4714,12.0668,0.2280,0.0686,0.2057,-0.1800,0.0000,0.6400,0.2360,-0.0075,-0.0269,0.0057,1236,1497,1500,1502,1000,1000,1505,1000,1000,1979,1205,2008,1103,0.3794,-0.4418,-0.0399,0.0149,0.0274,0.9896,0.2611,0.2648,0.2222,0.1959,0.2204,0.0082,0.0438,0.2204,0.0082,0.0438,0.3000,0.0600,0.0002,0,-3.5685,-143.5000,-0.0071,-3.5685,-143.5000,-0.0071
2.4609,12.0224,0.2218,-0.1371,-0.1371,-0.1800,0.0000,0.6400,0.2360,-0.0072,-0.0270,0.0059,1236,1497,1500,1502,1000,1000,1505,1000,1000,1979,1205,2008,1103,-0.3245,-0.0689,-0.1966,0.0336,0.0033,1.0397,0.2617,0.2643,0.2220,0.1959,0.2204,0.0082,0.0438,0.2204,0.0082,0.0438,0.3000,0.0600,0.0002,0,-3.5685,-143.5000,-0.0071,-3.5685,-143.5000,-0.0071
2.4509,11.9751,0.2192,0.0000,-0.0000,-0.1800,0.0000,0.6400,0.2360,-0.0074,-0.0271,0.0044,1238,1499,1501,1504,1000,1000,1505,1000,1000,1979,1205,2008,1103,0.1666,0.2716,0.2948,-0.0236,-0.0224,0.9966,0.2601,0.2660,0.2207,0.1972,0.2204,0.0082,0.0438,0.2204,0.0082,0.0438,0.3000,0.0600,0.0002,0,-3.5685,-143.5000,-0.0071,-3.5685,-143.5000,-0.0071
2.4425,11.9283,0.2206,0.0000,0.0686,-0.1800,0.0000,0.6400,0.2360,-0.0073,-0.0267,0.0044,1236,1497,1500,1502,1000,1000,1505,1000,1000,1979,1205,2008,1103,0.0291,-0.3443,0.0495,-0.0148,-0.0025,0.9657,0.2598,0.2656,0.2210,0.1976,0.2204,0.0082,0.0438,0.2204,0.0082,0.0438,0.3000,0.0600,0.0002,0,-3.5685,-143.5000,-0.0071,-3.5685,-143.5000,-0.0071
2.4322,11.8820,0.2138,0.0686,-0.0000,-0.1800,0.0000,0.6400,0.2360,-0.0073,-0.0267,0.0075,1236,1497,1500,1502,1000,1000,1505,1000,1000,1979,1205,2008,1104,0.1317,-0.1657,-0.7167,0.0190,0.0046,1.0272,0.2628,0.2625,0.2241,0.1945,0.2204,0.0082,0.0438,0.2204,0.0082,0.0438,0.3000,0.0600,0.0002,0,-3.5685,-143.5000,-0.0071,-3.5685,-143.5000,-0.0071
2.4190,11.8353,0.2091,-0.0686,0.0686,-0.1800,0.0000,0.6400,0.2360,-0.0072,-0.0267,0.0050,1236,1497,1500,1502,1000,1000,1505,1000,1000,1979,1205,2008,1104,-0.0300,-0.0032,0.1097,0.0032,-0.0019,1.0088,0.2605,0.2649,0.2216,0.1971,0.2204,0.0082,0.0438,0.2204,0.0082,0.0438,0.3000,0.0600,0.0002,0,-3.5685,-143.5000,-0.0071,-3.5685,-143.5000,-0.0071
2.4117,11.7894,0.2107,0.0686,-0.0000,-0.1800,0.0000,0.6400,0.2360,-0.0071,-0.0266,0.0051,1236,1497,1500,1502,1000,1000,1505,1000,1000,1979,1205,2008,1103,-0.2757,0.1008,0.1694,-0.0165,-0.0062,0.9862,0.2607,0.2646,0.2216,0.1971,0.2204,0.0082,0.0438,0.2204,0.0082,0.0438,0.3000,0.0600,0.0002,0,-3.5685,-143.5000,-0.0071,-3.5685,-143.5000,-0.0071
2.4017,11.7430,0.2057,0.0000,-0.0000,-0.1800,0.0000,0.6400,0.2360,-0.0073,-0.0265,0.0067,1236,1497,1500,1502,1000,1000,1505,1000,1000,1979,1205,2008,1103,0.1533,-0.0408,-0.4186,-0.0033,0.0046,1.0015,0.2619,0.2630,0.2235,0.1956,0.2204,0.0082,0.0438,0.2204,0.0082,0.0438,0.3000,0.0600,0.0002,0,-3.5685,-143.5000,-0.0071,-3.5685,-143.5000,-0.0071
2.3886,11.6972,0.1991,0.0000,0.2057,-0.1800,0.0000,0.6400,0.2360,-0.0071,-0.0263,0.0051,1238,1499,1501,1504,1000,1000,1505,1000,1000,1979,1205,2008,1103,-0.0760,-0.1000,0.0195,-0.0002,0.0102,1.0195,0.2604,0.2643,0.2219,0.1974,0.2204,0.0082,0.0438,0.2204,0.0082,0.0438,0.3000,0.0600,0.0002,0,-3.5685,-143.5000,-0.0071,-3.5685,-143.5000,-0.0071
2.3776,11.6507,0.1990,0.0686,0.2057,-0.1800,0.0000,0.6400,0.2360,-0.0071,-0.0263,0.0033,1236,1497,1500,1502,1000,1000,1505,1000,1000,1979,1205,2008,1103,-0.2115,-0.0432,0.3854,0.0038,0.0084,1.0034,0.2585,0.2661,0.2200,0.1994,0.2204,0.0082,0.0438,0.2204,0.0082,0.0438,0.3000,0.0600,0.0002,0,-3.5685,-143.5000,-0.0071,-3.5685,-143.5000,-0.0071
2.3674,11.6040,0.1984,-0.0686,-0.0000,-0.1800,0.0000,0.6400,0.2360,-0.0072,-0.0262,0.0060,1236,1497,1500,1502,1000,1000,1505,1000,1000,1979,1205,2008,1103,0.0770,0.0268,-0.1820,0.0085,-0.0054,0.9873,0.2611,0.2633,0.2230,0.1966,0.2204,0.0082,0.0438,0.2204,0.0082,0.0438,0.3000,0.0600,0.0002,0,-3.5685,-143.5000,-0.0071,-3.5685,-143.5000,-0.0071
2.3569,11.5579,0.1933,0.0686,0.2057,-0.1800,0.0000,0.6400,0.2360,-0.0071,-0.0261,0.0058,1236,1497,1500,1502,1000,1000,1505,1000,1000,1979,1205,2008,1103,-0.0858,-0.0477,-0.1528,0.0048,-0.0153,0.9946,0.2608,0.2634,0.2227,0.1971,0.2204,0.0082,0.0438,0.2204,0.0082,0.0438,0.3000,0.0600,0.0002,0,-3.5685,-143.5000,-0.0071,-3.5685,-143.5000,-0.0071
2.3454,11.5108,0.1926,0.0000,-0.0686,-0.1800,0.0000,0.6400,0.2360,-0.0071,-0.0260,0.0044,1236,1497,1500,1502,1000,1000,1505,1000,1000,1979,1205,2008,1103,0.1424,0.0073,0.3255,0.0027,-0.0034,1.0049,0.2592,0.2648,0.2215,0.1985,0.2204,0.0082,0.0438,0.2204,0.0082,0.0438,0.3000,0.0600,0.0002,0,-3.5685,-143.5000,-0.0071,-3.5685,-143.5000,-0.0071
2.3346,11.4643,0.1935,0.0000,0.1371,-0.1800,0.0000,0.6400,0.2360,-0.0071,-0.0259,0.0050,1236,1497,1500,1502,1000,1000,1505,1000,1000,1979,1205,2008,1104,0.0963,-0.1365,0.1471,0.0112,0.0022,1.0004,0.2597,0.2640,0.2222,0.1981,0.2204,0.0082,0.0438,0.2204,0.0082,0.0438,0.3000,0.0600,0.0002,0,-3.5685,-143.5000,-0.0071,-3.5685,-143.5000,-0.0071
2.3245,11.4173,0.1910,0.0000,-0.0686,-0.1800,0.0000,0.6400,0.2360,-0.0070,-0.0258,0.0058,1238,1499,1501,1504,1000,1000,1505,1000,1000,1979,1205,2008,1103,-0.0644,-0.0195,-0.1443,0.0054,-0.0030,0.9998,0.2606,0.2630,0.2230,0.1973,0.2204,0.0082,0.0438,0.2204,0.0082,0.0438,0.3000,0.0600,0.0002,0,-3.5685,-143.5000,-0.0071,-3.5685,-143.5000,-0.0071
2.3142,11.3703,0.1900,0.0000,-0.0000,-0.1800,0.0000,0.6400,0.2360,-0.0071,-0.0257,0.0033,1236,1497,1500,1502,1000,1000,1505,1000,1000,1979,1205,2008,1103,0.0892,-0.0786,0.3511,-0.0009,-0.0087,0.9953,0.2580,0.2654,0.2207,0.1999,0.2204,0.0082,0.0438,0.2204,0.0082,0.0438,0.3000,0.0600,0.0002,0,-3.5685,-143.5000,-0.0071,-3.5685,-143.5000,-0.0071
2.3051,11.3234,0.1923,0.0686,0.0686,-0.1800,0.0000,0.6400,0.2360,-0.0070,-0.0256,0.0049,1236,1497,1500,1502,1000,1000,1505,1000,1000,1979,1205,2008,1103,-0.0772,-0.1834,0.1888,0.0023,0.0032,1.0013,0.2595,0.2636,0.2223,0.1986,0.2204,0.0082,0.0438,0.2204,0.0082,0.0438,0.3000,0.0600,0.0002,0,-3.5685,-143.5000,-0.0071,-3.5685,-143.5000,-0.0071
2.2954,11.2766,0.1907,0.0686,0.2057,-0.1800,0.0000,0.6400,0.2360,-0.0070,-0.0255,0.0057,1236,1497,1500,1502,1000,1000,1505,1000,1000,1979,1205,2008,1103,0.1319,-0.2194,-0.1004,0.0051,-0.0012,1.0008,0.2601,0.2628,0.2233,0.1978,0.2204,0.0082,0.0438,0.2204,0.0082,0.0438,0.3000,0.0600,0.0002,0,-3.5685,-143.5000,-0.0071,-3.5685,-143.5000,-0.0071
2.2841,11.2288,0.1884,-0.0686,-0.0686,-0.1800,0.0000,0.6400,0.2360,-0.0070,-0.0253,0.0048,1236,1497,1500,1502,1000,1000,1505,1000,1000,1979,1205,2008,1103,0.0960,-0.3033,0.1561,0.0003,-0.0045,0.9991,0.2591,0.2635,0.2225,0.1989,0.2204,0.0082,0.0438,0.2204,0.0082,0.0438,0.3000,0.0600,0.0002,0,-3.5685,-143.5000,-0.0071,-3.5685,-143.5000,-0.0071
2.2749,11.1813,0.1890,0.0000,0.0686,-0.1800,0.0000,0.6400,0.2360,-0.0069,-0.0252,0.0045,1236,1497,1500,1502,1000,1000,1505,1000,1000,1979,1205,2008,1103,-0.0221,-0.2771,0.2915,-0.0091,-0.0049,1.0014,0.2588,0.2637,0.2222,0.1994,0.2204,0.0082,0.0438,0.2204,0.0082,0.0438,0.3000,0.0600,0.0002,0,-3.5685,-143.5000,-0.0071,-3.5685,-143.5000,-0.0071
2.2662,11.1343,0.1884,-0.1371,-0.0686,-0.1800,0.0000,0.6400,0.2360,-0.0069,-0.0252,0.0050,1238,1499,1501,1504,1000,1000,1505,1000,1000,1979,1205,2008,1104,-0.0512,-0.2276,0.1288,-0.0024,-0.0095,1.0055,0.2593,0.2630,0.2228,0.1989,0.2204,0.0082,0.0438,0.2204,0.0082,0.0438,0.3000,0.0600,0.0002,0,-3.5685,-143.5000,-0.0071,-3.5685,-143.5000,-0.0071
2.2553,11.0865,0.1863,0.0000,0.0686,-0.1800,0.0000,0.6400,0.2360,-0.0069,-0.0251,0.0044,1236,1497,1500,1502,1000,1000,1505,1000,1000,1979,1205,2008,1103,-0.0481,-0.1017,0.0499,0.0008,0.0002,0.9998,0.2587,0.2636,0.2222,0.1996,0.2204,0.0082,0.0438,0.2204,0.0082,0.0438,0.3000,0.0600,0.0002,0,-3.5685,-143.5000,-0.0071,-3.5685,-143.5000,-0.0071
2.2455,11.0388,0.1846,-0.1371,-0.1371,-0.1800,0.0000,0.6400,0.2360,-0.0069,-0.0253,0.0050,1236,1497,1500,1502,1000,1000,1505,1000,1000,1979,1205,2008,1103,0.0410,0.4119,0.1504,-0.0030,0.0073,1.0092,0.2593,0.2632,0.2226,0.1989,0.2204,0.0082,0.0438,0.2204,0.0082,0.0438,0.3000,0.0600,0.0002,0,-3.5685,-143.5000,-0.0071,-3.5685,-143.5000,-0.0071
2.2362,10.9927,0.1834,0.0686,0.0686,-0.1800,0.0000,0.6400,0.2360,-0.0070,-0.0252,0.0056,1236,1497,1500,1502,1000,1000,1505,1000,1000,1979,1205,2008,1103,0.1980,0.3899,0.0197,-0.0008,-0.0044,1.0030,0.2598,0.2626,0.2233,0.1983,0.2204,0.0082,0.0438,0.2204,0.0082,0.0438,0.3000,0.0600,0.0002,0,-3.5685,-143.5000,-0.0071,-3.5685,-143.5000,-0.0071
2.2260,10.9454,0.1811,0.0000,0.2057,-0.1800,0.0000,0.6400,0.2360,-0.0069,-0.0248,0.0058,1236,1497,1500,1502,1000,1000,1505,1000,1000,1979,1205,2008,1103,0.1012,-0.1868,-0.1051,0.0063,-0.0095,0.9921,0.2597,0.2619,0.2238,0.1985,0.2204,0.0082,0.0438,0.2204,0.0082,0.0438,0.3000,0.0600,0.0002,0,-3.5685,-143.5000,-0.0071,-3.5685,-143.5000,-0.0071
2.2163,10.8979,0.1777,-0.0686,0.0686,-0.1800,0.0000,0.6400,0.2360,-0.0068,-0.0245,0.0060,1236,1497,1500,1502,1000,1000,1505,1000,1000,1979,1205,2008,1104,-0.0013,-0.6343,-0.2135,0.0097,-0.0025,0.9971,0.2597,0.2613,0.2243,0.1986,0.2204,0.0082,0.0438,0.2204,0.0082,0.0438,0.3000,0.0600,0.0002,0,-3.5685,-143.5000,-0.0071,-3.5685,-143.5000,-0.0071
2.2046,10.8508,0.1745,0.0000,0.0686,-0.1800,0.0000,0.6400,0.2360,-0.0067,-0.0245,0.0052,1238,1499,1501,1504,1000,1000,1505,1000,1000,1979,1205,2008,1103,-0.1697,-0.4129,0.0530,0.0018,0.0004,1.0119,0.2590,0.2620,0.2234,0.1995,0.2204,0.0082,0.0438,0.2204,0.0082,0.0438,0.3000,0.0600,0.0002,0,-3.5685,-143.5000,-0.0071,-3.5685,-143.5000,-0.0071
2.1942,10.8038,0.1726,0.0000,-0.0686,-0.1800,0.0000,0.6400,0.2360,-0.0067,-0.0247,0.0046,1236,1497,1500,1502,1000,1000,1505,1000,1000,1979,1205,2008,1103,-0.1707,0.2907,-0.0143,-0.0192,0.0046,1.0159,0.2586,0.2628,0.2226,0.2000,0.2204,0.0082,0.0438,0.2204,0.0082,0.0438,0.3000,0.0600,0.0002,0,-3.5685,-143.5000,-0.0071,-3.5685,-143.5000,-0.0071
2.1826,10.7575,0.1673,0.1371,0.0686,-0.1800,0.0000,0.6400,0.2360,-0.0067,-0.0248,0.0069,1236,1497,1500,1502,1000,1000,1505,1000,1000,1979,1205,2008,1104,-0.0256,0.7428,-0.5266,-0.0340,-0.0202,0.9978,0.2610,0.2607,0.2248,0.1975,0.2204,0.0082,0.0438,0.2204,0.0082,0.0438,0.3000,0.0600,0.0002,0,-3.5685,-143.5000,-0.0071,-3.5685,-143.5000,-0.0071
2.1689,10.7123,0.1590,0.2743,-0.1371,-0.1800,0.0000,0.6400,0.2360,-0.0066,-0.0240,0.0071,1236,1497,1500,1502,1000,1000,1505,1000,1000,1979,1205,2008,1104,-0.2538,-0.9422,-0.5391,0.1115,-0.0173,0.9853,0.2605,0.2595,0.2257,0.1982,0.2204,0.0082,0.0438,0.2204,0.0082,0.0438,0.3000,0.0600,0.0002,0,-3.5685,-143.5000,-0.0071,-3.5685,-143.5000,-0.0071
2.1650,10.6614,0.1458,0.0686,-0.1371,-0.1800,0.0000,0.6400,0.2360,-0.0068,-0.0245,0.0111,1236,1497,1500,1502,1000,1000,1505,1000,1000,1979,1205,2008,1103,0.0664,0.4364,-1.7985,0.0079,0.0281,1.0178,0.2649,0.2561,0.2294,0.1936,0.2204,0.0082,0.0438,0.2204,0.0082,0.0438,0.3000,0.0600,0.0002,0,-3.5685,-143.5000,-0.0071,-3.5685,-143.5000,-0.0071
2.1495,10.6047,0.1303,0.0000,0.2057,-0.1800,0.0000,0.6400,0.2360,-0.0070,-0.0237,0.0084,1236,1497,1500,1502,1000,1000,1505,1000,1000,1979,1205,2008,1103,0.7018,-1.2053,-0.8877,-0.0689,0.0570,1.0336,0.2610,0.2583,0.2277,0.1970,0.2204,0.0082,0.0438,0.2204,0.0082,0.0438,0.3000,0.0600,0.0002,0,-3.5685,-143.5000,-0.0071,-3.5685,-143.5000,-0.0071
2.1440,10.5496,0.1198,0.0000,0.1371,-0.1800,0.0000,0.6400,0.2360,-0.0064,-0.0231,0.0067,1238,1499,1501,1504,1000,1000,1505,1000,1000,1979,1205,2008,1103,-0.6026,-2.3104,-0.5456,0.0080,-0.0538,1.0188,0.2594,0.2588,0.2261,0.1998,0.2204,0.0082,0.0438,0.2204,0.0082,0.0438,0.3000,0.0600,0.0002,0,-3.5685,-143.5000,-0.0071,-3.5685,-143.5000,-0.0071
2.1454,10.4914,0.1145,0.1371,-0.0000,-0.1800,0.0000,0.6400,0.2360,-0.0071,-0.0237,0.0057,1236,1497,1500,1502,1000,1000,1505,1000,1000,1979,1205,2008,1103,0.9023,-0.5306,-0.3434,0.0353,-0.0517,0.9167,0.2584,0.2611,0.2251,0.1994,0.2204,0.0082,0.0438,0.2204,0.0082,0.0438,0.3000,0.0600,0.0002,0,-3.5685,-143.5000,-0.0071,-3.5685,-143.5000,-0.0071
2.1333,10.4404,0.1084,0.0000,-0.1371,-0.1800,0.0000,0.6400,0.2360,-0.0070,-0.0235,0.0048,1236,1497,1500,1502,1000,1000,1505,1000,1000,1979,1205,2008,1103,0.7716,-0.9616,0.1636,0.0205,0.0346,1.0547,0.2572,0.2617,0.2243,0.2008,0.2204,0.0082,0.0438,0.2204,0.0082,0.0438,0.3000,0.0600,0.0002,0,-3.5685,-143.5000,-0.0071,-3.5685,-143.5000,-0.0071
2.1229,10.3952,0.1097,0.0000,0.1371,-0.1800,0.0000,0.6400,0.2360,-0.0065,-0.0241,0.0048,1236,1497,1500,1502,1000,1000,1505,1000,1000,1979,1205,2008,1103,-0.3282,0.7234,0.3421,-0.0786,0.0181,1.0084,0.2584,0.2618,0.2232,0.2006,0.2204,0.0082,0.0438,0.2204,0.0082,0.0438,0.3000,0.0600,0.0002,0,-3.5685,-143.5000,-0.0071,-3.5685,-143.5000,-0.0071
2.1234,10.3492,0.1104,-0.0686,0.0686,-0.1800,0.0000,0.6400,0.2360,-0.0069,-0.0235,0.0053,1236,1497,1500,1502,1000,1000,1505,1000,1000,1979,1205,2008,1103,0.5900,-0.5008,0.0082,-0.0298,-0.0147,1.0022,0.2579,0.2611,0.2247,0.2003,0.2204,0.0082,0.0438,0.2204,0.0082,0.0438,0.3000,0.0600,0.0002,0,-3.5685,-143.5000,-0.0071,-3.5685,-143.5000,-0.0071
2.1122,10.3033,0.1143,0.0000,0.2057,-0.1800,0.0000,0.6400,0.2360,-0.0068,-0.0236,0.0027,1236,1497,1500,1502,1000,1000,1505,1000,1000,1979,1205,2008,1103,0.4113,0.0773,0.9396,0.0574,-0.0384,0.9867,0.2555,0.2638,0.2218,0.2029,0.2204,0.0082,0.0438,0.2204,0.0082,0.0438,0.3000,0.0600,0.0002,0,-3.5685,-143.5000,-0.0071,-3.5685,-143.5000,-0.0071
2.1156,10.2543,0.1221,0.0686,-0.0000,-0.1800,0.0000,0.6400,0.2360,-0.0066,-0.0230,0.0040,1238,1499,1501,1504,1000,1000,1505,1000,1000,1979,1205,2008,1103,0.0253,-1.1481,0.4839,0.0461,0.0566,1.0380,0.2564,0.2616,0.2237,0.2023,0.2204,0.0082,0.0438,0.2204,0.0082,0.0438,0.3000,0.0600,0.0002,0,-3.5685,-143.5000,-0.0071,-3.5685,-143.5000,-0.0071
2.0985,10.2100,0.1280,-0.0686,-0.0686,-0.1800,0.0000,0.6400,0.2360,-0.0072,-0.0242,0.0016,1236,1497,1500,1502,1000,1000,1505,1000,1000,1979,1205,2008,1103,1.3334,1.9230,0.9509,-0.0690,-0.0651,0.9584,0.2546,0.2659,0.2205,0.2030,0.2204,0.0082,0.0438,0.2204,0.0082,0.0438,0.3000,0.0600,0.0002,0,-3.5685,-143.5000,-0.0071,-3.5685,-143.5000,-0.0071
2.1032,10.1594,0.1388,0.0000,0.0686,-0.1800,0.0000,0.6400,0.2360,-0.0060,-0.0224,0.0020,1236,1497,1500,1502,1000,1000,1505,1000,1000,1979,1205,2008,1103,-1.4553,-1.9581,1.0453,0.0095,0.0378,1.0357,0.2545,0.2624,0.2215,0.2056,0.2204,0.0082,0.0438,0.2204,0.0082,0.0438,0.3000,0.0600,0.0002,0,-3.5685,-143.5000,-0.0071,-3.5685,-143.5000,-0.0071
2.0847,10.1346,0.1426,-0.1371,-0.0686,-0.1800,0.0000,0.6400,0.2360,-0.0070,-0.0238,0.0037,1236,1497,1500,1502,1000,1000,1505,1000,1000,1979,1205,2008,1103,1.0967,1.1448,0.5634,0.0748,-0.0621,0.9034,0.2564,0.2631,0.2230,0.2015,0.2204,0.0082,0.0438,0.2204,0.0082,0.0438,0.3000,0.0600,0.0002,0,-3.5685,-143.5000,-0.0071,-3.5685,-143.5000,-0.0071
2.0791,10.0855,0.1478,0.0000,0.0686,-0.1800,0.0000,0.6400,0.2360,-0.0059,-0.0242,0.0045,1236,1497,1500,1502,1000,1000,1505,1000,1000,1979,1205,2008,1103,-1.4653,2.3761,0.5019,-0.0950,0.0354,0.9849,0.2588,0.2616,0.2222,0.2014,0.2204,0.0082,0.0438,0.2204,0.0082,0.0438,0.3000,0.0600,0.0002,0,-3.5685,-143.5000,-0.0071,-3.5685,-143.5000,-0.0071
2.0659,10.0712,0.1500,-0.0686,-0.0686,-0.1800,0.0000,0.6400,0.2360,-0.0064,-0.0227,0.0055,1236,1497,1500,1502,1000,1000,1505,1000,1000,1979,1205,2008,1103,-0.2809,-0.9885,0.1678,-0.0360,0.0321,1.0384,0.2578,0.2596,0.2252,0.2014,0.2204,0.0082,0.0438,0.2204,0.0082,0.0438,0.3000,0.0600,0.0002,0,-3.5685,-143.5000,-0.0071,-3.5685,-143.5000,-0.0071
2.0480,10.0345,0.1471,0.0000,-0.0686,-0.1800,0.0000,0.6400,0.2360,-0.0062,-0.0248,0.0067,1238,1499,1501,1504,1000,1000,1505,1000,1000,1979,1205,2008,1103,-0.6205,3.9514,-0.3464,0.0778,-0.0680,0.9203,0.2613,0.2603,0.2241,0.1983,0.2204,0.0082,0.0438,0.2204,0.0082,0.0438,0.3000,0.0600,0.0002,0,-3.5685,-143.5000,-0.0071,-3.5685,-143.5000,-0.0071
2.0447,9.9799,0.1409,0.0000,0.0686,-0.1800,0.0000,0.6400,0.2360,-0.0064,-0.0216,0.0076,1236,1497,1500,1502,1000,1000,1505,1000,1000,1979,1205,2008,1103,-0.2452,-2.9886,-0.9709,0.0144,0.0632,1.0947,0.2588,0.2565,0.2283,0.2004,0.2204,0.0082,0.0438,0.2204,0.0082,0.0438,0.3000,0.0600,0.0002,0,-3.5685,-143.5000,-0.0071,-3.5685,-143.5000,-0.0071
2.0163,9.9350,0.1311,0.0000,0.1371,-0.1800,0.0000,0.6400,0.2360,-0.0067,-0.0235,0.0072,1236,1497,1500,1502,1000,1000,1505,1000,1000,1979,1205,2008,1103,0.6598,1.4863,-0.5245,-0.0274,0.0188,0.9173,0.2600,0.2590,0.2264,0.1986,0.2204,0.0082,0.0438,0.2204,0.0082,0.0438,0.3000,0.0600,0.0002,0,-3.5685,-143.5000,-0.0071,-3.5685,-143.5000,-0.0071
2.0093,9.8646,0.1251,0.0686,-0.0000,-0.1800,0.0000,0.6400,0.2360,-0.0055,-0.0219,0.0066,1236,1497,1500,1502,1000,1000,1505,1000,1000,1979,1205,2008,1103,-2.1867,-1.8363,-0.4638,0.0258,-0.0002,1.0383,0.2591,0.2568,0.2261,0.2020,0.2204,0.0082,0.0438,0.2204,0.0082,0.0438,0.3000,0.0600,0.0002,0,-3.5685,-143.5000,-0.0071,-3.5685,-143.5000,-0.0071
1.9946,9.8348,0.1230,-0.0686,0.0686,-0.1800,0.0000,0.6400,0.2360,-0.0069,-0.0219,0.0050,1236,1497,1500,1502,1000,1000,1505,1000,1000,1979,1205,2008,1103,1.1303,-1.6774,0.1247,0.0114,-0.0119,1.0341,0.2561,0.2598,0.2260,0.2022,0.2204,0.0082,0.0438,0.2204,0.0082,0.0438,0.3000,0.0600,0.0002,0,-3.5685,-143.5000,-0.0071,-3.5685,-143.5000,-0.0071
1.9753,9.7678,0.1178,-0.0686,0.2057,-0.1800,0.0000,0.6400,0.2360,-0.0057,-0.0228,0.0056,1236,1497,1500,1502,1000,1000,1505,1000,1000,1979,1205,2008,1103,-1.4369,0.7212,-0.0595,0.0194,-0.0289,0.9673,0.2587,0.2589,0.2245,0.2018,0.2204,0.0082,0.0438,0.2204,0.0082,0.0438,0.3000,0.0600,0.0002,0,-3.5685,-143.5000,-0.0071,-3.5685,-143.5000,-0.0071
1.9678,9.7242,0.1149,0.0000,0.0686,-0.1800,0.0000,0.6400,0.2360,-0.0067,-0.0211,0.0063,1237,1499,1501,1504,1000,1000,1505,1000,1000,1979,1205,2008,1103,0.7803,-3.1327,-0.1125,-0.0437,0.0386,1.0873,0.2567,0.2574,0.2279,0.2019,0.2204,0.0082,0.0438,0.2204,0.0082,0.0438,0.3000,0.0600,0.0002,0,-3.5685,-143.5000,-0.0071,-3.5685,-143.5000,-0.0071
1.9466,9.6608,0.1082,-0.0686,-0.0686,-0.1800,0.0000,0.6400,0.2360,-0.0064,-0.0232,0.0048,1236,1497,1500,1502,1000,1000,1505,1000,1000,1979,1205,2008,1103,0.1759,2.0381,-0.0422,-0.0594,-0.0615,0.9393,0.2576,0.2607,0.2240,0.2016,0.2204,0.0082,0.0438,0.2204,0.0082,0.0438,0.3000,0.0600,0.0002,0,-3.5685,-143.5000,-0.0071,-3.5685,-143.5000,-0.0071
1.9466,9.6054,0.1075,0.0000,-0.0686,-0.1800,0.0000,0.6400,0.2360,-0.0062,-0.0208,0.0063,1236,1497,1500,1502,1000,1000,1505,1000,1000,1979,1205,2008,1103,-0.2814,-3.1945,-0.1390,0.0695,0.0279,1.0166,0.2570,0.2566,0.2277,0.2027,0.2204,0.0082,0.0438,0.2204,0.0082,0.0438,0.3000,0.0600,0.0002,0,-3.5685,-143.5000,-0.0071,-3.5685,-143.5000,-0.0071
1.9300,9.5624,0.1068,-0.0686,-0.0000,-0.1800,0.0000,0.6400,0.2360,-0.0064,-0.0228,0.0045,1236,1497,1500,1502,1000,1000,1505,1000,1000,1979,1205,2008,1103,0.4171,1.5151,0.3375,-0.0127,-0.0262,1.0199,0.2568,0.2607,0.2241,0.2023,0.2204,0.0082,0.0438,0.2204,0.0082,0.0438,0.3000,0.0600,0.0002,0,-3.5685,-143.5000,-0.0071,-3.5685,-143.5000,-0.0071
1.9253,9.4987,0.1128,0.0000,0.0686,-0.1800,0.0000,0.6400,0.2360,-0.0060,-0.0219,0.0041,1236,1497,1500,1502,1000,1000,1505,1000,1000,1979,1205,2008,1103,-0.5403,-0.0924,0.5125,-0.0254,0.0526,0.9465,0.2560,0.2598,0.2242,0.2040,0.2204,0.0082,0.0438,0.2204,0.0082,0.0438,0.3000,0.0600,0.0002,0,-3.5685,-143.5000,-0.0071,-3.5685,-143.5000,-0.0071
1.9181,9.4609,0.1185,0.0000,0.0686,-0.1800,0.0000,0.6400,0.2360,-0.0065,-0.0210,0.0034,1236,1497,1500,1502,1000,1000,1505,1000,1000,1979,1205,2008,1103,0.6557,-1.9897,0.6575,-0.0150,-0.0332,1.0912,0.2539,0.2602,0.2249,0.2051,0.2204,0.0082,0.0438,0.2204,0.0082,0.0438,0.3000,0.0600,0.0002,0,-3.5685,-143.5000,-0.0071,-3.5685,-143.5000,-0.0071
1.9095,9.4001,0.1235,-0.0686,-0.0686,-0.1800,0.0000,0.6400,0.2360,-0.0065,-0.0225,0.0026,1237,1499,1501,1504,1000,1000,1505,1000,1000,1979,1205,2008,1103,0.7311,1.7812,0.9613,0.0253,0.0414,0.9129,0.2547,0.2624,0.2226,0.2043,0.2204,0.0082,0.0438,0.2204,0.0082,0.0438,0.3000,0.0600,0.0002,0,-3.5685,-143.5000,-0.0071,-3.5685,-143.5000,-0.0071
1.9006,9.3527,0.1286,0.0000,-0.0000,-0.1800,0.0000,0.6400,0.2360,-0.0062,-0.0201,0.0042,1236,1497,1500,1502,1000,1000,1505,1000,1000,1979,1205,2008,1103,0.0317,-3.6688,0.1351,0.0233,-0.0469,1.0365,0.2541,0.2580,0.2264,0.2055,0.2204,0.0082,0.0438,0.2204,0.0082,0.0438,0.3000,0.0600,0.0002,0,-3.5685,-143.5000,-0.0071,-3.5685,-143.5000,-0.0071
1.9006,9.3059,0.1321,0.0000,0.2057,-0.1800,0.0000,0.6400,0.2360,-0.0060,-0.0228,0.0033,1236,1497,1500,1502,1000,1000,1505,1000,1000,1979,1205,2008,1103,-0.4052,2.8840,0.7712,-0.0148,0.0236,1.0003,0.2561,0.2616,0.2224,0.2039,0.2204,0.0082,0.0438,0.2204,0.0082,0.0438,0.3000,0.0600,0.0002,0,-3.5685,-143.5000,-0.0071,-3.5685,-143.5000,-0.0071
1.8855,9.2538,0.1336,0.0000,-0.0686,-0.1800,0.0000,0.6400,0.2360,-0.0063,-0.0203,0.0068,1236,1497,1500,1502,1000,1000,1505,1000,1000,1979,1205,2008,1103,0.4083,-2.5580,-0.4057,0.0417,0.0095,0.9287,0.2568,0.2558,0.2288,0.2025,0.2204,0.0082,0.0438,0.2204,0.0082,0.0438,0.3000,0.0600,0.0002,0,-3.5685,-143.5000,-0.0071,-3.5685,-143.5000,-0.0071
1.8761,9.2244,0.1331,-0.1371,-0.2057,-0.1800,0.0000,0.6400,0.2360,-0.0053,-0.0221,0.0050,1236,1497,1500,1502,1000,1000,1505,1000,1000,1979,1205,2008,1103,-1.8831,1.6764,0.2167,-0.0052,-0.0106,1.0991,0.2578,0.2585,0.2242,0.2036,0.2204,0.0082,0.0438,0.2204,0.0082,0.0438,0.3000,0.0600,0.0002,0,-3.5685,-143.5000,-0.0071,-3.5685,-143.5000,-0.0071
1.8618,9.1720,0.1298,0.0000,-0.0686,-0.1800,0.0000,0.6400,0.2360,-0.0067,-0.0216,0.0058,1236,1497,1500,1502,1000,1000,1505,1000,1000,1979,1205,2008,1103,1.3339,0.5835,-0.1024,-0.0130,0.0230,0.9093,0.2567,0.2584,0.2270,0.2019,0.2204,0.0082,0.0438,0.2204,0.0082,0.0438,0.3000,0.0600,0.0002,0,-3.5685,-143.5000,-0.0071,-3.5685,-143.5000,-0.0071
1.8409,9.1384,0.1244,-0.0686,-0.2743,-0.1800,0.0000,0.6400,0.2360,-0.0057,-0.0208,0.0062,1238,1499,1501,1504,1000,1000,1505,1000,1000,1979,1205,2008,1103,-0.8017,-1.0393,-0.1544,0.0005,-0.0433,1.0844,0.2572,0.2563,0.2271,0.2033,0.2204,0.0082,0.0438,0.2204,0.0082,0.0438,0.3000,0.0600,0.0002,0,-3.5685,-143.5000,-0.0071,-3.5685,-143.5000,-0.0071
1.8382,9.0926,0.1198,0.0686,-0.0000,-0.1800,0.0000,0.6400,0.2360,-0.0059,-0.0219,0.0054,1236,1497,1500,1502,1000,1000,1505,1000,1000,1979,1205,2008,1103,-0.3324,1.6965,-0.2626,-0.0061,0.0501,0.9540,0.2574,0.2584,0.2255,0.2028,0.2204,0.0082,0.0438,0.2204,0.0082,0.0438,0.3000,0.0600,0.0002,0,-3.5685,-143.5000,-0.0071,-3.5685,-143.5000,-0.0071
1.8110,9.0422,0.1101,0.0000,-0.0000,-0.1800,0.0000,0.6400,0.2360,-0.0062,-0.0205,0.0077,1236,1497,1500,1502,1000,1000,1505,1000,1000,1979,1205,2008,1103,0.4559,-1.1413,-0.6226,0.0345,-0.0330,0.9956,0.2580,0.2551,0.2293,0.2016,0.2204,0.0082,0.0438,0.2204,0.0082,0.0438,0.3000,0.0600,0.0002,0,-3.5685,-143.5000,-0.0071,-3.5685,-143.5000,-0.0071
1.8028,9.0115,0.1082,0.0000,-0.0000,-0.1800,0.0000,0.6400,0.2360,-0.0049,-0.0213,0.0072,1236,1497,1500,1502,1000,1000,1505,1000,1000,1979,1205,2008,1103,-2.5776,0.7592,-0.3721,-0.0112,0.0389,1.0388,0.2597,0.2550,0.2267,0.2026,0.2204,0.0082,0.0438,0.2204,0.0082,0.0438,0.3000,0.0600,0.0002,0,-3.5685,-143.5000,-0.0071,-3.5685,-143.5000,-0.0071
1.7871,8.9512,0.0997,-0.0686,0.2057,-0.1800,0.0000,0.6400,0.2360,-0.0066,-0.0213,0.0064,1236,1497,1500,1502,1000,1000,1505,1000,1000,1979,1205,2008,1103,1.4726,0.9464,-0.3314,-0.0038,-0.0617,0.9670,0.2571,0.2575,0.2277,0.2017,0.2204,0.0082,0.0438,0.2204,0.0082,0.0438,0.3000,0.0600,0.0002,0,-3.5685,-143.5000,-0.0071,-3.5685,-143.5000,-0.0071
1.7662,8.9181,0.0998,0.0000,-0.0000,-0.1800,0.0000,0.6400,0.2360,-0.0057,-0.0200,0.0061,1236,1497,1500,1502,1000,1000,1505,1000,1000,1979,1205,2008,1103,-0.5637,-1.8604,-0.0550,-0.0029,0.0593,1.0327,0.2564,0.2555,0.2278,0.2042,0.2204,0.0082,0.0438,0.2204,0.0082,0.0438,0.3000,0.0600,0.0002,0,-3.5685,-143.5000,-0.0071,-3.5685,-143.5000,-0.0071
1.7713,8.8614,0.0947,0.0000,0.2057,-0.1800,0.0000,0.6400,0.2360,-0.0058,-0.0213,0.0060,1237,1499,1501,1504,1000,1000,1505,1000,1000,1979,1205,2008,1103,-0.3211,1.3539,-0.2920,0.0279,-0.0432,1.0130,0.2575,0.2570,0.2266,0.2029,0.2204,0.0082,0.0438,0.2204,0.0082,0.0438,0.3000,0.0600,0.0002,0,-3.5685,-143.5000,-0.0071,-3.5685,-143.5000,-0.0071
1.7508,8.8115,0.0943,0.0686,0.0686,-0.1800,0.0000,0.6400,0.2360,-0.0068,-0.0196,0.0031,1236,1497,1500,1502,1000,1000,1505,1000,1000,1979,1205,2008,1103,2.0193,-2.3047,0.5363,0.0192,0.0299,0.9589,0.2518,0.2593,0.2263,0.2066,0.2204,0.0082,0.0438,0.2204,0.0082,0.0438,0.3000,0.0600,0.0002,0,-3.5685,-143.5000,-0.0071,-3.5685,-143.5000,-0.0071
1.7538,8.7691,0.0937,0.0000,-0.0000,-0.1800,0.0000,0.6400,0.2360,-0.0048,-0.0207,0.0072,1236,1497,1500,1502,1000,1000,1505,1000,1000,1979,1205,2008,1103,-2.5638,0.4905,-0.5361,0.0047,-0.0167,1.0096,0.2591,0.2543,0.2273,0.2033,0.2204,0.0082,0.0438,0.2204,0.0082,0.0438,0.3000,0.0600,0.0002,0,-3.5685,-143.5000,-0.0071,-3.5685,-143.5000,-0.0071
1.7510,8.7105,0.0910,0.0000,0.2057,-0.1800,0.0000,0.6400,0.2360,-0.0071,-0.0203,0.0041,1236,1497,1500,1502,1000,1000,1505,1000,1000,1979,1205,2008,1103,2.7503,-0.1761,0.4916,-0.0341,0.0081,0.9459,0.2533,0.2593,0.2269,0.2045,0.2204,0.0082,0.0438,0.2204,0.0082,0.0438,0.3000,0.0600,0.0002,0,-3.5685,-143.5000,-0.0071,-3.5685,-143.5000,-0.0071
1.7356,8.6728,0.0929,-0.0686,-0.0000,-0.1800,0.0000,0.6400,0.2360,-0.0055,-0.0197,0.0067,1236,1497,1500,1502,1000,1000,1505,1000,1000,1979,1205,2008,1103,-0.8390,-1.2896,-0.2935,0.0082,-0.0188,0.9805,0.2570,0.2545,0.2285,0.2040,0.2204,0.0082,0.0438,0.2204,0.0082,0.0438,0.3000,0.0600,0.0002,0,-3.5685,-143.5000,-0.0071,-3.5685,-143.5000,-0.0071
1.7457,8.6144,0.0889,0.0000,0.0686,-0.1800,0.0000,0.6400,0.2360,-0.0061,-0.0208,0.0046,1236,1497,1500,1502,1000,1000,1505,1000,1000,1979,1205,2008,1103,0.6114,1.3598,0.2874,-0.0246,0.0060,1.0609,0.2552,0.2583,0.2260,0.2045,0.2204,0.0082,0.0438,0.2204,0.0082,0.0438,0.3000,0.0600,0.0002,0,-3.5685,-143.5000,-0.0071,-3.5685,-143.5000,-0.0071
1.7271,8.5720,0.0910,0.0000,0.0686,-0.1800,0.0000,0.6400,0.2360,-0.0068,-0.0193,0.0059,1237,1499,1501,1504,1000,1000,1505,1000,1000,1979,1205,2008,1104,2.2339,-1.7047,-0.0877,0.0235,-0.0092,0.9499,0.2544,0.2563,0.2294,0.2040,0.2204,0.0082,0.0438,0.2204,0.0082,0.0438,0.3000,0.0600,0.0002,0,-3.5685,-143.5000,-0.0071,-3.5685,-143.5000,-0.0071
1.7305,8.5204,0.0865,0.0000,0.1371,-0.1800,0.0000,0.6400,0.2360,-0.0051,-0.0203,0.0048,1236,1497,1500,1502,1000,1000,1505,1000,1000,1979,1205,2008,1104,-1.7795,0.7747,-0.0419,-0.0350,-0.0020,1.1004,0.2561,0.2565,0.2256,0.2058,0.2204,0.0082,0.0438,0.2204,0.0082,0.0438,0.3000,0.0600,0.0002,0,-3.5685,-143.5000,-0.0071,-3.5685,-143.5000,-0.0071
1.7211,8.4780,0.0871,0.0686,0.2057,-0.1800,0.0000,0.6400,0.2360,-0.0073,-0.0195,0.0059,1236,1497,1500,1502,1000,1000,1505,1000,1000,1979,1205,2008,1103,3.4042,-0.8366,0.0646,0.0408,0.0292,0.9443,0.2541,0.2570,0.2297,0.2033,0.2204,0.0082,0.0438,0.2204,0.0082,0.0438,0.3000,0.0600,0.0002,0,-3.5685,-143.5000,-0.0071,-3.5685,-143.5000,-0.0071
1.7052,8.4290,0.0835,0.0000,-0.0686,-0.1800,0.0000,0.6400,0.2360,-0.0050,-0.0199,0.0068,1236,1497,1500,1502,1000,1000,1505,1000,1000,1979,1205,2008,1103,-1.9197,0.1831,-0.4044,-0.0515,-0.0650,1.0066,0.2577,0.2540,0.2279,0.2044,0.2204,0.0082,0.0438,0.2204,0.0082,0.0438,0.3000,0.0600,0.0002,0,-3.5685,-143.5000,-0.0071,-3.5685,-143.5000,-0.0071
1.7040,8.3908,0.0850,0.0686,-0.0686,-0.1800,0.0000,0.6400,0.2360,-0.0061,-0.0199,0.0045,1236,1497,1500,1502,1000,1000,1505,1000,1000,1979,1205,2008,1103,0.7788,0.5043,0.4770,0.0215,0.0420,0.9805,0.2543,0.2576,0.2267,0.2055,0.2204,0.0082,0.0438,0.2204,0.0082,0.0438,0.3000,0.0600,0.0002,0,-3.5685,-143.5000,-0.0071,-3.5685,-143.5000,-0.0071
1.6855,8.3431,0.0848,-0.1371,-0.1371,-0.1800,0.0000,0.6400,0.2360,-0.0058,-0.0196,0.0072,1236,1497,1500,1502,1000,1000,1505,1000,1000,1979,1205,2008,1103,0.1024,0.0709,-0.6024,0.0160,-0.0409,0.9565,0.2571,0.2542,0.2294,0.2033,0.2204,0.0082,0.0438,0.2204,0.0082,0.0438,0.3000,0.0600,0.0002,0,-3.5685,-143.5000,-0.0071,-3.5685,-143.5000,-0.0071
1.6744,8.3061,0.0871,0.0686,0.1371,-0.1800,0.0000,0.6400,0.2360,-0.0046,-0.0197,0.0021,1237,1499,1501,1504,1000,1000,1505,1000,1000,1979,1205,2008,1103,-2.5746,0.3115,1.1539,-0.0296,0.0038,1.0296,0.2531,0.2582,0.2230,0.2097,0.2204,0.0082,0.0438,0.2204,0.0082,0.0438,0.3000,0.0600,0.0002,0,-3.5685,-143.5000,-0.0071,-3.5685,-143.5000,-0.0071
1.6676,8.2621,0.0925,-0.1371,-0.1371,-0.1800,0.0000,0.6400,0.2360,-0.0064,-0.0197,0.0046,1236,1497,1500,1502,1000,1000,1505,1000,1000,1979,1205,2008,1103,1.5176,0.5974,0.0730,0.0395,0.0298,1.0009,0.2539,0.2575,0.2273,0.2053,0.2204,0.0082,0.0438,0.2204,0.0082,0.0438,0.3000,0.0600,0.0002,0,-3.5685,-143.5000,-0.0071,-3.5685,-143.5000,-0.0071
1.6415,8.2203,0.0938,-0.0686,-0.0686,-0.1800,0.0000,0.6400,0.2360,-0.0050,-0.0195,0.0026,1236,1497,1500,1502,1000,1000,1505,1000,1000,1979,1205,2008,1103,-1.5358,0.2327,0.9627,-0.0361,-0.0340,0.9956,0.2531,0.2578,0.2242,0.2089,0.2204,0.0082,0.0438,0.2204,0.0082,0.0438,0.3000,0.0600,0.0002,0,-3.5685,-143.5000,-0.0071,-3.5685,-143.5000,-0.0071
1.6463,8.1808,0.0995,-0.0686,-0.0686,-0.1800,0.0000,0.6400,0.2360,-0.0054,-0.0193,0.0057,1236,1497,1500,1502,1000,1000,1505,1000,1000,1979,1205,2008,1104,-0.7091,0.0076,0.0770,0.0152,0.0333,1.0725,0.2556,0.2549,0.2278,0.2056,0.2204,0.0082,0.0438,0.2204,0.0082,0.0438,0.3000,0.0600,0.0002,0,-3.5685,-143.5000,-0.0071,-3.5685,-143.5000,-0.0071
1.6109,8.1337,0.0949,0.0000,0.2057,-0.1800,0.0000,0.6400,0.2360,-0.0061,-0.0193,0.0054,1236,1497,1500,1502,1000,1000,1505,1000,1000,1979,1205,2008,1104,1.1806,0.3621,0.0939,-0.0062,-0.0359,0.9724,0.2546,0.2561,0.2281,0.2052,0.2204,0.0082,0.0438,0.2204,0.0082,0.0438,0.3000,0.0600,0.0002,0,-3.5685,-143.5000,-0.0071,-3.5685,-143.5000,-0.0071
1.6141,8.0880,0.0961,0.0686,0.0686,-0.1800,0.0000,0.6400,0.2360,-0.0041,-0.0185,0.0069,1236,1497,1500,1502,1000,1000,1505,1000,1000,1979,1205,2008,1103,-3.3873,-1.3099,-0.4177,-0.0283,0.0177,1.0625,0.2573,0.2517,0.2285,0.2064,0.2204,0.0082,0.0438,0.2204,0.0082,0.0438,0.3000,0.0600,0.0002,0,-3.5685,-143.5000,-0.0071,-3.5685,-143.5000,-0.0071
1.5922,8.0381,0.0889,0.0000,0.1371,-0.1800,0.0000,0.6400,0.2360,-0.0070,-0.0191,0.0051,1237,1499,1501,1504,1000,1000,1505,1000,1000,1979,1205,2008,1103,3.2504,0.2951,0.1245,0.0174,-0.0411,1.0173,0.2532,0.2570,0.2289,0.2048,0.2204,0.0082,0.0438,0.2204,0.0082,0.0438,0.3000,0.0600,0.0002,0,-3.5685,-143.5000,-0.0071,-3.5685,-143.5000,-0.0071
1.5837,7.9880,0.0894,0.0000,-0.0686,-0.1800,0.0000,0.6400,0.2360,-0.0044,-0.0187,0.0054,1236,1497,1500,1502,1000,1000,1505,1000,1000,1979,1205,2008,1103,-2.5467,-0.4035,-0.2181,-0.0231,0.0520,0.9561,0.2557,0.2537,0.2271,0.2075,0.2204,0.0082,0.0438,0.2204,0.0082,0.0438,0.3000,0.0600,0.0002,0,-3.5685,-143.5000,-0.0071,-3.5685,-143.5000,-0.0071
1.5845,7.9389,0.0832,0.0000,0.0686,-0.1800,0.0000,0.6400,0.2360,-0.0062,-0.0184,0.0053,1236,1497,1500,1502,1000,1000,1505,1000,1000,1979,1205,2008,1103,1.5306,-0.8542,0.0172,0.0234,-0.0364,1.0569,0.2535,0.2553,0.2291,0.2060,0.2204,0.0082,0.0438,0.2204,0.0082,0.0438,0.3000,0.0600,0.0002,0,-3.5685,-143.5000,-0.0071,-3.5685,-143.5000,-0.0071
1.5633,7.8884,0.0802,0.0000,0.1371,-0.1800,0.0000,0.6400,0.2360,-0.0054,-0.0193,0.0056,1236,1497,1500,1502,1000,1000,1505,1000,1000,1979,1205,2008,1103,-0.2230,1.4021,0.0188,-0.0087,0.0335,0.8971,0.2555,0.2551,0.2277,0.2057,0.2204,0.0082,0.0438,0.2204,0.0082,0.0438,0.3000,0.0600,0.0002,0,-3.5685,-143.5000,-0.0071,-3.5685,-143.5000,-0.0071
1.5788,7.8358,0.0746,0.0000,-0.0000,-0.1800,0.0000,0.6400,0.2360,-0.0052,-0.0174,0.0087,1236,1497,1500,1502,1000,1000,1505,1000,1000,1979,1205,2008,1103,-0.6825,-2.7475,-0.9004,0.0028,-0.0004,1.0976,0.2569,0.2499,0.2326,0.2047,0.2204,0.0082,0.0438,0.2204,0.0082,0.0438,0.3000,0.0600,0.0002,0,-3.5685,-143.5000,-0.0071,-3.5685,-143.5000,-0.0071
1.5572,7.7957,0.0686,0.0000,0.2057,-0.1800,0.0000,0.6400,0.2360,-0.0065,-0.0193,0.0049,1236,1497,1500,1502,1000,1000,1505,1000,1000,1979,1205,2008,1103,2.1951,1.7897,0.2874,-0.0141,-0.0016,0.9490,0.2537,0.2569,0.2280,0.2054,0.2204,0.0082,0.0438,0.2204,0.0082,0.0438,0.3000,0.0600,0.0002,0,-3.5685,-143.5000,-0.0071,-3.5685,-143.5000,-0.0071
1.5661,7.7367,0.0656,0.0000,0.0686,-0.1800,0.0000,0.6400,0.2360,-0.0050,-0.0171,0.0089,1238,1499,1501,1504,1000,1000,1505,1000,1000,1979,1205,2008,1103,-1.1225,-2.8201,-1.0081,0.0197,0.0061,1.0204,0.2570,0.2493,0.2327,0.2050,0.2204,0.0082,0.0438,0.2204,0.0082,0.0438,0.3000,0.0600,0.0002,0,-3.5685,-143.5000,-0.0071,-3.5685,-143.5000,-0.0071
1.5534,7.7060,0.0595,0.0000,-0.0686,-0.1800,0.0000,0.6400,0.2360,-0.0065,-0.0186,0.0032,1236,1497,1500,1502,1000,1000,1505,1000,1000,1979,1205,2008,1103,2.3914,0.6127,0.4550,-0.0292,-0.0371,1.0478,0.2512,0.2579,0.2271,0.2077,0.2204,0.0082,0.0438,0.2204,0.0082,0.0438,0.3000,0.0600,0.0002,0,-3.5685,-143.5000,-0.0071,-3.5685,-143.5000,-0.0071
1.5467,7.6449,0.0594,0.0686,0.1371,-0.1800,0.0000,-1.6000,0.2360,-0.0050,-0.0181,0.0005,1236,1497,1500,1495,1000,1000,1505,1000,1000,1979,1205,2008,1103,-1.0694,-0.1742,-0.3945,0.0015,0.0151,0.9361,0.2496,0.2586,0.2234,0.2124,0.2204,0.0082,0.0438,0.2204,0.0082,0.0438,0.3000,0.0600,0.0002,0,-3.5685,-143.5000,-0.0071,-3.5685,-143.5000,-0.0071
1.5374,7.6140,0.0553,0.0000,0.1371,-0.1800,0.0000,-2.5600,0.2360,-0.0058,-0.0177,-0.0048,1236,1497,1500,1492,1000,1000,1505,1000,1000,1979,1205,2008,1103,0.8211,-0.9368,0.2869,-0.0086,-0.0349,1.0803,0.2431,0.2643,0.2193,0.2173,0.2204,0.0082,0.0438,0.2204,0.0082,0.0438,0.3000,0.0600,0.0002,0,-3.5685,-143.5000,-0.0071,-3.5685,-143.5000,-0.0071
1.5269,7.5636,0.0561,0.0000,-0.0686,-0.1800,0.0000,-4.1600,0.2360,-0.0052,-0.0190,-0.0077,1236,1497,1500,1487,1000,1000,1505,1000,1000,1979,1205,2008,1103,-0.6249,2.2330,-0.2457,0.0111,0.0464,0.9043,0.2421,0.2679,0.2144,0.2196,0.2204,0.0082,0.0438,0.2204,0.0082,0.0438,0.3000,0.0600,0.0002,0,-3.5685,-143.5000,-0.0071,-3.5685,-143.5000,-0.0071
1.5108,7.5223,0.0507,0.0000,0.1371,-0.1800,0.0000,-4.8000,0.2360,-0.0052,-0.0170,-0.0092,1236,1497,1500,1485,1000,1000,1505,1000,1000,1979,1205,2008,1103,-0.4042,-2.2170,-0.4426,0.0102,-0.0510,1.0364,0.2386,0.2674,0.2151,0.2230,0.2204,0.0082,0.0438,0.2204,0.0082,0.0438,0.3000,0.0600,0.0002,0,-3.5685,-143.5000,-0.0071,-3.5685,-143.5000,-0.0071
1.5094,7.4874,0.0460,0.0000,-0.0000,-0.1800,0.0000,-4.8000,0.2360,-0.0050,-0.0190,-0.0070,1238,1499,1501,1485,1000,1000,1505,1000,1000,1979,1205,2008,1103,-0.8184,2.5408,-1.1382,-0.0082,0.0431,0.9986,0.2429,0.2670,0.2150,0.2190,0.2204,0.0082,0.0438,0.2204,0.0082,0.0438,0.3000,0.0600,0.0002,0,-3.5685,-143.5000,-0.0071,-3.5685,-143.5000,-0.0071
1.4822,7.4357,0.0279,0.1371,0.2057,-0.1800,0.0000,-4.8000,0.2460,-0.0056,-0.0174,-0.0066,1246,1497,1500,1485,1000,1000,1505,1000,1000,1979,1205,2008,1103,0.5741,-0.7646,-1.4944,-0.0348,-0.0373,0.9561,0.2512,0.2756,0.2275,0.2296,0.2204,0.0082,0.0438,0.2204,0.0082,0.0438,0.3000,0.0600,0.0002,0,-3.5685,-143.5000,-0.0071,-3.5685,-143.5000,-0.0071
1.4799,7.4122,0.0135,-0.1371,-0.2057,-0.1800,0.0000,-4.8000,0.2500,-0.0047,-0.0180,-0.0054,1250,1497,1500,1485,1000,1000,1505,1000,1000,1979,1205,2008,1103,-1.5177,0.6543,-1.7323,0.0376,0.0413,1.0791,0.2580,0.2780,0.2313,0.2327,0.2204,0.0082,0.0438,0.2204,0.0082,0.0438,0.3000,0.0600,0.0002,0,-3.5685,-143.5000,-0.0071,-3.5685,-143.5000,-0.0071
1.4500,7.3557,-0.0133,0.0000,-0.0686,-0.1800,0.0000,-3.2000,0.2510,-0.0059,-0.0182,-0.0005,1251,1497,1500,1490,1000,1000,1505,1000,1000,1979,1205,2008,1103,1.4528,1.3215,-1.8856,-0.0020,-0.0259,0.9492,0.2628,0.2755,0.2383,0.2274,0.2204,0.0082,0.0438,0.2204,0.0082,0.0438,0.3000,0.0600,0.0002,0,-3.5685,-143.5000,-0.0071,-3.5685,-143.5000,-0.0071
1.4363,7.3213,-0.0340,-0.0686,-0.1371,-0.1800,0.0000,-2.5600,0.2510,-0.0041,-0.0165,0.0023,1251,1497,1500,1492,1000,1000,1505,1000,1000,1979,1205,2008,1103,-2.5270,-2.2428,-2.0063,0.0233,0.0269,1.0537,0.2657,0.2694,0.2409,0.2281,0.2204,0.0082,0.0438,0.2204,0.0082,0.0438,0.3000,0.0600,0.0002,0,-3.5685,-143.5000,-0.0071,-3.5685,-143.5000,-0.0071
1.4212,7.2677,-0.0568,0.0686,0.0686,-0.1800,0.0000,-2.5600,0.2510,-0.0055,-0.0181,0.0004,1251,1497,1500,1492,1000,1000,1505,1000,1000,1979,1205,2008,1103,0.6154,1.4998,-1.4614,0.0023,-0.0309,0.9971,0.2640,0.2741,0.2388,0.2271,0.2204,0.0082,0.0438,0.2204,0.0082,0.0438,0.3000,0.0600,0.0002,0,-3.5685,-143.5000,-0.0071,-3.5685,-143.5000,-0.0071
1.4006,7.2157,-0.0712,0.0000,0.2743,-0.1800,0.0000,-2.5600,0.2510,-0.0050,-0.0164,-0.0009,1253,1499,1501,1494,1000,1000,1505,1000,1000,1979,1205,2008,1103,-0.4137,-2.0839,-1.0142,0.0374,0.0472,0.9510,0.2615,0.2733,0.2387,0.2306,0.2204,0.0082,0.0438,0.2204,0.0082,0.0438,0.3000,0.0600,0.0002,0,-3.5685,-143.5000,-0.0071,-3.5685,-143.5000,-0.0071
1.3908,7.1747,-0.0751,-0.0686,0.2057,-0.1800,0.0000,-2.5600,0.2510,-0.0048,-0.0174,-0.0057,1251,1497,1500,1492,1000,1000,1505,1000,1000,1979,1205,2008,1103,-0.7907,0.4038,0.2165,-0.0302,-0.0284,1.0972,0.2579,0.2789,0.2327,0.2345,0.2204,0.0082,0.0438,0.2204,0.0082,0.0438,0.3000,0.0600,0.0002,0,-3.5685,-143.5000,-0.0071,-3.5685,-143.5000,-0.0071
1.3897,7.1184,-0.0695,0.0000,-0.0686,-0.1800,0.0000,-0.9600,0.2560,-0.0055,-0.0175,-0.0024,1256,1497,1500,1497,1000,1000,1505,1000,1000,1979,1205,2008,1103,0.9110,0.8462,1.0017,-0.0029,0.0060,0.9084,0.2655,0.2814,0.2417,0.2354,0.2204,0.0082,0.0438,0.2204,0.0082,0.0438,0.3000,0.0600,0.0002,0,-3.5685,-143.5000,-0.0071,-3.5685,-143.5000,-0.0071
1.3719,7.0745,-0.0561,0.0000,0.1371,-0.1800,0.0000,0.0000,0.2600,-0.0052,-0.0161,-0.0009,1260,1497,1500,1500,1000,1000,1505,1000,1000,1979,1205,2008,1103,0.2043,-1.9539,1.5343,-0.0200,-0.0083,1.0436,0.2701,0.2822,0.2481,0.2396,0.2204,0.0082,0.0438,0.2204,0.0082,0.0438,0.3000,0.0600,0.0002,0,-3.5685,-143.5000,-0.0071,-3.5685,-143.5000,-0.0071
1.3810,7.0243,-0.0392,0.0686,0.0686,-0.1800,0.0000,0.0000,0.2610,-0.0047,-0.0177,-0.0015,1261,1497,1500,1500,1000,1000,1505,1000,1000,1979,1205,2008,1103,-1.0252,1.9282,1.6700,0.0126,-0.0087,0.9516,0.2726,0.2849,0.2465,0.2401,0.2204,0.0082,0.0438,0.2204,0.0082,0.0438,0.3000,0.0600,0.0002,0,-3.5685,-143.5000,-0.0071,-3.5685,-143.5000,-0.0071
1.3653,6.9702,-0.0212,0.0000,0.0686,-0.1800,0.0000,0.0000,0.2610,-0.0063,-0.0160,-0.0026,1261,1497,1500,1500,1000,1000,1505,1000,1000,1979,1205,2008,1103,2.6714,-1.7450,2.0852,0.0203,0.0143,0.9808,0.2681,0.2859,0.2486,0.2414,0.2204,0.0082,0.0438,0.2204,0.0082,0.0438,0.3000,0.0600,0.0002,0,-3.5685,-143.5000,-0.0071,-3.5685,-143.5000,-0.0071
1.3620,6.9334,-0.0008,-0.0686,0.0686,-0.1800,0.0000,0.0000,0.2660,-0.0041,-0.0170,-0.0018,1268,1499,1501,1501,1000,1000,1505,1000,1000,1979,1205,2008,1103,-2.2277,0.7697,1.8151,-0.0129,-0.0065,0.9963,0.2771,0.2890,0.2512,0.2467,0.2204,0.0082,0.0438,0.2204,0.0082,0.0438,0.3000,0.0600,0.0002,0,-3.5685,-143.5000,-0.0071,-3.5685,-143.5000,-0.0071
1.3750,6.8688,0.0176,0.0000,0.0686,-0.1800,0.0000,0.0000,0.2660,-0.0062,-0.0165,-0.0009,1266,1497,1500,1500,1000,1000,1505,1000,1000,1979,1205,2008,1103,2.4710,-0.2618,1.5361,0.0015,0.0029,1.0110,0.2754,0.2895,0.2549,0.2442,0.2204,0.0082,0.0438,0.2204,0.0082,0.0438,0.3000,0.0600,0.0002,0,-3.5685,-143.5000,-0.0071,-3.5685,-143.5000,-0.0071
1.3553,6.8337,0.0337,0.0000,-0.0686,-0.1800,0.0000,0.0000,0.2660,-0.0053,-0.0156,-0.0012,1266,1497,1500,1500,1000,1000,1505,1000,1000,1979,1205,2008,1103,0.4066,-2.0511,1.6127,0.0246,0.0010,0.9719,0.2751,0.2881,0.2544,0.2464,0.2204,0.0082,0.0438,0.2204,0.0082,0.0438,0.3000,0.0600,0.0002,0,-3.5685,-143.5000,-0.0071,-3.5685,-143.5000,-0.0071
1.3526,6.7746,0.0445,0.0000,-0.0000,-0.1800,0.0000,0.0000,0.2710,-0.0044,-0.0170,-0.0003,1271,1497,1500,1500,1000,1000,1505,1000,1000,1979,1205,2008,1103,-1.4695,1.3939,1.1911,0.0106,-0.0274,1.0070,0.2833,0.2927,0.2582,0.2499,0.2204,0.0082,0.0438,0.2204,0.0082,0.0438,0.3000,0.0600,0.0002,0,-3.5685,-143.5000,-0.0071,-3.5685,-143.5000,-0.0071
1.3292,6.7343,0.0552,0.0686,-0.0000,-0.1800,0.0000,0.0000,0.2740,-0.0059,-0.0151,0.0007,1274,1497,1500,1500,1000,1000,1505,1000,1000,1979,1205,2008,1103,2.0980,-2.6165,0.9760,-0.0271,-0.0330,1.0520,0.2839,0.2944,0.2654,0.2523,0.2204,0.0082,0.0438,0.2204,0.0082,0.0438,0.3000,0.0600,0.0002,0,-3.5685,-143.5000,-0.0071,-3.5685,-143.5000,-0.0071
1.3200,6.6885,0.0627,0.0000,-0.1371,-0.1800,0.0000,0.0000,0.2750,-0.0040,-0.0176,0.0003,1275,1497,1500,1500,1000,1000,1505,1000,1000,1979,1205,2008,1103,-2.2410,3.2733,1.0770,0.0303,0.0345,0.9980,0.2889,0.2964,0.2617,0.2531,0.2204,0.0082,0.0438,0.2204,0.0082,0.0438,0.3000,0.0600,0.0002,0,-3.5685,-143.5000,-0.0071,-3.5685,-143.5000,-0.0071
1.3059,6.6366,0.0685,0.0686,-0.0686,-0.1800,0.0000,0.0000,0.2750,-0.0055,-0.0151,0.0016,1280,1499,1501,1501,1000,1000,1505,1000,1000,1979,1205,2008,1103,1.2424,-2.2736,0.6546,-0.0518,-0.0134,1.0283,0.2862,0.2940,0.2670,0.2528,0.2204,0.0082,0.0438,0.2204,0.0082,0.0438,0.3000,0.0600,0.0002,0,-3.5685,-143.5000,-0.0071,-3.5685,-143.5000,-0.0071
1.2966,6.6044,0.0764,0.0000,-0.0000,-0.1800,0.0000,0.0000,0.2810,-0.0046,-0.0165,0.0021,1281,1497,1500,1500,1000,1000,1505,1000,1000,1979,1205,2008,1103,-0.8078,1.1567,0.5599,0.0106,-0.0071,1.0027,0.2951,0.3000,0.2712,0.2577,0.2204,0.0082,0.0438,0.2204,0.0082,0.0438,0.3000,0.0600,0.0002,0,-3.5685,-143.5000,-0.0071,-3.5685,-143.5000,-0.0071
1.2903,6.5408,0.0788,0.0000,-0.0686,-0.1800,0.0000,0.0000,0.2810,-0.0047,-0.0160,0.0029,1281,1497,1500,1500,1000,1000,1505,1000,1000,1979,1205,2008,1103,-0.4887,0.3505,0.2454,0.0467,0.0079,0.9923,0.2952,0.2988,0.2726,0.2573,0.2204,0.0082,0.0438,0.2204,0.0082,0.0438,0.3000,0.0600,0.0002,0,-3.5685,-143.5000,-0.0071,-3.5685,-143.5000,-0.0071
1.2675,6.5089,0.0823,-0.0686,-0.1371,-0.1800,0.0000,0.0000,0.2810,-0.0050,-0.0147,0.0028,1281,1497,1500,1500,1000,1000,1505,1000,1000,1979,1205,2008,1103,0.1789,-2.6219,0.2204,-0.0379,0.0077,0.9549,0.2935,0.2978,0.2741,0.2585,0.2204,0.0082,0.0438,0.2204,0.0082,0.0438,0.3000,0.0600,0.0002,0,-3.5685,-143.5000,-0.0071,-3.5685,-143.5000,-0.0071
1.2637,6.4499,0.0833,0.0000,0.1371,-0.1800,0.0000,0.0000,0.2810,-0.0044,-0.0170,0.0028,1281,1497,1500,1500,1000,1000,1505,1000,1000,1979,1205,2008,1103,-0.9936,2.8720,0.1902,0.0208,-0.0450,1.0625,0.2963,0.2996,0.2713,0.2568,0.2204,0.0082,0.0438,0.2204,0.0082,0.0438,0.3000,0.0600,0.0002,0,-3.5685,-143.5000,-0.0071,-3.5685,-143.5000,-0.0071
1.2459,6.4023,0.0812,-0.1371,-0.2057,-0.1800,0.0000,0.0000,0.2810,-0.0051,-0.0141,0.0043,1281,1497,1500,1500,1000,1000,1505,1000,1000,1979,1205,2008,1103,0.6630,-3.4090,-0.1989,0.0238,-0.0145,0.9800,0.2943,0.2959,0.2763,0.2575,0.2204,0.0082,0.0438,0.2204,0.0082,0.0438,0.3000,0.0600,0.0002,0,-3.5685,-143.5000,-0.0071,-3.5685,-143.5000,-0.0071
1.2281,6.3679,0.0750,0.0000,0.1371,-0.1800,0.0000,0.6400,0.2810,-0.0044,-0.0165,0.0072,1283,1499,1501,1502,1000,1000,1505,1000,1000,1979,1205,2008,1103,-0.8876,2.2212,-0.5941,0.0073,0.0026,0.9150,0.3003,0.2947,0.2761,0.2529,0.2204,0.0082,0.0438,0.2204,0.0082,0.0438,0.3000,0.0600,0.0002,0,-3.5685,-143.5000,-0.0071,-3.5685,-143.5000,-0.0071
1.2184,6.3034,0.0646,0.0000,-0.0000,-0.1800,0.0000,0.6400,0.2810,-0.0050,-0.0152,0.0086,1281,1497,1500,1502,1000,1000,1505,1000,1000,1979,1205,2008,1103,0.5631,-0.5082,-0.9463,-0.0326,-0.0151,1.1016,0.2998,0.2926,0.2795,0.2522,0.2204,0.0082,0.0438,0.2204,0.0082,0.0438,0.3000,0.0600,0.0002,0,-3.5685,-143.5000,-0.0071,-3.5685,-143.5000,-0.0071
1.2054,6.2743,0.0528,-0.0686,-0.1371,-0.1800,0.0000,0.6400,0.2810,-0.0046,-0.0146,0.0094,1281,1497,1500,1502,1000,1000,1505,1000,1000,1979,1205,2008,1104,-0.3907,-1.7688,-1.2367,-0.0225,-0.0222,0.9591,0.3003,0.2908,0.2804,0.2525,0.2204,0.0082,0.0438,0.2204,0.0082,0.0438,0.3000,0.0600,0.0002,0,-3.5685,-143.5000,-0.0071,-3.5685,-143.5000,-0.0071
1.1972,6.2152,0.0385,0.0686,0.0686,-0.1800,0.0000,0.6400,0.2810,-0.0051,-0.0164,0.0082,1281,1497,1500,1502,1000,1000,1505,1000,1000,1979,1205,2008,1104,0.7241,2.7635,-1.0228,0.0248,0.0280,0.9687,0.3006,0.2943,0.2778,0.2513,0.2204,0.0082,0.0438,0.2204,0.0082,0.0438,0.3000,0.0600,0.0002,0,-3.5685,-143.5000,-0.0071,-3.5685,-143.5000,-0.0071
1.1863,6.1689,0.0262,0.0000,-0.0686,-0.1800,0.0000,0.6400,0.2810,-0.0049,-0.0136,0.0090,1281,1497,1500,1502,1000,1000,1505,1000,1000,1979,1205,2008,1103,0.4824,-3.5477,-1.1749,-0.0600,0.0008,1.0690,0.2986,0.2905,0.2814,0.2535,0.2204,0.0082,0.0438,0.2204,0.0082,0.0438,0.3000,0.0600,0.0002,0,-3.5685,-143.5000,-0.0071,-3.5685,-143.5000,-0.0071
1.1803,6.1319,0.0163,0.0000,-0.0000,-0.1800,0.0000,0.6400,0.2810,-0.0044,-0.0160,0.0084,1281,1497,1500,1502,1000,1000,1505,1000,1000,1979,1205,2008,1103,-0.6199,2.1659,-0.9155,0.0161,0.0178,0.9388,0.3009,0.2930,0.2778,0.2522,0.2204,0.0082,0.0438,0.2204,0.0082,0.0438,0.3000,0.0600,0.0002,0,-3.5685,-143.5000,-0.0071,-3.5685,-143.5000,-0.0071
1.1771,6.0693,0.0082,0.0000,0.2057,-0.1800,0.0000,0.6400,0.2810,-0.0053,-0.0148,0.0076,1283,1499,1501,1502,1000,1000,1505,1000,1000,1979,1205,2008,1103,1.2653,-0.3513,-0.6378,0.0109,-0.0557,1.0592,0.2981,0.2934,0.2791,0.2534,0.2204,0.0082,0.0438,0.2204,0.0082,0.0438,0.3000,0.0600,0.0002,0,-3.5685,-143.5000,-0.0071,-3.5685,-143.5000,-0.0071
1.1744,6.0410,0.0019,0.0000,-0.0000,-0.1800,0.0000,0.6400,0.2810,-0.0049,-0.0142,0.0066,1281,1497,1500,1502,1000,1000,1505,1000,1000,1979,1205,2008,1103,0.4456,-1.5271,-0.4002,-0.0080,0.0166,1.0072,0.2969,0.2934,0.2784,0.2553,0.2204,0.0082,0.0438,0.2204,0.0082,0.0438,0.3000,0.0600,0.0002,0,-3.5685,-143.5000,-0.0071,-3.5685,-143.5000,-0.0071
1.1679,5.9868,-0.0042,0.0000,0.1371,-0.1800,0.0000,0.6400,0.2810,-0.0048,-0.0161,0.0065,1281,1497,1500,1502,1000,1000,1505,1000,1000,1979,1205,2008,1103,0.3684,3.0779,-0.3496,-0.0215,0.0107,0.9744,0.2988,0.2954,0.2763,0.2535,0.2204,0.0082,0.0438,0.2204,0.0082,0.0438,0.3000,0.0600,0.0002,0,-3.5685,-143.5000,-0.0071,-3.5685,-143.5000,-0.0071
1.1665,5.9437,-0.0074,0.0000,-0.0000,-0.1800,0.0000,0.6400,0.2810,-0.0045,-0.0135,0.0066,1281,1497,1500,1502,1000,1000,1505,1000,1000,1979,1205,2008,1103,-0.4452,-2.6103,-0.3010,0.0304,-0.0497,1.0290,0.2966,0.2924,0.2786,0.2564,0.2204,0.0082,0.0438,0.2204,0.0082,0.0438,0.3000,0.0600,0.0002,0,-3.5685,-143.5000,-0.0071,-3.5685,-143.5000,-0.0071
1.1686,5.9117,-0.0078,0.0000,0.2057,-0.1800,0.0000,0.6400,0.2810,-0.0051,-0.0152,0.0051,1281,1497,1500,1502,1000,1000,1505,1000,1000,1979,1205,2008,1103,0.9162,1.5033,0.1716,0.0054,0.0145,0.8990,0.2962,0.2963,0.2759,0.2556,0.2204,0.0082,0.0438,0.2204,0.0082,0.0438,0.3000,0.0600,0.0002,0,-3.5685,-143.5000,-0.0071,-3.5685,-143.5000,-0.0071
1.1430,5.8547,-0.0077,0.0000,0.1371,-0.1800,0.0000,0.6400,0.2810,-0.0044,-0.0145,0.0047,1281,1497,1500,1502,1000,1000,1505,1000,1000,1979,1205,2008,1103,-0.5296,0.1201,0.3533,-0.0393,0.0329,1.0187,0.2958,0.2953,0.2755,0.2574,0.2204,0.0082,0.0438,0.2204,0.0082,0.0438,0.3000,0.0600,0.0002,0,-3.5685,-143.5000,-0.0071,-3.5685,-143.5000,-0.0071
1.1491,5.8211,-0.0047,0.0000,-0.0686,-0.1800,0.0000,0.6400,0.2840,-0.0039,-0.0136,0.0052,1285,1499,1501,1502,1000,1000,1505,1000,1000,1979,1205,2008,1103,-1.6323,-1.7520,0.1081,-0.0022,-0.0601,1.0469,0.2989,0.2963,0.2795,0.2612,0.2204,0.0082,0.0438,0.2204,0.0082,0.0438,0.3000,0.0600,0.0002,0,-3.5685,-143.5000,-0.0071,-3.5685,-143.5000,-0.0071
1.1463,5.7703,0.0004,0.0000,0.0686,-0.1800,0.0000,0.6400,0.2900,-0.0058,-0.0152,0.0036,1290,1497,1500,1502,1000,1000,1505,1000,1000,1979,1205,2008,1103,2.7370,2.0538,0.6185,-0.0112,0.0358,0.9642,0.3029,0.3075,0.2842,0.2654,0.2204,0.0082,0.0438,0.2204,0.0082,0.0438,0.3000,0.0600,0.0002,0,-3.5685,-143.5000,-0.0071,-3.5685,-143.5000,-0.0071
1.1224,5.7241,0.0039,0.0686,0.2057,-0.1800,0.0000,0.6400,0.2910,-0.0039,-0.0137,0.0041,1291,1497,1500,1502,1000,1000,1505,1000,1000,1979,1205,2008,1104,-1.6084,-1.1291,0.5131,-0.0417,0.0412,1.0181,0.3049,0.3045,0.2853,0.2694,0.2204,0.0082,0.0438,0.2204,0.0082,0.0438,0.3000,0.0600,0.0002,0,-3.5685,-143.5000,-0.0071,-3.5685,-143.5000,-0.0071
1.1302,5.6847,0.0065,0.0000,-0.0000,-0.1800,0.0000,0.6400,0.2910,-0.0042,-0.0143,0.0059,1291,1497,1500,1502,1000,1000,1505,1000,1000,1979,1205,2008,1104,-0.8383,0.3843,-0.1006,0.0408,-0.0593,0.9607,0.3070,0.3036,0.2869,0.2665,0.2204,0.0082,0.0438,0.2204,0.0082,0.0438,0.3000,0.0600,0.0002,0,-3.5685,-143.5000,-0.0071,-3.5685,-143.5000,-0.0071
1.1232,5.6290,0.0100,0.0000,-0.0686,-0.1800,0.0000,0.6400,0.2910,-0.0053,-0.0135,0.0060,1291,1497,1500,1502,1000,1000,1505,1000,1000,1979,1205,2008,1103,1.6686,-1.0886,-0.0221,0.0089,-0.0489,0.9903,0.3052,0.3038,0.2888,0.2662,0.2204,0.0082,0.0438,0.2204,0.0082,0.0438,0.3000,0.0600,0.0002,0,-3.5685,-143.5000,-0.0071,-3.5685,-143.5000,-0.0071
1.1086,5.5918,0.0073,0.0686,-0.1371,-0.1800,0.0000,0.6400,0.2910,-0.0038,-0.0136,0.0049,1291,1497,1500,1502,1000,1000,1505,1000,1000,1979,1205,2008,1103,-1.7826,-0.6080,0.2262,-0.0177,0.0038,1.0257,0.3057,0.3036,0.2860,0.2687,0.2204,0.0082,0.0438,0.2204,0.0082,0.0438,0.3000,0.0600,0.0002,0,-3.5685,-143.5000,-0.0071,-3.5685,-143.5000,-0.0071
1.0817,5.5513,0.0037,-0.1371,-0.2057,-0.1800,0.0000,0.6400,0.2910,-0.0051,-0.0145,0.0053,1296,1499,1501,1502,1000,1000,1505,1000,1000,1979,1205,2008,1103,1.3855,1.6453,0.0537,-0.0192,-0.1904,1.0202,0.3057,0.3054,0.2869,0.2661,0.2204,0.0082,0.0438,0.2204,0.0082,0.0438,0.3000,0.0600,0.0002,0,-3.5685,-143.5000,-0.0071,-3.5685,-143.5000,-0.0071
1.0333,5.5251,0.0022,0.0000,-0.0000,-0.1800,0.0000,0.6400,0.2960,-0.0041,-0.0130,0.0062,1296,1497,1500,1502,1000,1000,1505,1000,1000,1979,1205,2008,1103,-0.6023,-1.7915,-0.0821,0.0282,-0.0742,1.0332,0.3110,0.3069,0.2933,0.2727,0.2204,0.0082,0.0438,0.2204,0.0082,0.0438,0.3000,0.0600,0.0002,0,-3.5685,-143.5000,-0.0071,-3.5685,-143.5000,-0.0071
1.0287,5.4849,0.0027,-0.1371,-0.0686,-0.1800,0.0000,0.6400,0.2960,-0.0039,-0.0142,0.0044,1296,1497,1500,1502,1000,1000,1505,1000,1000,1979,1205,2008,1103,-1.0623,1.0719,0.4043,-0.0116,-0.0060,0.8809,0.3106,0.3097,0.2902,0.2735,0.2204,0.0082,0.0438,0.2204,0.0082,0.0438,0.3000,0.0600,0.0002,0,-3.5685,-143.5000,-0.0071,-3.5685,-143.5000,-0.0071
1.0027,5.4292,0.0021,0.0000,-0.1371,-0.1800,0.0000,0.6400,0.2960,-0.0050,-0.0135,0.0048,1296,1497,1500,1502,1000,1000,1505,1000,1000,1979,1205,2008,1103,1.5804,-0.1350,0.1758,-0.0151,0.0329,1.0649,0.3093,0.3097,0.2923,0.2726,0.2204,0.0082,0.0438,0.2204,0.0082,0.0438,0.3000,0.0600,0.0002,0,-3.5685,-143.5000,-0.0071,-3.5685,-143.5000,-0.0071
0.9894,5.3911,0.0023,0.0000,-0.0686,-0.1800,0.0000,0.6400,0.3010,-0.0032,-0.0124,0.0062,1301,1497,1500,1502,1000,1000,1505,1000,1000,1979,1205,2008,1103,-2.5806,-2.4659,-0.2148,0.0243,-0.0801,1.0387,0.3164,0.3104,0.2980,0.2792,0.2204,0.0082,0.0438,0.2204,0.0082,0.0438,0.3000,0.0600,0.0002,0,-3.5685,-143.5000,-0.0071,-3.5685,-143.5000,-0.0071
1.0029,5.3437,0.0018,0.0000,-0.0686,-0.1800,0.0000,0.6400,0.3010,-0.0051,-0.0143,0.0062,1301,1497,1500,1502,1000,1000,1505,1000,1000,1979,1205,2008,1103,1.7129,1.9965,-0.1435,-0.0163,-0.0263,0.8902,0.3164,0.3141,0.2980,0.2754,0.2204,0.0082,0.0438,0.2204,0.0082,0.0438,0.3000,0.0600,0.0002,0,-3.5685,-143.5000,-0.0071,-3.5685,-143.5000,-0.0071
0.9832,5.2936,-0.0016,0.0000,-0.0000,-0.1800,0.0000,0.6400,0.3010,-0.0046,-0.0130,0.0058,1303,1499,1501,1502,1000,1000,1505,1000,1000,1979,1205,2008,1103,0.7462,-0.7428,-0.0299,0.0368,0.0469,1.0817,0.3151,0.3128,0.2984,0.2776,0.2204,0.0082,0.0438,0.2204,0.0082,0.0438,0.3000,0.0600,0.0002,0,-3.5685,-143.5000,-0.0071,-3.5685,-143.5000,-0.0071
0.9721,5.2883,-0.0081,0.0686,0.1371,-0.1800,0.0000,0.6400,0.3060,-0.0032,-0.0129,0.0063,1306,1497,1500,1502,1000,1000,1505,1000,1000,1979,1205,2008,1103,-2.4052,-0.7853,-0.2940,-0.1412,0.0167,0.9989,0.3220,0.3159,0.3026,0.2836,0.2204,0.0082,0.0438,0.2204,0.0082,0.0438,0.3000,0.0600,0.0002,0,-3.5685,-143.5000,-0.0071,-3.5685,-143.5000,-0.0071
0.9897,5.2980,-0.0091,0.0686,-0.1371,-0.1800,0.0000,0.6400,0.3090,-0.0051,-0.0140,0.0081,1309,1497,1500,1502,1000,1000,1505,1000,1000,1979,1205,2008,1103,1.7003,1.6386,-0.7480,-0.2534,-0.0719,0.9097,0.3261,0.3200,0.3081,0.2818,0.2204,0.0082,0.0438,0.2204,0.0082,0.0438,0.3000,0.0600,0.0002,0,-3.5685,-143.5000,-0.0071,-3.5685,-143.5000,-0.0071
0.9782,5.3432,-0.0133,0.0686,0.2057,-0.1800,0.0000,0.6400,0.3100,-0.0041,-0.0130,0.0074,1310,1497,1500,1502,1000,1000,1505,1000,1000,1979,1205,2008,1103,-0.4376,-0.9483,-0.4947,-0.3512,-0.0289,1.1021,0.3263,0.3197,0.3085,0.2855,0.2204,0.0082,0.0438,0.2204,0.0082,0.0438,0.3000,0.0600,0.0002,0,-3.5685,-143.5000,-0.0071,-3.5685,-143.5000,-0.0071
0.9538,5.3685,-0.0235,-0.0686,0.2057,-0.1800,0.0000,0.6400,0.3100,-0.0041,-0.0135,0.0050,1310,1497,1500,1502,1000,1000,1505,1000,1000,1979,1205,2008,1103,-0.3333,0.1631,0.0831,0.0164,-0.0346,0.9907,0.3245,0.3226,0.3055,0.2874,0.2204,0.0082,0.0438,0.2204,0.0082,0.0438,0.3000,0.0600,0.0002,0,-3.5685,-143.5000,-0.0071,-3.5685,-143.5000,-0.0071
0.9100,5.3453,-0.0297,0.0000,-0.0000,-0.1800,0.0000,0.6400,0.3100,-0.0046,-0.0143,0.0071,1310,1497,1500,1502,1000,1000,1505,1000,1000,1979,1205,2008,1103,1.0708,1.9874,-0.5294,-0.0190,-0.1701,0.9462,0.3268,0.3218,0.3074,0.2840,0.2204,0.0082,0.0438,0.2204,0.0082,0.0438,0.3000,0.0600,0.0002,0,-3.5685,-143.5000,-0.0071,-3.5685,-143.5000,-0.0071
0.8658,5.3222,-0.0315,0.0000,0.0686,-0.1800,0.0000,0.6400,0.3100,-0.0034,-0.0128,0.0062,1310,1499,1501,1502,1000,1000,1505,1000,1000,1979,1205,2008,1103,-1.4673,-1.3149,-0.1759,0.0128,-0.2979,1.0456,0.3256,0.3200,0.3068,0.2876,0.2204,0.0082,0.0438,0.2204,0.0082,0.0438,0.3000,0.0600,0.0002,0,-3.5685,-143.5000,-0.0071,-3.5685,-143.5000,-0.0071
0.8242,5.3177,-0.0345,0.0686,0.2057,-0.1800,0.0000,0.6400,0.3100,-0.0039,-0.0131,0.0048,1310,1497,1500,1502,1000,1000,1505,1000,1000,1979,1205,2008,1103,-0.1683,-0.5973,0.3795,0.0692,-0.5079,0.9788,0.3240,0.3222,0.3056,0.2882,0.2204,0.0082,0.0438,0.2204,0.0082,0.0438,0.3000,0.0600,0.0002,0,-3.5685,-143.5000,-0.0071,-3.5685,-143.5000,-0.0071
0.7738,5.3026,-0.0398,0.0686,0.2057,-0.1800,0.0000,0.6400,0.3100,-0.0045,-0.0139,0.0048,1310,1497,1500,1502,1000,1000,1505,1000,1000,1979,1205,2008,1103,1.4262,1.2062,0.1892,0.0629,-0.0462,0.9755,0.3242,0.3236,0.3053,0.2869,0.2204,0.0082,0.0438,0.2204,0.0082,0.0438,0.3000,0.0600,0.0002,0,-3.5685,-143.5000,-0.0071,-3.5685,-143.5000,-0.0071
0.7390,5.2656,-0.0429,0.0686,0.1371,-0.1800,0.0000,0.6400,0.3100,-0.0032,-0.0131,0.0073,1310,1497,1500,1502,1000,1000,1505,1000,1000,1979,1205,2008,1103,-1.3411,-0.4368,-0.5254,-0.0544,0.0381,1.0419,0.3272,0.3189,0.3074,0.2864,0.2204,0.0082,0.0438,0.2204,0.0082,0.0438,0.3000,0.0600,0.0002,0,-3.5685,-143.5000,-0.0071,-3.5685,-143.5000,-0.0071
0.7386,5.2395,-0.0431,0.0000,-0.1371,-0.1800,0.0000,0.6400,0.3100,-0.0032,-0.0132,0.0061,1310,1497,1500,1502,1000,1000,1505,1000,1000,1979,1205,2008,1103,-1.1743,-0.0742,-0.1193,-0.0317,-0.1254,0.9297,0.3260,0.3204,0.3061,0.2875,0.2204,0.0082,0.0438,0.2204,0.0082,0.0438,0.3000,0.0600,0.0002,0,-3.5685,-143.5000,-0.0071,-3.5685,-143.5000,-0.0071
0.7482,5.2098,-0.0430,0.0686,0.0686,-0.1800,0.0000,0.6400,0.3100,-0.0039,-0.0133,0.0066,1310,1497,1500,1502,1000,1000,1505,1000,1000,1979,1205,2008,1103,0.3137,0.3787,-0.3031,0.0790,-0.1104,0.9844,0.3260,0.3206,0.3072,0.2861,0.2204,0.0082,0.0438,0.2204,0.0082,0.0438,0.3000,0.0600,0.0002,0,-3.5685,-143.5000,-0.0071,-3.5685,-143.5000,-0.0071
0.7431,5.1893,-0.0455,0.0000,0.2743,-0.1800,0.0000,0.6400,0.3100,-0.0041,-0.0131,0.0058,1310,1499,1501,1502,1000,1000,1505,1000,1000,1979,1205,2008,1103,0.6586,-0.0787,-0.0209,0.0272,0.1590,1.1008,0.3248,0.3214,0.3068,0.2871,0.2204,0.0082,0.0438,0.2204,0.0082,0.0438,0.3000,0.0600,0.0002,0,-3.5685,-143.5000,-0.0071,-3.5685,-143.5000,-0.0071
0.7260,5.1646,-0.0509,-0.0686,-0.1371,-0.1800,0.0000,0.6400,0.3100,-0.0032,-0.0135,0.0068,1310,1497,1500,1502,1000,1000,1505,1000,1000,1979,1205,2008,1103,-1.2021,0.8965,-0.4615,-0.0786,0.1167,0.9734,0.3271,0.3198,0.3066,0.2865,0.2204,0.0082,0.0438,0.2204,0.0082,0.0438,0.3000,0.0600,0.0002,0,-3.5685,-143.5000,-0.0071,-3.5685,-143.5000,-0.0071
0.7286,5.1310,-0.0564,0.0000,0.2057,-0.1800,0.0000,0.6400,0.3100,-0.0037,-0.0129,0.0084,1310,1497,1500,1502,1000,1000,1505,1000,1000,1979,1205,2008,1103,-0.1757,-0.1989,-0.9035,-0.0063,-0.1596,0.9311,0.3277,0.3181,0.3092,0.2850,0.2204,0.0082,0.0438,0.2204,0.0082,0.0438,0.3000,0.0600,0.0002,0,-3.5685,-143.5000,-0.0071,-3.5685,-143.5000,-0.0071
0.7314,5.1115,-0.0604,-0.0686,-0.0686,-0.1800,0.0000,0.6400,0.3100,-0.0040,-0.0125,0.0070,1310,1497,1500,1502,1000,1000,1505,1000,1000,1979,1205,2008,1103,0.4787,-0.9634,-0.4321,0.0776,-0.0851,1.0681,0.3256,0.3195,0.3084,0.2865,0.2204,0.0082,0.0438,0.2204,0.0082,0.0438,0.3000,0.0600,0.0002,0,-3.5685,-143.5000,-0.0071,-3.5685,-143.5000,-0.0071
0.7240,5.0997,-0.0625,0.0686,-0.0000,-0.1800,0.0000,0.6400,0.3100,-0.0038,-0.0129,0.0047,1310,1497,1500,1502,1000,1000,1505,1000,1000,1979,1205,2008,1104,0.1257,-0.1479,0.3868,0.0828,0.1149,1.1008,0.3238,0.3220,0.3056,0.2886,0.2204,0.0082,0.0438,0.2204,0.0082,0.0438,0.3000,0.0600,0.0002,0,-3.5685,-143.5000,-0.0071,-3.5685,-143.5000,-0.0071
0.7090,5.0744,-0.0659,0.0000,-0.0686,-0.1800,0.0000,0.6400,0.3100,-0.0034,-0.0130,0.0053,1310,1497,1500,1502,1000,1000,1505,1000,1000,1979,1205,2008,1104,-0.7763,0.2868,0.0231,-0.1242,0.0772,0.9535,0.3249,0.3211,0.3056,0.2883,0.2204,0.0082,0.0438,0.2204,0.0082,0.0438,0.3000,0.0600,0.0002,0,-3.5685,-143.5000,-0.0071,-3.5685,-143.5000,-0.0071
0.7102,5.0371,-0.0650,0.0000,0.1371,-0.1800,0.0000,0.6400,0.3100,-0.0036,-0.0127,0.0064,1310,1499,1501,1504,1000,1000,1505,1000,1000,1979,1205,2008,1103,-0.3577,-0.2325,-0.2175,-0.0663,-0.1436,0.9554,0.3256,0.3198,0.3073,0.2873,0.2204,0.0082,0.0438,0.2204,0.0082,0.0438,0.3000,0.0600,0.0002,0,-3.5685,-143.5000,-0.0071,-3.5685,-143.5000,-0.0071
0.7264,5.0209,-0.0613,0.0000,0.0686,-0.1800,0.0000,0.6400,0.3100,-0.0038,-0.0122,0.0049,1310,1497,1500,1502,1000,1000,1505,1000,1000,1979,1205,2008,1103,0.1613,-1.1931,0.0521,0.1539,-0.0705,1.0241,0.3233,0.3211,0.3065,0.2890,0.2204,0.0082,0.0438,0.2204,0.0082,0.0438,0.3000,0.0600,0.0002,0,-3.5685,-143.5000,-0.0071,-3.5685,-143.5000,-0.0071
0.7321,4.9996,-0.0605,0.0000,0.2057,-0.1800,0.0000,0.6400,0.3100,-0.0036,-0.0127,0.0045,1310,1497,1500,1502,1000,1000,1505,1000,1000,1979,1205,2008,1103,-0.3448,0.0297,0.3432,-0.0000,0.0426,1.0338,0.3237,0.3218,0.3054,0.2891,0.2204,0.0082,0.0438,0.2204,0.0082,0.0438,0.3000,0.0600,0.0002,0,-3.5685,-143.5000,-0.0071,-3.5685,-143.5000,-0.0071
0.7255,4.9619,-0.0615,0.0686,0.1371,-0.1800,0.0000,0.6400,0.3100,-0.0039,-0.0128,0.0056,1310,1497,1500,1502,1000,1000,1505,1000,1000,1979,1205,2008,1103,0.3156,0.3711,0.0410,-0.1144,0.1442,1.0000,0.3245,0.3211,0.3066,0.2878,0.2204,0.0082,0.0438,0.2204,0.0082,0.0438,0.3000,0.0600,0.0002,0,-3.5685,-143.5000,-0.0071,-3.5685,-143.5000,-0.0071
0.7208,4.9252,-0.0605,0.0000,-0.1371,-0.1800,0.0000,0.6400,0.3100,-0.0038,-0.0121,0.0059,1310,1497,1500,1502,1000,1000,1505,1000,1000,1979,1205,2008,1103,0.1000,-1.1540,-0.1392,0.0058,0.0077,1.0227,0.3242,0.3199,0.3076,0.2883,0.2204,0.0082,0.0438,0.2204,0.0082,0.0438,0.3000,0.0600,0.0002,0,-3.5685,-143.5000,-0.0071,-3.5685,-143.5000,-0.0071
0.7350,4.9015,-0.0574,0.0000,-0.0686,-0.1800,0.0000,0.6400,0.3100,-0.0036,-0.0126,0.0049,1310,1497,1500,1502,1000,1000,1505,1000,1000,1979,1205,2008,1103,-0.2764,0.2438,0.3037,0.0824,-0.1034,0.9742,0.3239,0.3213,0.3060,0.2888,0.2204,0.0082,0.0438,0.2204,0.0082,0.0438,0.3000,0.0600,0.0002,0,-3.5685,-143.5000,-0.0071,-3.5685,-143.5000,-0.0071
0.7557,4.8699,-0.0548,-0.0686,-0.0000,-0.1800,0.0000,0.6400,0.3100,-0.0042,-0.0125,0.0050,1310,1499,1501,1504,1000,1000,1505,1000,1000,1979,1205,2008,1103,0.8281,-0.0083,0.2288,-0.0069,-0.0626,0.9736,0.3233,0.3216,0.3067,0.2883,0.2204,0.0082,0.0438,0.2204,0.0082,0.0438,0.3000,0.0600,0.0002,0,-3.5685,-143.5000,-0.0071,-3.5685,-143.5000,-0.0071
0.7485,4.8403,-0.0540,0.0000,0.0686,-0.1800,0.0000,0.6400,0.3150,-0.0043,-0.0123,0.0037,1315,1497,1500,1502,1000,1000,1505,1000,1000,1979,1205,2008,1103,1.1891,-0.2956,0.2759,-0.0829,0.1667,1.0910,0.3267,0.3278,0.3108,0.2947,0.2204,0.0082,0.0438,0.2204,0.0082,0.0438,0.3000,0.0600,0.0002,0,-3.5685,-143.5000,-0.0071,-3.5685,-143.5000,-0.0071
0.7300,4.8109,-0.0530,0.0686,0.1371,-0.1800,0.0000,0.6400,0.3160,-0.0033,-0.0122,0.0054,1316,1497,1500,1502,1000,1000,1505,1000,1000,1979,1205,2008,1103,-1.0283,-0.3585,0.1055,0.0584,0.0693,0.9927,0.3303,0.3261,0.3125,0.2951,0.2204,0.0082,0.0438,0.2204,0.0082,0.0438,0.3000,0.0600,0.0002,0,-3.5685,-143.5000,-0.0071,-3.5685,-143.5000,-0.0071
0.7341,4.7834,-0.0483,0.0000,0.2057,-0.1800,0.0000,0.6400,0.3160,-0.0033,-0.0123,0.0043,1316,1497,1500,1502,1000,1000,1505,1000,1000,1979,1205,2008,1103,-1.1300,0.1398,0.4494,-0.0238,-0.2363,0.9205,0.3293,0.3273,0.3112,0.2961,0.2204,0.0082,0.0438,0.2204,0.0082,0.0438,0.3000,0.0600,0.0002,0,-3.5685,-143.5000,-0.0071,-3.5685,-143.5000,-0.0071
0.7401,4.7495,-0.0407,0.0000,-0.0000,-0.1800,0.0000,0.6400,0.3160,-0.0041,-0.0121,0.0044,1316,1497,1500,1502,1000,1000,1505,1000,1000,1979,1205,2008,1103,0.6277,-0.2237,0.5593,0.0369,-0.0823,1.0005,0.3285,0.3278,0.3123,0.2954,0.2204,0.0082,0.0438,0.2204,0.0082,0.0438,0.3000,0.0600,0.0002,0,-3.5685,-143.5000,-0.0071,-3.5685,-143.5000,-0.0071
0.7256,4.7299,-0.0358,0.0000,-0.0000,-0.1800,0.0000,0.6400,0.3160,-0.0040,-0.0119,0.0039,1316,1497,1500,1502,1000,1000,1505,1000,1000,1979,1205,2008,1103,0.6302,-0.6744,0.5678,-0.0067,0.1948,1.1404,0.3278,0.3280,0.3121,0.2962,0.2204,0.0082,0.0438,0.2204,0.0082,0.0438,0.3000,0.0600,0.0002,0,-3.5685,-143.5000,-0.0071,-3.5685,-143.5000,-0.0071
0.7080,4.7040,-0.0321,0.0000,-0.1371,-0.1800,0.0000,0.6400,0.3160,-0.0033,-0.0121,0.0044,1320,1499,1501,1504,1000,1000,1505,1000,1000,1979,1205,2008,1103,-0.8846,-0.0835,0.4864,-0.0196,0.0706,0.9716,0.3291,0.3270,0.3116,0.2962,0.2204,0.0082,0.0438,0.2204,0.0082,0.0438,0.3000,0.0600,0.0002,0,-3.5685,-143.5000,-0.0071,-3.5685,-143.5000,-0.0071
0.7162,4.6712,-0.0278,0.0686,0.0686,-0.1800,0.0000,0.6400,0.3210,-0.0036,-0.0121,0.0042,1321,1497,1500,1502,1000,1000,1505,1000,1000,1979,1205,2008,1104,-0.3124,0.0623,0.1914,-0.0053,-0.1850,0.8941,0.3337,0.3324,0.3168,0.3011,0.2204,0.0082,0.0438,0.2204,0.0082,0.0438,0.3000,0.0600,0.0002,0,-3.5685,-143.5000,-0.0071,-3.5685,-143.5000,-0.0071
0.7233,4.6376,-0.0258,0.0686,-0.0686,-0.1800,0.0000,0.6400,0.3260,-0.0042,-0.0118,0.0061,1326,1497,1500,1502,1000,1000,1505,1000,1000,1979,1205,2008,1104,1.0028,-0.4376,-0.0672,0.0196,-0.0211,1.0330,0.3397,0.3359,0.3245,0.3039,0.2204,0.0082,0.0438,0.2204,0.0082,0.0438,0.3000,0.0600,0.0002,0,-3.5685,-143.5000,-0.0071,-3.5685,-143.5000,-0.0071
0.7104,4.6053,-0.0287,0.0686,0.2743,-0.1800,0.0000,0.6400,0.3260,-0.0037,-0.0117,0.0063,1326,1497,1500,1502,1000,1000,1505,1000,1000,1979,1205,2008,1104,-0.1471,-0.3740,-0.2006,0.0235,0.1308,1.1219,0.3404,0.3351,0.3242,0.3043,0.2204,0.0082,0.0438,0.2204,0.0082,0.0438,0.3000,0.0600,0.0002,0,-3.5685,-143.5000,-0.0071,-3.5685,-143.5000,-0.0071
0.6924,4.5619,-0.0344,-0.2057,-0.1371,-0.1800,0.0000,0.6400,0.3260,-0.0032,-0.0115,0.0068,1326,1497,1500,1502,1000,1000,1505,1000,1000,1979,1205,2008,1104,-1.1336,-0.8102,-0.3680,-0.0445,0.0437,1.0029,0.3411,0.3338,0.3245,0.3045,0.2204,0.0082,0.0438,0.2204,0.0082,0.0438,0.3000,0.0600,0.0002,0,-3.5685,-143.5000,-0.0071,-3.5685,-143.5000,-0.0071
0.6977,4.5257,-0.0387,0.0000,0.1371,-0.1800,0.0000,0.6400,0.3260,-0.0036,-0.0115,0.0070,1326,1497,1500,1502,1000,1000,1505,1000,1000,1979,1205,2008,1103,-0.2036,-0.5483,-0.3880,0.0870,-0.0983,0.9242,0.3409,0.3341,0.3251,0.3039,0.2204,0.0082,0.0438,0.2204,0.0082,0.0438,0.3000,0.0600,0.0002,0,-3.5685,-143.5000,-0.0071,-3.5685,-143.5000,-0.0071
0.7065,4.4929,-0.0411,-0.0686,-0.0000,-0.1800,0.0000,0.6400,0.3260,-0.0038,-0.0119,0.0066,1328,1498,1501,1504,1000,1000,1505,1000,1000,1979,1205,2008,1103,0.2292,0.4609,-0.3070,0.0220,-0.0440,0.9822,0.3407,0.3351,0.3245,0.3037,0.2204,0.0082,0.0438,0.2204,0.0082,0.0438,0.3000,0.0600,0.0002,0,-3.5685,-143.5000,-0.0071,-3.5685,-143.5000,-0.0071
0.7145,4.4763,-0.0439,0.0000,-0.0000,-0.1800,0.0000,0.6400,0.3290,-0.0037,-0.0119,0.0051,1329,1497,1500,1502,1000,1000,1505,1000,1000,1979,1205,2008,1103,-0.1046,0.5313,-0.1359,-0.0867,0.0272,1.0288,0.3423,0.3394,0.3260,0.3083,0.2204,0.0082,0.0438,0.2204,0.0082,0.0438,0.3000,0.0600,0.0002,0,-3.5685,-143.5000,-0.0071,-3.5685,-143.5000,-0.0071
0.7232,4.4363,-0.0448,0.0000,-0.0686,-0.1800,0.0000,0.6400,0.3300,-0.0037,-0.0111,0.0057,1330,1497,1500,1502,1000,1000,1505,1000,1000,1979,1205,2008,1103,-0.1894,-1.0611,-0.0352,-0.1011,0.0527,1.0368,0.3431,0.3390,0.3283,0.3095,0.2204,0.0082,0.0438,0.2204,0.0082,0.0438,0.3000,0.0600,0.0002,0,-3.5685,-143.5000,-0.0071,-3.5685,-143.5000,-0.0071
0.7113,4.4255,-0.0442,0.0686,-0.0686,-0.1800,0.0000,0.6400,0.3310,-0.0037,-0.0111,0.0066,1331,1497,1500,1502,1000,1000,1505,1000,1000,1979,1205,2008,1103,0.0037,-1.0753,-0.1839,0.1643,-0.0226,0.9980,0.3449,0.3392,0.3302,0.3096,0.2204,0.0082,0.0438,0.2204,0.0082,0.0438,0.3000,0.0600,0.0002,0,-3.5685,-143.5000,-0.0071,-3.5685,-143.5000,-0.0071
0.7072,4.4204,-0.0439,0.0686,-0.0000,-0.1800,0.0000,0.6400,0.3310,-0.0037,-0.0119,0.0059,1331,1497,1500,1502,1000,1000,1505,1000,1000,1979,1205,2008,1103,0.0715,0.9381,0.0027,0.1067,0.0252,1.0041,0.3451,0.3408,0.3287,0.3094,0.2204,0.0082,0.0438,0.2204,0.0082,0.0438,0.3000,0.0600,0.0002,0,-3.5685,-143.5000,-0.0071,-3.5685,-143.5000,-0.0071
0.7039,4.3984,-0.0450,0.0000,-0.1371,-0.1800,0.0000,0.6400,0.3340,-0.0033,-0.0120,0.0052,1334,1497,1500,1502,1000,1000,1505,1000,1000,1979,1205,2008,1103,-0.9582,1.0962,0.1772,-0.1646,-0.0806,0.9529,0.3479,0.3440,0.3306,0.3135,0.2204,0.0082,0.0438,0.2204,0.0082,0.0438,0.3000,0.0600,0.0002,0,-3.5685,-143.5000,-0.0071,-3.5685,-143.5000,-0.0071
0.7178,4.3714,-0.0445,0.0686,-0.0000,-0.1800,0.0000,0.6400,0.3350,-0.0040,-0.0113,0.0053,1339,1498,1501,1502,1000,1000,1505,1000,1000,1979,1205,2008,1103,0.6115,-0.2078,0.1831,-0.1294,0.0010,0.9538,0.3476,0.3451,0.3329,0.3144,0.2204,0.0082,0.0438,0.2204,0.0082,0.0438,0.3000,0.0600,0.0002,0,-3.5685,-143.5000,-0.0071,-3.5685,-143.5000,-0.0071
0.7091,4.3621,-0.0437,-0.0686,0.2057,-0.1800,0.0000,0.6400,0.3400,-0.0040,-0.0108,0.0059,1340,1497,1500,1502,1000,1000,1505,1000,1000,1979,1205,2008,1103,0.5435,-1.4371,-0.0767,0.1486,0.0749,1.0710,0.3527,0.3489,0.3391,0.3194,0.2204,0.0082,0.0438,0.2204,0.0082,0.0438,0.3000,0.0600,0.0002,0,-3.5685,-143.5000,-0.0071,-3.5685,-143.5000,-0.0071
0.7039,4.3582,-0.0396,0.0000,0.2057,-0.1800,0.0000,0.6400,0.3400,-0.0040,-0.0112,0.0059,1340,1497,1500,1502,1000,1000,1505,1000,1000,1979,1205,2008,1103,0.7484,-0.3789,0.0203,0.1575,0.0450,1.0182,0.3531,0.3494,0.3387,0.3188,0.2204,0.0082,0.0438,0.2204,0.0082,0.0438,0.3000,0.0600,0.0002,0,-3.5685,-143.5000,-0.0071,-3.5685,-143.5000,-0.0071
0.7013,4.3418,-0.0363,0.0000,0.2057,-0.1800,0.0000,0.6400,0.3400,-0.0034,-0.0116,0.0046,1340,1497,1500,1502,1000,1000,1505,1000,1000,1979,1205,2008,1103,-0.6282,0.5450,0.4758,-0.1591,-0.0695,0.9673,0.3528,0.3505,0.3364,0.3204,0.2204,0.0082,0.0438,0.2204,0.0082,0.0438,0.3000,0.0600,0.0002,0,-3.5685,-143.5000,-0.0071,-3.5685,-143.5000,-0.0071
0.7046,4.3064,-0.0355,0.0000,-0.0000,-0.1800,0.0000,0.6400,0.3400,-0.0033,-0.0112,0.0041,1340,1497,1500,1502,1000,1000,1505,1000,1000,1979,1205,2008,1103,-0.8770,-0.2030,0.4836,-0.1050,-0.1159,0.9162,0.3520,0.3504,0.3362,0.3213,0.2204,0.0082,0.0438,0.2204,0.0082,0.0438,0.3000,0.0600,0.0002,0,-3.5685,-143.5000,-0.0071,-3.5685,-143.5000,-0.0071
0.6957,4.2864,-0.0360,0.0686,-0.0686,-0.1800,0.0000,0.6400,0.3400,-0.0037,-0.0113,0.0055,1340,1497,1500,1502,1000,1000,1505,1000,1000,1979,1205,2008,1103,-0.0653,0.1975,0.0749,0.0777,0.0764,1.0037,0.3532,0.3495,0.3378,0.3195,0.2204,0.0082,0.0438,0.2204,0.0082,0.0438,0.3000,0.0600,0.0002,0,-3.5685,-143.5000,-0.0071,-3.5685,-143.5000,-0.0071
0.6722,4.2627,-0.0387,0.0000,0.0686,-0.1800,0.0000,0.6400,0.3410,-0.0042,-0.0115,0.0066,1343,1498,1501,1504,1000,1000,1505,1000,1000,1979,1205,2008,1103,1.2167,0.5504,-0.3254,0.0035,0.1947,1.0455,0.3549,0.3500,0.3403,0.3188,0.2204,0.0082,0.0438,0.2204,0.0082,0.0438,0.3000,0.0600,0.0002,0,-3.5685,-143.5000,-0.0071,-3.5685,-143.5000,-0.0071
0.6545,4.2327,-0.0395,0.0000,-0.0000,-0.1800,0.0000,0.6400,0.3410,-0.0038,-0.0105,0.0057,1341,1497,1500,1502,1000,1000,1505,1000,1000,1979,1205,2008,1103,0.4754,-1.4689,-0.2444,-0.0269,-0.0839,1.0203,0.3534,0.3496,0.3400,0.3210,0.2204,0.0082,0.0438,0.2204,0.0082,0.0438,0.3000,0.0600,0.0002,0,-3.5685,-143.5000,-0.0071,-3.5685,-143.5000,-0.0071
0.6670,4.1975,-0.0392,0.0686,0.2057,-0.1800,0.0000,0.6400,0.3410,-0.0038,-0.0099,0.0059,1341,1497,1500,1502,1000,1000,1505,1000,1000,1979,1205,2008,1103,0.2640,-2.6697,0.0329,0.0030,-0.1640,1.0294,0.3530,0.3488,0.3407,0.3215,0.2204,0.0082,0.0438,0.2204,0.0082,0.0438,0.3000,0.0600,0.0002,0,-3.5685,-143.5000,-0.0071,-3.5685,-143.5000,-0.0071
0.6797,4.1852,-0.0398,0.0000,0.1371,-0.1800,0.0000,0.6400,0.3460,-0.0033,-0.0110,0.0058,1346,1497,1500,1502,1000,1000,1505,1000,1000,1979,1205,2008,1103,-0.8620,-0.1685,0.0407,0.0952,-0.0059,0.9884,0.3595,0.3545,0.3441,0.3260,0.2204,0.0082,0.0438,0.2204,0.0082,0.0438,0.3000,0.0600,0.0002,0,-3.5685,-143.5000,-0.0071,-3.5685,-143.5000,-0.0071
0.6927,4.1699,-0.0372,0.0000,0.1371,-0.1800,0.0000,0.6400,0.3490,-0.0035,-0.0120,0.0044,1349,1497,1500,1502,1000,1000,1505,1000,1000,1979,1205,2008,1103,-0.4973,2.1376,0.4132,-0.0422,0.0485,0.9929,0.3619,0.3601,0.3449,0.3292,0.2204,0.0082,0.0438,0.2204,0.0082,0.0438,0.3000,0.0600,0.0002,0,-3.5685,-143.5000,-0.0071,-3.5685,-143.5000,-0.0071
0.6869,4.1412,-0.0329,-0.0686,-0.2057,-0.1800,0.0000,0.6400,0.3500,-0.0041,-0.0115,0.0044,1350,1497,1500,1502,1000,1000,1505,1000,1000,1979,1205,2008,1103,1.0262,1.1278,0.4403,-0.0878,0.1392,0.9823,0.3618,0.3612,0.3471,0.3300,0.2204,0.0082,0.0438,0.2204,0.0082,0.0438,0.3000,0.0600,0.0002,0,-3.5685,-143.5000,-0.0071,-3.5685,-143.5000,-0.0071
0.6749,4.1004,-0.0265,0.0000,-0.0686,-0.1800,0.0000,0.6400,0.3500,-0.0040,-0.0102,0.0036,1350,1497,1501,1504,1000,1000,1505,1000,1000,1979,1205,2008,1103,0.7311,-1.4702,0.7752,-0.1050,-0.0459,1.0219,0.3598,0.3607,0.3473,0.3322,0.2204,0.0082,0.0438,0.2204,0.0082,0.0438,0.3000,0.0600,0.0002,0,-3.5685,-143.5000,-0.0071,-3.5685,-143.5000,-0.0071
0.6772,4.0834,-0.0163,-0.0686,-0.2057,-0.1800,0.0000,0.6400,0.3500,-0.0041,-0.0098,0.0009,1350,1497,1500,1502,1000,1000,1505,1000,1000,1979,1205,2008,1103,1.0190,-2.4616,1.2901,0.0710,-0.0349,0.9997,0.3566,0.3630,0.3453,0.3352,0.2204,0.0082,0.0438,0.2204,0.0082,0.0438,0.3000,0.0600,0.0002,0,-3.5685,-143.5000,-0.0071,-3.5685,-143.5000,-0.0071
0.6768,4.0712,-0.0041,0.0686,-0.0000,-0.1800,0.0000,0.6400,0.3500,-0.0036,-0.0102,0.0025,1350,1497,1500,1502,1000,1000,1505,1000,1000,1979,1205,2008,1103,-0.1352,-1.3525,1.0980,0.1107,-0.0574,1.0041,0.3591,0.3614,0.3458,0.3337,0.2204,0.0082,0.0438,0.2204,0.0082,0.0438,0.3000,0.0600,0.0002,0,-3.5685,-143.5000,-0.0071,-3.5685,-143.5000,-0.0071
0.6852,4.0519,0.0078,0.0686,-0.0686,-0.1800,0.0000,0.6400,0.3500,-0.0037,-0.0112,0.0026,1350,1497,1500,1502,1000,1000,1505,1000,1000,1979,1205,2008,1103,0.0864,0.9671,1.0069,-0.0257,0.0002,1.0288,0.3601,0.3623,0.3451,0.3325,0.2204,0.0082,0.0438,0.2204,0.0082,0.0438,0.3000,0.0600,0.0002,0,-3.5685,-143.5000,-0.0071,-3.5685,-143.5000,-0.0071
0.6881,4.0179,0.0192,0.0000,0.0686,-0.1800,0.0000,0.6400,0.3500,-0.0034,-0.0112,0.0036,1350,1497,1500,1502,1000,1000,1505,1000,1000,1979,1205,2008,1103,-0.6632,1.1635,0.7454,-0.0414,-0.0055,1.0306,0.3614,0.3610,0.3458,0.3318,0.2204,0.0082,0.0438,0.2204,0.0082,0.0438,0.3000,0.0600,0.0002,0,-3.5685,-143.5000,-0.0071,-3.5685,-143.5000,-0.0071
0.6951,3.9663,0.0321,0.0000,-0.0686,-0.1800,0.0000,0.6400,0.3500,-0.0038,-0.0109,0.0017,1350,1497,1500,1502,1000,1000,1505,1000,1000,1979,1205,2008,1104,0.1339,0.6279,1.5118,-0.0492,0.0068,0.9981,0.3588,0.3629,0.3446,0.3337,0.2204,0.0082,0.0438,0.2204,0.0082,0.0438,0.3000,0.0600,0.0002,0,-3.5685,-143.5000,-0.0071,-3.5685,-143.5000,-0.0071
0.6970,3.9191,0.0462,-0.0686,-0.0000,-0.1800,0.0000,0.6400,0.3500,-0.0039,-0.0103,0.0002,1350,1497,1501,1504,1000,1000,1505,1000,1000,1979,1205,2008,1103,0.5310,-0.4967,1.7904,0.0325,0.0082,0.9440,0.3565,0.3641,0.3438,0.3356,0.2204,0.0082,0.0438,0.2204,0.0082,0.0438,0.3000,0.0600,0.0002,0,-3.5685,-143.5000,-0.0071,-3.5685,-143.5000,-0.0071
0.6928,3.8755,0.0603,0.0686,0.0686,-0.1800,0.0000,0.6400,0.3540,-0.0043,-0.0097,0.0015,1354,1497,1500,1502,1000,1000,1505,1000,1000,1979,1205,2008,1103,1.3639,-1.5559,1.4088,0.0582,0.0515,0.9774,0.3610,0.3665,0.3501,0.3385,0.2204,0.0082,0.0438,0.2204,0.0082,0.0438,0.3000,0.0600,0.0002,0,-3.5685,-143.5000,-0.0071,-3.5685,-143.5000,-0.0071
0.6912,3.8332,0.0728,0.0000,-0.0000,-0.1800,0.0000,0.6400,0.3550,-0.0044,-0.0098,0.0026,1355,1497,1500,1502,1000,1000,1505,1000,1000,1979,1205,2008,1104,1.5113,-1.0818,1.0004,-0.0222,0.0547,1.0167,0.3631,0.3666,0.3521,0.3382,0.2204,0.0082,0.0438,0.2204,0.0082,0.0438,0.3000,0.0600,0.0002,0,-3.5685,-143.5000,-0.0071,-3.5685,-143.5000,-0.0071
0.6787,3.7942,0.0870,0.0686,0.0686,-0.1800,0.0000,0.6400,0.3590,-0.0045,-0.0099,0.0021,1359,1497,1500,1502,1000,1000,1505,1000,1000,1979,1205,2008,1104,1.7940,-0.7507,1.3320,-0.0288,0.0340,1.0306,0.3665,0.3713,0.3556,0.3426,0.2204,0.0082,0.0438,0.2204,0.0082,0.0438,0.3000,0.0600,0.0002,0,-3.5685,-143.5000,-0.0071,-3.5685,-143.5000,-0.0071
0.6807,3.7507,0.1028,0.1371,-0.0000,-0.1800,0.0000,0.6400,0.3600,-0.0037,-0.0100,0.0017,1360,1497,1500,1502,1000,1000,1505,1000,1000,1979,1205,2008,1103,0.1028,-0.2987,1.3604,0.0366,-0.1286,1.0232,0.3680,0.3720,0.3555,0.3445,0.2204,0.0082,0.0438,0.2204,0.0082,0.0438,0.3000,0.0600,0.0002,0,-3.5685,-143.5000,-0.0071,-3.5685,-143.5000,-0.0071
0.7029,3.7094,0.1189,0.0686,0.2057,-0.1800,0.0000,0.6400,0.3600,-0.0028,-0.0098,0.0005,1360,1497,1500,1502,1000,1000,1505,1000,1000,1979,1205,2008,1103,-2.0863,-0.5010,1.7772,0.0050,-0.1449,0.9720,0.3676,0.3721,0.3535,0.3468,0.2204,0.0082,0.0438,0.2204,0.0082,0.0438,0.3000,0.0600,0.0002,0,-3.5685,-143.5000,-0.0071,-3.5685,-143.5000,-0.0071
0.7194,3.6726,0.1348,0.0000,-0.0000,-0.1800,0.0000,0.6400,0.3600,-0.0028,-0.0098,0.0009,1360,1497,1501,1502,1000,1000,1505,1000,1000,1979,1205,2008,1103,-2.1323,-0.5029,1.5775,0.0521,-0.0604,0.9713,0.3678,0.3717,0.3539,0.3465,0.2204,0.0082,0.0438,0.2204,0.0082,0.0438,0.3000,0.0600,0.0002,0,-3.5685,-143.5000,-0.0071,-3.5685,-143.5000,-0.0071
0.7255,3.6323,0.1479,0.0000,0.0686,-0.1800,0.0000,0.6400,0.3600,-0.0033,-0.0095,0.0025,1360,1497,1500,1502,1000,1000,1505,1000,1000,1979,1205,2008,1104,-1.0099,-0.8980,1.1199,0.0102,0.0397,0.9771,0.3687,0.3703,0.3564,0.3447,0.2204,0.0082,0.0438,0.2204,0.0082,0.0438,0.3000,0.0600,0.0002,0,-3.5685,-143.5000,-0.0071,-3.5685,-143.5000,-0.0071
0.7176,3.5907,0.1590,-0.0686,-0.0686,-0.1800,0.0000,0.6400,0.3600,-0.0045,-0.0095,0.0030,1360,1497,1500,1502,1000,1000,1505,1000,1000,1979,1205,2008,1104,1.6189,-0.6924,0.8899,-0.0000,0.0885,1.0080,0.3680,0.3710,0.3580,0.3431,0.2204,0.0082,0.0438,0.2204,0.0082,0.0438,0.3000,0.0600,0.0002,0,-3.5685,-143.5000,-0.0071,-3.5685,-143.5000,-0.0071
0.6973,3.5367,0.1641,0.0000,0.0686,-0.1800,0.0000,0.6400,0.3600,-0.0049,-0.0092,0.0056,1360,1497,1500,1502,1000,1000,1505,1000,1000,1979,1205,2008,1104,2.6139,-1.0848,0.0586,-0.0150,0.0996,1.0583,0.3699,0.3685,0.3612,0.3404,0.2204,0.0082,0.0438,0.2204,0.0082,0.0438,0.3000,0.0600,0.0002,0,-3.5685,-143.5000,-0.0071,-3.5685,-143.5000,-0.0071
0.6839,3.4846,0.1692,0.0000,-0.0686,-0.1800,0.0000,0.6400,0.3600,-0.0043,-0.0089,0.0055,1360,1497,1500,1502,1000,1000,1505,1000,1000,1979,1205,2008,1104,1.3879,-1.5239,0.1585,0.0346,0.0467,1.0265,0.3701,0.3677,0.3609,0.3413,0.2204,0.0082,0.0438,0.2204,0.0082,0.0438,0.3000,0.0600,0.0002,0,-3.5685,-143.5000,-0.0071,-3.5685,-143.5000,-0.0071
0.6867,3.4469,0.1754,0.0686,-0.0000,-0.1800,0.0000,0.6400,0.3600,-0.0041,-0.0089,0.0050,1360,1497,1500,1502,1000,1000,1505,1000,1000,1979,1205,2008,1104,0.8410,-1.4021,0.4767,0.0215,-0.0100,0.9744,0.3699,0.3679,0.3602,0.3420,0.2204,0.0082,0.0438,0.2204,0.0082,0.0438,0.3000,0.0600,0.0002,0,-3.5685,-143.5000,-0.0071,-3.5685,-143.5000,-0.0071
0.6975,3.4086,0.1792,0.0000,-0.0686,-0.1800,0.0000,0.6400,0.3600,-0.0037,-0.0089,0.0022,1360,1497,1501,1504,1000,1000,1505,1000,1000,1979,1205,2008,1103,-0.1448,-1.0926,1.1716,0.0050,-0.0403,0.9792,0.3674,0.3704,0.3569,0.3452,0.2204,0.0082,0.0438,0.2204,0.0082,0.0438,0.3000,0.0600,0.0002,0,-3.5685,-143.5000,-0.0071,-3.5685,-143.5000,-0.0071
0.7066,3.3681,0.1831,0.0000,-0.0686,-0.1800,0.0000,0.6400,0.3600,-0.0032,-0.0093,0.0035,1360,1497,1500,1502,1000,1000,1505,1000,1000,1979,1205,2008,1103,-1.3331,-0.1212,0.4130,-0.0089,-0.0614,0.9328,0.3696,0.3689,0.3574,0.3441,0.2204,0.0082,0.0438,0.2204,0.0082,0.0438,0.3000,0.0600,0.0002,0,-3.5685,-143.5000,-0.0071,-3.5685,-143.5000,-0.0071
0.7130,3.3242,0.1814,0.0686,-0.2057,-0.1800,0.0000,0.6400,0.3600,-0.0033,-0.0095,0.0060,1360,1497,1500,1502,1000,1000,1505,1000,1000,1979,1205,2008,1103,-1.0523,0.5988,-0.1759,0.0060,-0.0743,0.9237,0.3722,0.3667,0.3598,0.3412,0.2204,0.0082,0.0438,0.2204,0.0082,0.0438,0.3000,0.0600,0.0002,0,-3.5685,-143.5000,-0.0071,-3.5685,-143.5000,-0.0071
0.7158,3.2757,0.1794,0.0000,0.0686,-0.1800,0.0000,0.6400,0.3600,-0.0038,-0.0094,0.0061,1360,1497,1500,1502,1000,1000,1505,1000,1000,1979,1205,2008,1103,0.0644,0.5798,-0.1588,-0.0096,0.0421,1.0149,0.3717,0.3671,0.3605,0.3408,0.2204,0.0082,0.0438,0.2204,0.0082,0.0438,0.3000,0.0600,0.0002,0,-3.5685,-143.5000,-0.0071,-3.5685,-143.5000,-0.0071
0.7126,3.2221,0.1813,0.0000,-0.0000,-0.1800,0.0000,0.6400,0.3600,-0.0042,-0.0089,0.0054,1360,1497,1500,1502,1000,1000,1505,1000,1000,1979,1205,2008,1103,0.9893,-0.2231,0.0687,-0.0055,0.0627,1.0066,0.3701,0.3677,0.3607,0.3415,0.2204,0.0082,0.0438,0.2204,0.0082,0.0438,0.3000,0.0600,0.0002,0,-3.5685,-143.5000,-0.0071,-3.5685,-143.5000,-0.0071
0.7076,3.1745,0.1845,0.0000,-0.0000,-0.1800,0.0000,0.6400,0.3600,-0.0041,-0.0084,0.0052,1360,1497,1500,1502,1000,1000,1505,1000,1000,1979,1205,2008,1103,0.7975,-1.1337,0.1273,-0.0108,-0.0110,1.0605,0.3695,0.3673,0.3609,0.3423,0.2204,0.0082,0.0438,0.2204,0.0082,0.0438,0.3000,0.0600,0.0002,0,-3.5685,-143.5000,-0.0071,-3.5685,-143.5000,-0.0071
0.7079,3.1394,0.1904,0.0000,0.0686,-0.1800,0.0000,0.6400,0.3600,-0.0040,-0.0080,0.0045,1361,1497,1501,1504,1000,1000,1505,1000,1000,1979,1205,2008,1103,0.5231,-1.8520,0.4872,-0.0284,-0.0212,1.0499,0.3686,0.3675,0.3605,0.3435,0.2204,0.0082,0.0438,0.2204,0.0082,0.0438,0.3000,0.0600,0.0002,0,-3.5685,-143.5000,-0.0071,-3.5685,-143.5000,-0.0071
0.7041,3.1007,0.1994,0.0000,-0.0000,-0.1800,0.0000,0.6400,0.3610,-0.0041,-0.0079,0.0020,1361,1497,1500,1502,1000,1000,1505,1000,1000,1979,1205,2008,1103,0.8073,-2.0391,1.0381,0.0262,0.0273,1.0178,0.3667,0.3710,0.3592,0.3471,0.2204,0.0082,0.0438,0.2204,0.0082,0.0438,0.3000,0.0600,0.0002,0,-3.5685,-143.5000,-0.0071,-3.5685,-143.5000,-0.0071
0.6869,3.0765,0.2040,0.0686,0.1371,-0.1800,0.0000,0.6400,0.3610,-0.0038,-0.0080,0.0041,1361,1497,1500,1502,1000,1000,1505,1000,1000,1979,1205,2008,1103,0.1744,-1.6256,0.5789,0.0988,0.0260,0.9431,0.3694,0.3686,0.3609,0.3451,0.2204,0.0082,0.0438,0.2204,0.0082,0.0438,0.3000,0.0600,0.0002,0,-3.5685,-143.5000,-0.0071,-3.5685,-143.5000,-0.0071
0.6786,3.0457,0.2089,0.1371,-0.0000,-0.1800,0.0000,0.6400,0.3610,-0.0038,-0.0087,0.0033,1361,1497,1500,1502,1000,1000,1505,1000,1000,1979,1205,2008,1104,0.3483,0.0876,0.7750,0.0656,0.0388,0.9434,0.3692,0.3702,0.3595,0.3452,0.2204,0.0082,0.0438,0.2204,0.0082,0.0438,0.3000,0.0600,0.0002,0,-3.5685,-143.5000,-0.0071,-3.5685,-143.5000,-0.0071
0.6618,3.0144,0.2149,0.0686,-0.0000,-0.1800,0.0000,0.6400,0.3640,-0.0041,-0.0094,0.0036,1364,1497,1500,1502,1000,1000,1505,1000,1000,1979,1205,2008,1104,1.0163,1.9798,0.6983,-0.0277,0.0683,0.9934,0.3729,0.3740,0.3622,0.3469,0.2204,0.0082,0.0438,0.2204,0.0082,0.0438,0.3000,0.0600,0.0002,0,-3.5685,-143.5000,-0.0071,-3.5685,-143.5000,-0.0071
0.6464,2.9738,0.2204,-0.0686,-0.0686,-0.1800,0.0000,0.6400,0.3650,-0.0037,-0.0094,0.0041,1365,1497,1500,1502,1000,1000,1505,1000,1000,1979,1205,2008,1103,0.1629,2.0657,0.5413,-0.0493,-0.0458,1.0030,0.3748,0.3740,0.3634,0.3479,0.2204,0.0082,0.0438,0.2204,0.0082,0.0438,0.3000,0.0600,0.0002,0,-3.5685,-143.5000,-0.0071,-3.5685,-143.5000,-0.0071
0.6405,2.9327,0.2254,0.0000,0.0686,-0.1800,0.0000,0.6400,0.3650,-0.0032,-0.0089,0.0053,1365,1497,1501,1504,1000,1000,1505,1000,1000,1979,1205,2008,1103,-0.9930,1.2097,0.2472,-0.0495,-0.0708,1.0231,0.3761,0.3718,0.3646,0.3476,0.2204,0.0082,0.0438,0.2204,0.0082,0.0438,0.3000,0.0600,0.0002,0,-3.5685,-143.5000,-0.0071,-3.5685,-143.5000,-0.0071
0.6291,2.8974,0.2274,0.0000,0.0686,-0.1800,0.0000,0.6400,0.3660,-0.0029,-0.0084,0.0040,1366,1497,1500,1502,1000,1000,1505,1000,1000,1979,1205,2008,1103,-1.6634,0.1953,0.3743,-0.0230,-0.0661,1.0165,0.3755,0.3733,0.3644,0.3508,0.2204,0.0082,0.0438,0.2204,0.0082,0.0438,0.3000,0.0600,0.0002,0,-3.5685,-143.5000,-0.0071,-3.5685,-143.5000,-0.0071
0.6161,2.8703,0.2277,0.0686,0.2057,-0.1800,0.0000,0.6400,0.3660,-0.0025,-0.0076,0.0045,1366,1497,1500,1502,1000,1000,1505,1000,1000,1979,1205,2008,1103,-2.3634,-1.4687,0.3788,0.0194,-0.0333,0.9776,0.3756,0.3717,0.3654,0.3514,0.2204,0.0082,0.0438,0.2204,0.0082,0.0438,0.3000,0.0600,0.0002,0,-3.5685,-143.5000,-0.0071,-3.5685,-143.5000,-0.0071
0.6001,2.8529,0.2259,0.0000,-0.0000,-0.1800,0.0000,0.6400,0.3660,-0.0031,-0.0074,0.0055,1366,1497,1500,1502,1000,1000,1505,1000,1000,1979,1205,2008,1103,-0.8404,-1.8290,0.0090,0.0531,-0.0090,0.9918,0.3758,0.3711,0.3672,0.3499,0.2204,0.0082,0.0438,0.2204,0.0082,0.0438,0.3000,0.0600,0.0002,0,-3.5685,-143.5000,-0.0071,-3.5685,-143.5000,-0.0071
0.5875,2.8371,0.2229,0.0686,-0.0000,-0.1800,0.0000,0.6400,0.3660,-0.0036,-0.0076,0.0073,1366,1497,1500,1502,1000,1000,1505,1000,1000,1979,1205,2008,1104,0.3392,-1.4119,-0.5621,0.0607,0.0224,0.9987,0.3772,0.3699,0.3693,0.3475,0.2204,0.0082,0.0438,0.2204,0.0082,0.0438,0.3000,0.0600,0.0002,0,-3.5685,-143.5000,-0.0071,-3.5685,-143.5000,-0.0071
